File: Example_Data/25SC_s1_0042.004.dat
#F C:\frames\spec\25SC_s1_0042.004
#C title =s:42 frm:4 25SC_s1
#C wavelength =0.15406

#S 1  fr_average C:\frames\spec\25SC_s1_0042.004 C:\win32app\speccom\mask.axs chi 0 180 0 360 0.02
#C 2 theta =0.000000 to 180 deg
#C   q   =0.000000 to 81.568 nm^-1
#C  chi  =0.000000 to 360 deg
#C collumns:
#C  1 position (2theta or chi in degrees)
#C  2 average intensity (sum of all counts in the region divided with number of pixels)
#C  3 Number of pixels in region)
#C  4 error (sum of sqrt(intensity) for all pixels divided by number)
#N 4
#L TTh  Int  N_pix  Err
32.99 	0.049180 	61 	0.049180
33.01 	0.052692 	873 	0.051350
33.03 	0.056075 	1391 	0.054811
33.05 	0.047809 	1757 	0.047475
33.07 	0.056585 	2050 	0.054585
33.09 	0.058372 	2347 	0.057374
33.11 	0.055836 	2579 	0.055381
33.13 	0.063015 	2793 	0.061547
33.15 	0.051350 	2999 	0.050764
33.17 	0.050609 	3201 	0.050243
33.19 	0.057451 	3342 	0.056399
33.21 	0.051513 	3436 	0.050490
33.23 	0.063866 	3523 	0.062536
33.25 	0.049280 	3612 	0.049118
33.27 	0.058678 	3630 	0.057871
33.29 	0.052632 	3648 	0.051668
33.31 	0.048087 	3660 	0.047127
33.33 	0.056430 	3686 	0.055476
33.35 	0.056849 	3694 	0.055422
33.37 	0.065967 	3714 	0.064705
33.39 	0.063824 	3729 	0.062227
33.41 	0.060695 	3740 	0.060382
33.43 	0.055836 	3761 	0.054434
33.45 	0.061224 	3773 	0.059361
33.47 	0.061611 	3798 	0.061149
33.49 	0.056708 	3809 	0.054837
33.51 	0.060288 	3815 	0.059521
33.53 	0.060401 	3841 	0.057961
33.55 	0.063492 	3843 	0.062882
33.57 	0.059066 	3877 	0.057833
33.59 	0.057216 	3880 	0.056613
33.61 	0.058327 	3909 	0.057728
33.63 	0.063792 	3919 	0.062297
33.65 	0.056983 	3931 	0.056089
33.67 	0.053870 	3954 	0.053425
33.69 	0.053630 	3953 	0.052272
33.71 	0.055849 	3975 	0.055112
33.73 	0.055445 	4004 	0.054567
33.75 	0.058515 	3999 	0.057343
33.77 	0.054907 	4025 	0.054616
33.79 	0.052462 	4041 	0.051448
33.81 	0.056711 	4038 	0.055986
33.83 	0.056543 	4050 	0.055820
33.85 	0.058063 	4099 	0.056610
33.87 	0.054488 	4111 	0.053491
33.89 	0.058966 	4121 	0.057971
33.91 	0.065799 	4149 	0.064811
33.93 	0.055890 	4151 	0.054738
33.95 	0.054054 	4181 	0.052770
33.97 	0.055847 	4190 	0.054729
33.99 	0.052381 	4200 	0.051684
34.01 	0.059577 	4213 	0.058604
34.03 	0.057257 	4244 	0.056291
34.05 	0.059972 	4252 	0.058732
34.07 	0.061387 	4268 	0.060152
34.09 	0.055763 	4286 	0.055080
34.11 	0.060902 	4302 	0.060221
34.13 	0.055014 	4308 	0.054606
34.15 	0.056338 	4331 	0.055256
34.17 	0.058161 	4350 	0.057757
34.19 	0.060523 	4362 	0.059583
34.21 	0.057653 	4371 	0.056849
34.23 	0.060779 	4393 	0.060112
34.25 	0.060173 	4404 	0.059241
34.27 	0.058345 	4422 	0.057550
34.29 	0.057046 	4435 	0.056518
34.31 	0.051817 	4458 	0.050613
34.33 	0.055469 	4471 	0.054551
34.35 	0.056869 	4484 	0.055954
34.37 	0.057003 	4491 	0.055959
34.39 	0.049756 	4502 	0.049105
34.41 	0.055457 	4526 	0.054401
34.43 	0.061247 	4539 	0.060085
34.45 	0.056891 	4535 	0.056116
34.47 	0.053571 	4592 	0.052678
34.49 	0.054166 	4597 	0.052891
34.51 	0.062744 	4606 	0.061324
34.53 	0.062890 	4643 	0.062007
34.55 	0.062029 	4643 	0.061272
34.57 	0.063090 	4660 	0.062084
34.59 	0.050481 	4675 	0.049729
34.61 	0.052800 	4697 	0.052051
34.63 	0.057537 	4710 	0.056791
34.65 	0.057615 	4721 	0.056498
34.67 	0.056950 	4741 	0.056085
34.69 	0.055743 	4754 	0.054880
34.71 	0.064624 	4766 	0.063498
34.73 	0.057029 	4787 	0.056540
34.75 	0.052829 	4808 	0.052341
34.77 	0.061436 	4818 	0.059836
34.79 	0.056799 	4824 	0.055828
34.81 	0.053044 	4845 	0.051815
34.83 	0.055121 	4862 	0.054519
34.85 	0.056274 	4869 	0.055553
34.87 	0.058546 	4868 	0.057322
34.89 	0.061041 	4882 	0.059961
34.91 	0.061450 	4882 	0.060250
34.93 	0.060625 	4899 	0.059907
34.95 	0.055010 	4890 	0.054531
34.97 	0.058752 	4902 	0.057676
34.99 	0.062283 	4897 	0.061446
35.01 	0.053423 	4923 	0.052114
35.03 	0.058467 	4943 	0.057755
35.05 	0.057611 	4947 	0.056881
35.07 	0.060121 	4940 	0.059291
35.09 	0.062790 	4953 	0.061726
35.11 	0.054174 	4947 	0.052398
35.13 	0.056878 	4958 	0.056287
35.15 	0.060361 	4937 	0.059293
35.17 	0.050546 	4946 	0.050072
35.19 	0.052206 	4942 	0.051139
35.21 	0.055814 	4945 	0.055459
35.23 	0.055207 	4945 	0.054023
35.25 	0.056848 	4943 	0.055544
35.27 	0.055174 	4948 	0.054108
35.29 	0.057027 	4945 	0.056553
35.31 	0.055544 	4933 	0.054476
35.33 	0.052195 	4943 	0.051247
35.35 	0.057871 	4942 	0.056923
35.37 	0.055072 	4939 	0.054123
35.39 	0.056623 	4945 	0.055675
35.41 	0.062119 	4926 	0.060455
35.43 	0.059193 	4933 	0.057967
35.45 	0.052461 	4937 	0.051393
35.47 	0.057798 	4931 	0.056590
35.49 	0.054582 	4910 	0.053986
35.51 	0.058262 	4926 	0.056340
35.53 	0.064457 	4949 	0.062919
35.55 	0.049141 	4945 	0.048667
35.57 	0.062234 	4933 	0.061521
35.59 	0.065319 	4945 	0.064134
35.61 	0.057467 	4942 	0.056637
35.63 	0.060085 	4943 	0.059255
35.65 	0.056623 	4945 	0.055557
35.67 	0.058681 	4942 	0.057476
35.69 	0.054792 	4946 	0.053706
35.71 	0.057120 	4937 	0.056289
35.73 	0.054092 	4936 	0.052767
35.75 	0.059826 	4931 	0.058994
35.77 	0.051303 	4951 	0.050948
35.79 	0.061030 	4932 	0.059961
35.81 	0.052504 	4933 	0.052029
35.83 	0.055196 	4946 	0.054249
35.85 	0.056535 	4935 	0.055585
35.87 	0.057485 	4923 	0.056652
35.89 	0.057965 	4934 	0.056897
35.91 	0.052567 	4927 	0.051973
35.93 	0.052365 	4927 	0.051889
35.95 	0.060809 	4917 	0.059737
35.97 	0.058428 	4912 	0.057335
35.99 	0.051427 	4939 	0.050597
36.01 	0.057809 	4930 	0.056740
36.03 	0.063726 	4943 	0.062186
36.05 	0.055207 	4945 	0.054378
36.07 	0.056489 	4939 	0.055066
36.09 	0.061741 	4940 	0.060180
36.11 	0.055386 	4929 	0.054317
36.13 	0.060907 	4942 	0.059445
36.15 	0.065600 	4939 	0.064651
36.17 	0.055228 	4925 	0.054158
36.19 	0.059109 	4940 	0.057686
36.21 	0.057618 	4929 	0.055717
36.23 	0.060182 	4935 	0.058639
36.25 	0.061324 	4941 	0.060020
36.27 	0.059086 	4925 	0.058492
36.29 	0.051714 	4931 	0.051001
36.31 	0.061891 	4928 	0.060703
36.33 	0.058788 	4933 	0.058075
36.35 	0.059444 	4929 	0.058493
36.37 	0.058704 	4923 	0.057514
36.39 	0.055070 	4921 	0.054118
36.41 	0.053513 	4896 	0.052795
36.43 	0.059050 	4928 	0.057743
36.45 	0.053144 	4930 	0.051956
36.47 	0.050648 	4936 	0.049462
36.49 	0.051194 	4942 	0.050463
36.51 	0.053517 	4933 	0.052805
36.53 	0.058467 	4943 	0.057637
36.55 	0.052770 	4927 	0.052038
36.57 	0.057560 	4934 	0.056254
36.59 	0.055679 	4939 	0.055205
36.61 	0.058406 	4931 	0.057693
36.63 	0.055364 	4931 	0.054651
36.65 	0.052920 	4932 	0.051970
36.67 	0.059432 	4930 	0.057511
36.69 	0.056401 	4929 	0.054856
36.71 	0.050803 	4921 	0.049236
36.73 	0.049746 	4925 	0.048914
36.75 	0.057241 	4944 	0.056412
36.77 	0.057125 	4919 	0.055915
36.79 	0.058728 	4921 	0.057538
36.81 	0.054719 	4916 	0.053647
36.83 	0.056968 	4915 	0.055777
36.85 	0.058187 	4898 	0.057469
36.87 	0.056028 	4944 	0.055554
36.89 	0.056347 	4916 	0.055036
36.91 	0.051609 	4941 	0.051253
36.93 	0.052535 	4930 	0.051941
36.95 	0.058382 	4933 	0.056938
36.97 	0.053709 	4934 	0.053115
36.99 	0.057548 	4935 	0.057192
37.01 	0.053720 	4933 	0.052532
37.03 	0.054427 	4924 	0.053476
37.05 	0.062107 	4927 	0.061156
37.07 	0.057143 	4935 	0.056075
37.09 	0.053977 	4928 	0.053145
37.11 	0.054711 	4935 	0.054118
37.13 	0.052193 	4924 	0.051222
37.15 	0.057649 	4909 	0.056078
37.17 	0.051682 	4934 	0.050851
37.19 	0.054416 	4925 	0.053108
37.21 	0.050641 	4917 	0.050045
37.23 	0.059170 	4918 	0.058317
37.25 	0.051517 	4911 	0.051040
37.27 	0.054148 	4894 	0.053669
37.29 	0.051927 	4930 	0.051095
37.31 	0.052482 	4935 	0.051651
37.33 	0.051959 	4927 	0.050294
37.35 	0.058121 	4938 	0.057053
37.37 	0.054800 	4927 	0.053473
37.39 	0.057392 	4931 	0.056917
37.41 	0.054553 	4931 	0.053484
37.43 	0.049067 	4932 	0.048473
37.45 	0.049553 	4924 	0.048225
37.47 	0.053155 	4929 	0.053036
37.49 	0.053016 	4923 	0.051470
37.51 	0.057571 	4933 	0.056621
37.53 	0.054483 	4919 	0.053649
37.55 	0.052738 	4930 	0.052006
37.57 	0.049949 	4925 	0.049830
37.59 	0.054730 	4915 	0.053777
37.61 	0.058106 	4922 	0.057154
37.63 	0.051637 	4919 	0.050922
37.65 	0.058357 	4918 	0.057285
37.67 	0.050163 	4904 	0.049208
37.69 	0.053695 	4898 	0.052739
37.71 	0.056401 	4929 	0.055569
37.73 	0.051532 	4929 	0.050462
37.75 	0.055061 	4940 	0.053994
37.77 	0.055894 	4920 	0.054942
37.79 	0.052941 	4930 	0.052347
37.81 	0.054125 	4933 	0.053294
37.83 	0.051220 	4920 	0.050862
37.85 	0.057294 	4922 	0.056580
37.87 	0.052845 	4939 	0.052370
37.89 	0.056650 	4925 	0.055698
37.91 	0.052333 	4930 	0.051501
37.93 	0.056922 	4919 	0.056327
37.95 	0.058321 	4921 	0.057607
37.97 	0.050517 	4929 	0.049685
37.99 	0.048046 	4912 	0.046734
38.01 	0.054586 	4928 	0.053635
38.03 	0.057038 	4909 	0.056203
38.05 	0.055228 	4925 	0.054277
38.07 	0.052964 	4909 	0.052129
38.09 	0.058426 	4878 	0.057585
38.11 	0.054103 	4935 	0.053629
38.13 	0.052258 	4937 	0.051902
38.15 	0.059374 	4918 	0.058183
38.17 	0.056389 	4930 	0.055201
38.19 	0.054361 	4930 	0.053529
38.21 	0.056063 	4923 	0.055587
38.23 	0.051235 	4938 	0.050524
38.25 	0.056539 	4917 	0.056062
38.27 	0.058621 	4930 	0.057908
38.29 	0.059098 	4924 	0.057552
38.31 	0.059062 	4927 	0.058230
38.33 	0.059911 	4924 	0.058959
38.35 	0.050122 	4928 	0.048933
38.37 	0.068440 	4924 	0.067013
38.39 	0.065186 	4909 	0.064351
38.41 	0.069673 	4923 	0.067412
38.43 	0.061635 	4916 	0.060444
38.45 	0.055714 	4918 	0.055237
38.47 	0.070104 	4907 	0.069030
38.49 	0.061513 	4877 	0.061033
38.51 	0.064274 	4932 	0.062730
38.53 	0.065733 	4929 	0.064664
38.55 	0.067058 	4936 	0.066109
38.57 	0.068860 	4923 	0.067314
38.59 	0.060114 	4924 	0.059281
38.61 	0.069287 	4936 	0.067863
38.63 	0.056864 	4924 	0.056032
38.65 	0.065067 	4918 	0.063519
38.67 	0.055499 	4937 	0.054075
38.69 	0.059325 	4922 	0.058235
38.71 	0.060926 	4924 	0.059974
38.73 	0.050630 	4918 	0.049658
38.75 	0.060077 	4927 	0.058888
38.77 	0.059110 	4923 	0.057801
38.79 	0.054520 	4934 	0.053570
38.81 	0.057818 	4912 	0.056506
38.83 	0.055092 	4919 	0.054140
38.85 	0.055171 	4912 	0.054455
38.87 	0.054775 	4911 	0.053801
38.89 	0.050235 	4897 	0.049278
38.91 	0.057108 	4903 	0.056152
38.93 	0.056298 	4938 	0.055230
38.95 	0.051647 	4918 	0.051290
38.97 	0.053539 	4931 	0.053182
38.99 	0.054892 	4937 	0.053705
39.01 	0.051444 	4918 	0.050372
39.03 	0.052088 	4934 	0.051019
39.05 	0.052386 	4925 	0.051415
39.07 	0.055646 	4924 	0.054694
39.09 	0.048548 	4923 	0.047834
39.11 	0.052119 	4931 	0.051406
39.13 	0.047329 	4923 	0.046734
39.15 	0.056155 	4915 	0.055082
39.17 	0.056715 	4937 	0.055409
39.19 	0.054912 	4917 	0.054197
39.21 	0.051731 	4910 	0.050896
39.23 	0.054213 	4925 	0.053381
39.25 	0.056075 	4922 	0.055123
39.27 	0.051527 	4910 	0.050315
39.29 	0.050194 	4901 	0.049477
39.31 	0.049754 	4884 	0.049394
39.33 	0.055161 	4931 	0.054448
39.35 	0.053495 	4935 	0.052427
39.37 	0.053966 	4929 	0.053471
39.39 	0.048894 	4929 	0.048300
39.41 	0.060434 	4931 	0.060078
39.43 	0.052301 	4933 	0.051351
39.45 	0.050761 	4925 	0.049929
39.47 	0.048141 	4923 	0.047903
39.49 	0.054125 	4933 	0.053413
39.51 	0.051381 	4924 	0.050429
39.53 	0.052204 	4923 	0.051133
39.55 	0.053060 	4919 	0.051988
39.57 	0.059599 	4933 	0.059242
39.59 	0.059243 	4912 	0.058289
39.61 	0.058704 	4923 	0.057157
39.63 	0.049370 	4922 	0.048775
39.65 	0.054405 	4926 	0.054167
39.67 	0.055160 	4913 	0.054206
39.69 	0.050448 	4916 	0.049733
39.71 	0.053933 	4895 	0.053095
39.73 	0.057050 	4908 	0.055717
39.75 	0.051136 	4928 	0.050542
39.77 	0.046201 	4935 	0.045845
39.79 	0.057450 	4926 	0.056856
39.81 	0.061092 	4927 	0.060022
39.83 	0.057762 	4934 	0.057288
39.85 	0.055003 	4927 	0.054290
39.87 	0.052995 	4925 	0.052281
39.89 	0.059384 	4934 	0.058315
39.91 	0.056075 	4922 	0.055837
39.93 	0.055904 	4937 	0.054461
39.95 	0.057782 	4915 	0.056948
39.97 	0.052760 	4928 	0.051789
39.99 	0.048865 	4932 	0.048152
40.01 	0.053070 	4918 	0.052475
40.03 	0.048904 	4928 	0.047834
40.05 	0.051658 	4917 	0.049990
40.07 	0.049563 	4923 	0.048730
40.09 	0.048820 	4916 	0.048463
40.11 	0.053295 	4916 	0.052223
40.13 	0.052083 	4896 	0.051485
40.15 	0.049868 	4913 	0.048795
40.17 	0.054180 	4928 	0.053586
40.19 	0.050112 	4929 	0.048923
40.21 	0.057751 	4935 	0.057039
40.23 	0.048662 	4932 	0.048424
40.25 	0.051220 	4920 	0.050148
40.27 	0.048005 	4937 	0.047056
40.29 	0.056018 	4927 	0.055186
40.31 	0.050820 	4939 	0.050583
40.33 	0.053325 	4932 	0.052494
40.35 	0.052653 	4919 	0.051700
40.37 	0.045648 	4929 	0.045054
40.39 	0.052119 	4931 	0.051268
40.41 	0.058883 	4925 	0.057555
40.43 	0.047338 	4922 	0.046743
40.45 	0.052504 	4933 	0.051791
40.47 	0.048190 	4918 	0.046999
40.49 	0.053187 	4926 	0.052236
40.51 	0.053840 	4922 	0.053602
40.53 	0.049430 	4916 	0.048954
40.55 	0.055827 	4908 	0.055350
40.57 	0.049284 	4890 	0.048685
40.59 	0.054892 	4937 	0.053942
40.61 	0.051672 	4935 	0.051434
40.63 	0.053144 	4930 	0.051599
40.65 	0.051246 	4937 	0.050633
40.67 	0.043187 	4932 	0.042118
40.69 	0.050435 	4937 	0.049842
40.71 	0.049270 	4932 	0.048201
40.73 	0.056435 	4926 	0.055464
40.75 	0.055972 	4931 	0.055497
40.77 	0.046163 	4939 	0.045313
40.79 	0.054021 	4924 	0.053188
40.81 	0.047359 	4941 	0.047122
40.83 	0.049107 	4928 	0.048869
40.85 	0.050162 	4924 	0.049330
40.87 	0.054992 	4928 	0.054160
40.89 	0.050294 	4931 	0.049344
40.91 	0.055657 	4923 	0.054824
40.93 	0.049858 	4934 	0.048908
40.95 	0.051496 	4913 	0.050423
40.97 	0.049147 	4924 	0.048195
40.99 	0.050975 	4924 	0.049785
41.01 	0.053542 	4912 	0.052569
41.03 	0.052803 	4905 	0.051848
41.05 	0.045786 	4936 	0.045311
41.07 	0.048884 	4930 	0.048290
41.09 	0.051225 	4939 	0.050632
41.11 	0.051469 	4935 	0.050401
41.13 	0.052269 	4936 	0.051300
41.15 	0.047561 	4941 	0.046850
41.17 	0.053709 	4934 	0.052621
41.19 	0.047870 	4930 	0.047395
41.21 	0.051448 	4937 	0.050736
41.23 	0.047378 	4939 	0.046904
41.25 	0.052706 	4933 	0.051974
41.27 	0.046846 	4931 	0.046728
41.29 	0.043425 	4928 	0.042474
41.31 	0.050071 	4933 	0.049477
41.33 	0.047802 	4937 	0.046972
41.35 	0.048198 	4938 	0.047842
41.37 	0.052803 	4924 	0.052327
41.39 	0.045003 	4933 	0.044291
41.41 	0.049736 	4926 	0.049023
41.43 	0.052343 	4929 	0.051135
41.45 	0.047009 	4914 	0.046055
41.47 	0.050548 	4926 	0.049954
41.49 	0.050082 	4892 	0.049363
41.51 	0.050202 	4940 	0.049135
41.53 	0.049960 	4944 	0.049130
41.55 	0.050456 	4935 	0.049744
41.57 	0.043109 	4941 	0.042872
41.59 	0.046017 	4933 	0.045423
41.61 	0.051282 	4953 	0.050572
41.63 	0.050020 	4938 	0.049427
41.65 	0.049300 	4929 	0.049062
41.67 	0.047166 	4940 	0.046573
41.69 	0.049727 	4947 	0.049372
41.71 	0.046007 	4934 	0.045157
41.73 	0.050243 	4936 	0.050006
41.75 	0.047271 	4929 	0.046439
41.77 	0.046752 	4941 	0.046396
41.79 	0.049555 	4944 	0.048844
41.81 	0.050243 	4936 	0.049412
41.83 	0.050122 	4928 	0.049409
41.85 	0.052642 	4939 	0.051299
41.87 	0.047011 	4935 	0.046180
41.89 	0.048652 	4933 	0.048177
41.91 	0.049230 	4936 	0.048399
41.93 	0.044607 	4932 	0.044250
41.95 	0.052930 	4931 	0.051961
41.97 	0.046195 	4914 	0.045956
41.99 	0.047910 	4905 	0.047552
42.01 	0.047147 	4942 	0.046791
42.03 	0.047176 	4939 	0.045871
42.05 	0.046648 	4952 	0.045583
42.07 	0.050030 	4937 	0.049556
42.09 	0.048504 	4948 	0.047676
42.11 	0.052174 	4945 	0.051463
42.13 	0.044489 	4945 	0.043779
42.15 	0.040097 	4938 	0.039623
42.17 	0.053884 	4918 	0.052931
42.19 	0.048696 	4908 	0.047980
42.21 	0.044481 	4901 	0.043644
42.23 	0.043949 	4892 	0.042872
42.25 	0.047249 	4889 	0.046889
42.27 	0.048420 	4874 	0.048300
42.29 	0.044828 	4863 	0.043985
42.31 	0.049022 	4855 	0.048539
42.33 	0.042615 	4834 	0.041524
42.35 	0.050434 	4838 	0.049587
42.37 	0.046998 	4830 	0.046392
42.39 	0.044546 	4804 	0.044058
42.41 	0.043922 	4804 	0.043434
42.43 	0.051544 	4792 	0.050811
42.45 	0.046482 	4776 	0.045869
42.47 	0.047009 	4765 	0.046395
42.49 	0.049318 	4765 	0.049072
42.51 	0.043854 	4743 	0.042866
42.53 	0.050550 	4728 	0.050054
42.55 	0.044180 	4708 	0.043682
42.57 	0.039323 	4730 	0.039076
42.59 	0.043561 	4729 	0.043189
42.61 	0.045667 	4708 	0.045294
42.63 	0.042897 	4709 	0.042026
42.65 	0.043330 	4685 	0.042455
42.67 	0.048676 	4684 	0.047801
42.69 	0.045999 	4674 	0.045623
42.71 	0.049968 	4663 	0.049340
42.73 	0.050216 	4640 	0.049458
42.75 	0.041585 	4617 	0.041057
42.77 	0.046522 	4600 	0.045630
42.79 	0.049542 	4582 	0.049137
42.81 	0.044936 	4562 	0.044423
42.83 	0.043430 	4536 	0.042914
42.85 	0.036882 	4528 	0.036364
42.87 	0.044454 	4499 	0.044064
42.89 	0.047098 	4480 	0.046314
42.91 	0.046679 	4456 	0.045890
42.93 	0.043635 	4446 	0.043239
42.95 	0.042346 	4416 	0.041550
42.97 	0.048853 	4401 	0.048165
42.99 	0.043558 	4385 	0.042489
43.01 	0.041714 	4363 	0.041580
43.03 	0.042696 	4333 	0.042155
43.05 	0.044624 	4325 	0.043947
43.07 	0.042132 	4296 	0.041314
43.09 	0.049031 	4283 	0.048210
43.11 	0.044653 	4255 	0.044378
43.13 	0.040123 	4237 	0.040123
43.15 	0.043985 	4206 	0.043567
43.17 	0.046662 	4179 	0.046382
43.19 	0.045541 	4194 	0.044564
43.21 	0.041467 	4172 	0.040905
43.23 	0.044054 	4154 	0.043631
43.25 	0.052237 	4135 	0.051387
43.27 	0.041900 	4105 	0.041615
43.29 	0.047317 	4100 	0.046603
43.31 	0.046580 	4079 	0.045718
43.33 	0.048136 	4051 	0.047558
43.35 	0.037946 	4032 	0.037511
43.37 	0.054795 	4015 	0.053627
43.39 	0.048226 	4002 	0.047640
43.41 	0.041037 	3972 	0.040890
43.43 	0.049495 	3960 	0.048755
43.45 	0.044473 	3935 	0.044026
43.47 	0.051517 	3921 	0.050472
43.49 	0.049012 	3897 	0.048260
43.51 	0.047975 	3877 	0.047220
43.53 	0.040901 	3863 	0.040598
43.55 	0.054656 	2964 	0.053272
43.57 	0.058981 	2238 	0.057934
43.59 	0.052692 	1746 	0.052021
43.61 	0.048113 	1351 	0.047679
43.63 	0.048951 	1001 	0.048366
43.65 	0.039301 	687 	0.039301
43.67 	0.049801 	502 	0.048634
43.69 	0.038147 	367 	0.038147
43.71 	0.054393 	239 	0.051942
43.73 	0.058333 	120 	0.053452
43.75 	0.000000 	16 	0.000000