File: Example_Data/25SC_s1_0022.000.dat
#F C:\frames\spec\25SC_s1_0022.000
#C title =s:22 frm:0 25SC_s1
#C wavelength =0.15406

#S 1  fr_average C:\frames\spec\25SC_s1_0022.000 C:\win32app\speccom\mask.axs chi 0 180 0 360 0.02
#C 2 theta =0.000000 to 180 deg
#C   q   =0.000000 to 81.568 nm^-1
#C  chi  =0.000000 to 360 deg
#C collumns:
#C  1 position (2theta or chi in degrees)
#C  2 average intensity (sum of all counts in the region divided with number of pixels)
#C  3 Number of pixels in region)
#C  4 error (sum of sqrt(intensity) for all pixels divided by number)
#N 4
#L TTh  Int  N_pix  Err
32.99 	0.065574 	61 	0.065574
33.01 	0.068729 	873 	0.068729
33.03 	0.053918 	1391 	0.053918
33.05 	0.069437 	1757 	0.067770
33.07 	0.056098 	2050 	0.055240
33.09 	0.054538 	2347 	0.054039
33.11 	0.051183 	2579 	0.050728
33.13 	0.063731 	2793 	0.062263
33.15 	0.060353 	2999 	0.059377
33.17 	0.055295 	3201 	0.053831
33.19 	0.063435 	3342 	0.062559
33.21 	0.058789 	3436 	0.057766
33.23 	0.059892 	3523 	0.059227
33.25 	0.058693 	3612 	0.057396
33.27 	0.061983 	3630 	0.061150
33.29 	0.052357 	3648 	0.051394
33.31 	0.058470 	3660 	0.057670
33.33 	0.062398 	3686 	0.061286
33.35 	0.067136 	3694 	0.065392
33.37 	0.061928 	3714 	0.060824
33.39 	0.062751 	3729 	0.061652
33.41 	0.062032 	3740 	0.061719
33.43 	0.058229 	3761 	0.058073
33.45 	0.059104 	3773 	0.057707
33.47 	0.056345 	3798 	0.055395
33.49 	0.064584 	3809 	0.063200
33.51 	0.064744 	3815 	0.064130
33.53 	0.059880 	3841 	0.058355
33.55 	0.061931 	3843 	0.060559
33.57 	0.067578 	3877 	0.066369
33.59 	0.055928 	3880 	0.054267
33.61 	0.060373 	3909 	0.059474
33.63 	0.061750 	3919 	0.060555
33.65 	0.061053 	3931 	0.059861
33.67 	0.058422 	3954 	0.058126
33.69 	0.056413 	3953 	0.055524
33.71 	0.062893 	3975 	0.061567
33.73 	0.056444 	4004 	0.055858
33.75 	0.061015 	3999 	0.060429
33.77 	0.054161 	4025 	0.053288
33.79 	0.058649 	4041 	0.057344
33.81 	0.059683 	4038 	0.058668
33.83 	0.058765 	4050 	0.057753
33.85 	0.054160 	4099 	0.053159
33.87 	0.062515 	4111 	0.061233
33.89 	0.055569 	4121 	0.054574
33.91 	0.062666 	4149 	0.061113
33.93 	0.058058 	4151 	0.057753
33.95 	0.065295 	4181 	0.063754
33.97 	0.058711 	4190 	0.058012
33.99 	0.055000 	4200 	0.054163
34.01 	0.057204 	4213 	0.055791
34.03 	0.061027 	4244 	0.060061
34.05 	0.052916 	4252 	0.052503
34.07 	0.057873 	4268 	0.057049
34.09 	0.056230 	4286 	0.055114
34.11 	0.059740 	4302 	0.058514
34.13 	0.058264 	4308 	0.057289
34.15 	0.057723 	4331 	0.057182
34.17 	0.060000 	4350 	0.059057
34.19 	0.061669 	4362 	0.060595
34.21 	0.060627 	4371 	0.059667
34.23 	0.056453 	4393 	0.055787
34.25 	0.061081 	4404 	0.059618
34.27 	0.061284 	4422 	0.059960
34.29 	0.064036 	4435 	0.063376
34.31 	0.059444 	4458 	0.057845
34.33 	0.056140 	4471 	0.054698
34.35 	0.057538 	4484 	0.056623
34.37 	0.059452 	4491 	0.058278
34.39 	0.054198 	4502 	0.053548
34.41 	0.054353 	4526 	0.053317
34.43 	0.057942 	4539 	0.057555
34.45 	0.058214 	4535 	0.057181
34.47 	0.054660 	4592 	0.054022
34.49 	0.055253 	4597 	0.054361
34.51 	0.061007 	4606 	0.059333
34.53 	0.061167 	4643 	0.059780
34.55 	0.056429 	4643 	0.055399
34.57 	0.062232 	4660 	0.061457
34.59 	0.057754 	4675 	0.056626
34.61 	0.052587 	4697 	0.051589
34.63 	0.053503 	4710 	0.052633
34.65 	0.057403 	4721 	0.056535
34.67 	0.054208 	4741 	0.053343
34.69 	0.051956 	4754 	0.051094
34.71 	0.065464 	4766 	0.064112
34.73 	0.059327 	4787 	0.058471
34.75 	0.055740 	4808 	0.054888
34.77 	0.056663 	4818 	0.055933
34.79 	0.060531 	4824 	0.059924
34.81 	0.059030 	4845 	0.056854
34.83 	0.061086 	4862 	0.059861
34.85 	0.060587 	4869 	0.059505
34.87 	0.055464 	4868 	0.054502
34.89 	0.054486 	4882 	0.054006
34.91 	0.061450 	4882 	0.059991
34.93 	0.055522 	4899 	0.054326
34.95 	0.051125 	4890 	0.050406
34.97 	0.063851 	4902 	0.062756
34.99 	0.052481 	4897 	0.051644
35.01 	0.055251 	4923 	0.054537
35.03 	0.055027 	4943 	0.054316
35.05 	0.059228 	4947 	0.058636
35.07 	0.058502 	4940 	0.057672
35.09 	0.059560 	4953 	0.058495
35.11 	0.053164 	4947 	0.052216
35.13 	0.059298 	4958 	0.058471
35.15 	0.064412 	4937 	0.062869
35.17 	0.061464 	4946 	0.060516
35.19 	0.056455 	4942 	0.056099
35.21 	0.057027 	4945 	0.056080
35.23 	0.061881 	4945 	0.060933
35.25 	0.058264 	4943 	0.056211
35.27 	0.059014 	4948 	0.058067
35.29 	0.058241 	4945 	0.057293
35.31 	0.054125 	4933 	0.053650
35.33 	0.058669 	4943 	0.057958
35.35 	0.062930 	4942 	0.061370
35.37 	0.052642 	4939 	0.051931
35.39 	0.054803 	4945 	0.054092
35.41 	0.059683 	4926 	0.058970
35.43 	0.057774 	4933 	0.056943
35.45 	0.061778 	4937 	0.060592
35.47 	0.060637 	4931 	0.059092
35.49 	0.058859 	4910 	0.058263
35.51 	0.055420 	4926 	0.054469
35.53 	0.060416 	4949 	0.059351
35.55 	0.055410 	4945 	0.054580
35.57 	0.060612 	4933 	0.058831
35.59 	0.062690 	4945 	0.062097
35.61 	0.062728 	4942 	0.061898
35.63 	0.058669 	4943 	0.057484
35.65 	0.062083 	4945 	0.061017
35.67 	0.060299 	4942 	0.058640
35.69 	0.054792 	4946 	0.054081
35.71 	0.058740 	4937 	0.057415
35.73 	0.053079 	4936 	0.052605
35.75 	0.061651 	4931 	0.060819
35.77 	0.059180 	4951 	0.057287
35.79 	0.056569 	4932 	0.056094
35.81 	0.056963 	4933 	0.055638
35.83 	0.060655 	4946 	0.059471
35.85 	0.061398 	4935 	0.060449
35.87 	0.053423 	4923 	0.052828
35.89 	0.060803 	4934 	0.060328
35.91 	0.061092 	4927 	0.060379
35.93 	0.058047 	4927 	0.056502
35.95 	0.057962 	4917 	0.057366
35.97 	0.057410 	4912 	0.056337
35.99 	0.058514 	4939 	0.057091
36.01 	0.055984 	4930 	0.054776
36.03 	0.059073 	4943 	0.058599
36.05 	0.063296 	4945 	0.061836
36.07 	0.061348 	4939 	0.060024
36.09 	0.057895 	4940 	0.056946
36.11 	0.058227 	4929 	0.057633
36.13 	0.060097 	4942 	0.059267
36.15 	0.053857 	4939 	0.053145
36.17 	0.059898 	4925 	0.058590
36.19 	0.055668 	4940 	0.054344
36.21 	0.053763 	4929 	0.053169
36.23 	0.060385 	4935 	0.059673
36.25 	0.063550 	4941 	0.061871
36.27 	0.057665 	4925 	0.056832
36.29 	0.058406 	4931 	0.057812
36.31 	0.056818 	4928 	0.055134
36.33 	0.063248 	4933 	0.062179
36.35 	0.062487 	4929 	0.062012
36.37 	0.057892 	4923 	0.056940
36.39 	0.063402 	4921 	0.062449
36.41 	0.064951 	4896 	0.063994
36.43 	0.054992 	4928 	0.053803
36.45 	0.055578 	4930 	0.054628
36.47 	0.055511 	4936 	0.054442
36.49 	0.055241 	4942 	0.054174
36.51 	0.056963 	4933 	0.056251
36.53 	0.063322 	4943 	0.061525
36.55 	0.059874 	4927 	0.058329
36.57 	0.055330 	4934 	0.054381
36.59 	0.059121 	4939 	0.058765
36.61 	0.060434 	4931 	0.059008
36.63 	0.058000 	4931 	0.057169
36.65 	0.060624 	4932 	0.059793
36.67 	0.062475 	4930 	0.061049
36.69 	0.059444 	4929 	0.057880
36.71 	0.058321 	4921 	0.056536
36.73 	0.057462 	4925 	0.056629
36.75 	0.061489 	4944 	0.060284
36.77 	0.055499 	4919 	0.054665
36.79 	0.060760 	4921 	0.059927
36.81 	0.062449 	4916 	0.061377
36.83 	0.062055 	4915 	0.060744
36.85 	0.050225 	4898 	0.049507
36.87 	0.059668 	4944 	0.058602
36.89 	0.052685 	4916 	0.051494
36.91 	0.064562 	4941 	0.063613
36.93 	0.063895 	4930 	0.062587
36.95 	0.054531 	4933 	0.053818
36.97 	0.060803 	4934 	0.059615
36.99 	0.054103 	4935 	0.052778
37.01 	0.056761 	4933 	0.056147
37.03 	0.054021 	4924 	0.053188
37.05 	0.059265 	4927 	0.058195
37.07 	0.063222 	4935 	0.061916
37.09 	0.055804 	4928 	0.054853
37.11 	0.057751 	4935 	0.056564
37.13 	0.060317 	4924 	0.058889
37.15 	0.066409 	4909 	0.065335
37.17 	0.059587 	4934 	0.058755
37.19 	0.058071 	4925 	0.056406
37.21 	0.050844 	4917 	0.050367
37.23 	0.058154 	4918 	0.057300
37.25 	0.056404 	4911 	0.055450
37.27 	0.055783 	4894 	0.055184
37.29 	0.058621 	4930 	0.056838
37.31 	0.055117 	4935 	0.054523
37.33 	0.058859 	4927 	0.058027
37.35 	0.057918 	4938 	0.056851
37.37 	0.054394 	4927 	0.053800
37.39 	0.062462 	4931 	0.061393
37.41 	0.061854 	4931 	0.060547
37.43 	0.060219 	4932 	0.058912
37.45 	0.062754 	4924 	0.062020
37.47 	0.053763 	4929 	0.053526
37.49 	0.061142 	4923 	0.060190
37.51 	0.051895 	4933 	0.051302
37.53 	0.054076 	4919 	0.053362
37.55 	0.059229 	4930 	0.058635
37.57 	0.055838 	4925 	0.054767
37.59 	0.055137 	4915 	0.053707
37.61 	0.052621 	4922 	0.051907
37.63 	0.053466 	4919 	0.053109
37.65 	0.053274 	4918 	0.052202
37.67 	0.057504 	4904 	0.057026
37.69 	0.062066 	4898 	0.061090
37.71 	0.059038 	4929 	0.058325
37.73 	0.058633 	4929 	0.058157
37.75 	0.057287 	4940 	0.056102
37.77 	0.059756 	4920 	0.059042
37.79 	0.053347 	4930 	0.052277
37.81 	0.057571 	4933 	0.056028
37.83 	0.057724 	4920 	0.056414
37.85 	0.054246 	4922 	0.053651
37.87 	0.059526 	4939 	0.058340
37.89 	0.059289 	4925 	0.058814
37.91 	0.053144 	4930 	0.051956
37.93 	0.050417 	4919 	0.050179
37.95 	0.053241 	4921 	0.052408
37.97 	0.051735 	4929 	0.051022
37.99 	0.053542 	4912 	0.052708
38.01 	0.056006 	4928 	0.054580
38.03 	0.053168 	4909 	0.052332
38.05 	0.056650 	4925 	0.055203
38.07 	0.052353 	4909 	0.051518
38.09 	0.056786 	4878 	0.056425
38.11 	0.056940 	4935 	0.055872
38.13 	0.059145 	4937 	0.058196
38.15 	0.053477 	4918 	0.052881
38.17 	0.060852 	4930 	0.059664
38.19 	0.055781 	4930 	0.054117
38.21 	0.062970 	4923 	0.061423
38.23 	0.059133 	4938 	0.057710
38.25 	0.059793 	4917 	0.059078
38.27 	0.061258 	4930 	0.060307
38.29 	0.063769 	4924 	0.062818
38.31 	0.063730 	4927 	0.062185
38.33 	0.064582 	4924 	0.063511
38.35 	0.067573 	4928 	0.066265
38.37 	0.062145 	4924 	0.060955
38.39 	0.076187 	4909 	0.074974
38.41 	0.076579 	4923 	0.075151
38.43 	0.072417 	4916 	0.071344
38.45 	0.067507 	4918 	0.065482
38.47 	0.070512 	4907 	0.069059
38.49 	0.077097 	4877 	0.075535
38.51 	0.074209 	4932 	0.072903
38.53 	0.080544 	4929 	0.078128
38.55 	0.080024 	4936 	0.077968
38.57 	0.077392 	4923 	0.076440
38.59 	0.079204 	4924 	0.076468
38.61 	0.086710 	4936 	0.084811
38.63 	0.072299 	4924 	0.070614
38.65 	0.079301 	4918 	0.077395
38.67 	0.076970 	4937 	0.075783
38.69 	0.081065 	4922 	0.079398
38.71 	0.075751 	4924 	0.073134
38.73 	0.075641 	4918 	0.074569
38.75 	0.081388 	4927 	0.079724
38.77 	0.079626 	4923 	0.076811
38.79 	0.075801 	4934 	0.074257
38.81 	0.074308 	4912 	0.072857
38.83 	0.073389 	4919 	0.072436
38.85 	0.064739 	4912 	0.063547
38.87 	0.062105 	4911 	0.061151
38.89 	0.066163 	4897 	0.065206
38.91 	0.061391 	4903 	0.060555
38.93 	0.054678 	4938 	0.053966
38.95 	0.060187 	4918 	0.059472
38.97 	0.054350 	4931 	0.053400
38.99 	0.054892 	4937 	0.053705
39.01 	0.049614 	4918 	0.049375
39.03 	0.054114 	4934 	0.053402
39.05 	0.057868 	4925 	0.057154
39.07 	0.051990 	4924 	0.051019
39.09 	0.061142 	4923 	0.060071
39.11 	0.053336 	4931 	0.052861
39.13 	0.048548 	4923 	0.047953
39.15 	0.060834 	4915 	0.059623
39.17 	0.046182 	4937 	0.045470
39.19 	0.047387 	4917 	0.046434
39.21 	0.048473 	4910 	0.047637
39.23 	0.047513 	4925 	0.046918
39.25 	0.046729 	4922 	0.046134
39.27 	0.050713 	4910 	0.050355
39.29 	0.049174 	4901 	0.048217
39.31 	0.047707 	4884 	0.046867
39.33 	0.044818 	4931 	0.044225
39.35 	0.050456 	4935 	0.049506
39.37 	0.046663 	4929 	0.045712
39.39 	0.046257 	4929 	0.045663
39.41 	0.047252 	4931 	0.046421
39.43 	0.044192 	4933 	0.043480
39.45 	0.041218 	4925 	0.040624
39.47 	0.043876 	4923 	0.043638
39.49 	0.045814 	4933 	0.044963
39.51 	0.046101 	4924 	0.045744
39.53 	0.045501 	4923 	0.045144
39.55 	0.039642 	4919 	0.039047
39.57 	0.046219 	4933 	0.045269
39.59 	0.047842 	4912 	0.047365
39.61 	0.046313 	4923 	0.045599
39.63 	0.044088 	4922 	0.043612
39.65 	0.045473 	4926 	0.044284
39.67 	0.041319 	4913 	0.040961
39.69 	0.039056 	4916 	0.038818
39.71 	0.043105 	4895 	0.042627
39.73 	0.045232 	4908 	0.044636
39.75 	0.046469 	4928 	0.045518
39.77 	0.045998 	4935 	0.044930
39.79 	0.043646 	4926 	0.043289
39.81 	0.044043 	4927 	0.043924
39.83 	0.046413 	4934 	0.045700
39.85 	0.049929 	4927 	0.048859
39.87 	0.037970 	4925 	0.037494
39.89 	0.049453 	4934 	0.048365
39.91 	0.049777 	4922 	0.049419
39.93 	0.043346 	4937 	0.042753
39.95 	0.042930 	4915 	0.042691
39.97 	0.046063 	4928 	0.045944
39.99 	0.034672 	4932 	0.034434
40.01 	0.043107 	4918 	0.042392
40.03 	0.047890 	4928 	0.047414
40.05 	0.045353 	4917 	0.044281
40.07 	0.044688 	4923 	0.044450
40.09 	0.044548 	4916 	0.043714
40.11 	0.043328 	4916 	0.042970
40.13 	0.045956 	4896 	0.045238
40.15 	0.040301 	4913 	0.039586
40.17 	0.043425 	4928 	0.042712
40.19 	0.042199 	4929 	0.041605
40.21 	0.039108 	4935 	0.038752
40.23 	0.041363 	4932 	0.041006
40.25 	0.042683 	4920 	0.042326
40.27 	0.044764 	4937 	0.044289
40.29 	0.048102 	4927 	0.047746
40.31 	0.043531 	4939 	0.042938
40.33 	0.044607 	4932 	0.043894
40.35 	0.046554 	4919 	0.045840
40.37 	0.040373 	4929 	0.039779
40.39 	0.040357 	4931 	0.039644
40.41 	0.043249 	4925 	0.042535
40.43 	0.042056 	4922 	0.041342
40.45 	0.040949 	4933 	0.040711
40.47 	0.042090 	4918 	0.041018
40.49 	0.042834 	4926 	0.042239
40.51 	0.045307 	4922 	0.044474
40.53 	0.038649 	4916 	0.037696
40.55 	0.039935 	4908 	0.039457
40.57 	0.038855 	4890 	0.038376
40.59 	0.040916 	4937 	0.039966
40.61 	0.040729 	4935 	0.040611
40.63 	0.043408 	4930 	0.042913
40.65 	0.041523 	4937 	0.041167
40.67 	0.043998 	4932 	0.043761
40.69 	0.041118 	4937 	0.040881
40.71 	0.042985 	4932 	0.042628
40.73 	0.044864 	4926 	0.044626
40.75 	0.047860 	4931 	0.047148
40.77 	0.042519 	4939 	0.041807
40.79 	0.043054 	4924 	0.042698
40.81 	0.040680 	4941 	0.040206
40.83 	0.043628 	4928 	0.042558
40.85 	0.039805 	4924 	0.039567
40.87 	0.037946 	4928 	0.037233
40.89 	0.045427 	4931 	0.044120
40.91 	0.036563 	4923 	0.036444
40.93 	0.042562 	4934 	0.042206
40.95 	0.041115 	4913 	0.040758
40.97 	0.038180 	4924 	0.038061
40.99 	0.041024 	4924 	0.039765
41.01 	0.043567 	4912 	0.042970
41.03 	0.043425 	4905 	0.042709
41.05 	0.043558 	4936 	0.043439
41.07 	0.042191 	4930 	0.041597
41.09 	0.042519 	4939 	0.041906
41.11 	0.039311 	4935 	0.038955
41.13 	0.036872 	4936 	0.036753
41.15 	0.044121 	4941 	0.043528
41.17 	0.041143 	4934 	0.040075
41.19 	0.044625 	4930 	0.044031
41.21 	0.038687 	4937 	0.038332
41.23 	0.037457 	4939 	0.036983
41.25 	0.041557 	4933 	0.040706
41.27 	0.040560 	4931 	0.040322
41.29 	0.039367 	4928 	0.039129
41.31 	0.038111 	4933 	0.037992
41.33 	0.045777 	4937 	0.045184
41.35 	0.038275 	4938 	0.037800
41.37 	0.037774 	4924 	0.037655
41.39 	0.045003 	4933 	0.044291
41.41 	0.044458 	4926 	0.043982
41.43 	0.039562 	4929 	0.039324
41.45 	0.036834 	4914 	0.036456
41.47 	0.038368 	4926 	0.037892
41.49 	0.041292 	4892 	0.040214
41.51 	0.042915 	4940 	0.042322
41.53 	0.036812 	4944 	0.036694
41.55 	0.041743 	4935 	0.041387
41.57 	0.043513 	4941 	0.043158
41.59 	0.041354 	4933 	0.040998
41.61 	0.036544 	4953 	0.035952
41.63 	0.038680 	4938 	0.038205
41.65 	0.045648 	4929 	0.044816
41.67 	0.043927 	4940 	0.043196
41.69 	0.040226 	4947 	0.039634
41.71 	0.048034 	4934 	0.046946
41.73 	0.041126 	4936 	0.040296
41.75 	0.043214 	4929 	0.042619
41.77 	0.038251 	4941 	0.038014
41.79 	0.042880 	4944 	0.042031
41.81 	0.041734 	4936 	0.040903
41.83 	0.037135 	4928 	0.036283
41.85 	0.043126 	4939 	0.042415
41.87 	0.037285 	4935 	0.036691
41.89 	0.042570 	4933 	0.041620
41.91 	0.044976 	4936 	0.043908
41.93 	0.039335 	4932 	0.038504
41.95 	0.034273 	4931 	0.033441
41.97 	0.040090 	4914 	0.039970
41.99 	0.039755 	4905 	0.039636
42.01 	0.037030 	4942 	0.036792
42.03 	0.044138 	4939 	0.043783
42.05 	0.043417 	4952 	0.043180
42.07 	0.037675 	4937 	0.037437
42.09 	0.040218 	4948 	0.039508
42.11 	0.041860 	4945 	0.041604
42.13 	0.042063 	4945 	0.041233
42.15 	0.042122 	4938 	0.041529
42.17 	0.042700 	4918 	0.042224
42.19 	0.042584 	4908 	0.042225
42.21 	0.038564 	4901 	0.038325
42.23 	0.036590 	4892 	0.036351
42.25 	0.035181 	4889 	0.035061
42.27 	0.044932 	4874 	0.044452
42.29 	0.042361 	4863 	0.042240
42.31 	0.037899 	4855 	0.037416
42.33 	0.036409 	4834 	0.036409
42.35 	0.040513 	4838 	0.040149
42.37 	0.033126 	4830 	0.032884
42.39 	0.041216 	4804 	0.040972
42.41 	0.041424 	4804 	0.041180
42.43 	0.047579 	4792 	0.046846
42.45 	0.041248 	4776 	0.041125
42.47 	0.042812 	4765 	0.042320
42.49 	0.042392 	4765 	0.041901
42.51 	0.041324 	4743 	0.041201
42.53 	0.045897 	4728 	0.045525
42.55 	0.035259 	4708 	0.035259
42.57 	0.033404 	4730 	0.033032
42.59 	0.038486 	4729 	0.038238
42.61 	0.036109 	4708 	0.035984
42.63 	0.043109 	4709 	0.042363
42.65 	0.036713 	4685 	0.036588
42.67 	0.040777 	4684 	0.040527
42.69 	0.036585 	4674 	0.035959
42.71 	0.038173 	4663 	0.037922
42.73 	0.036638 	4640 	0.036133
42.75 	0.040502 	4617 	0.039614
42.77 	0.039783 	4600 	0.039401
42.79 	0.041030 	4582 	0.040519
42.81 	0.037045 	4562 	0.036532
42.83 	0.035053 	4536 	0.034665
42.85 	0.036882 	4528 	0.036235
42.87 	0.042676 	4499 	0.042025
42.89 	0.040402 	4480 	0.040140
42.91 	0.037702 	4456 	0.037571
42.93 	0.039811 	4446 	0.039416
42.95 	0.036232 	4416 	0.035812
42.97 	0.041127 	4401 	0.040328
42.99 	0.034664 	4385 	0.033862
43.01 	0.037818 	4363 	0.037684
43.03 	0.039926 	4333 	0.039521
43.05 	0.036301 	4325 	0.036030
43.07 	0.037709 	4296 	0.037437
43.09 	0.039225 	4283 	0.038678
43.11 	0.042303 	4255 	0.042028
43.13 	0.033042 	4237 	0.032766
43.15 	0.038279 	4206 	0.038139
43.17 	0.038047 	4179 	0.037767
43.19 	0.040296 	4194 	0.039597
43.21 	0.037872 	4172 	0.037310
43.23 	0.035147 	4154 	0.035147
43.25 	0.038936 	4135 	0.038511
43.27 	0.043849 	4105 	0.043135
43.29 	0.035366 	4100 	0.035223
43.31 	0.035303 	4079 	0.034872
43.33 	0.034313 	4051 	0.033879
43.35 	0.038690 	4032 	0.038545
43.37 	0.041345 	4015 	0.041199
43.39 	0.036982 	4002 	0.036835
43.41 	0.040030 	3972 	0.039121
43.43 	0.036616 	3960 	0.036172
43.45 	0.037865 	3935 	0.037716
43.47 	0.041061 	3921 	0.040912
43.49 	0.035155 	3897 	0.034554
43.51 	0.038432 	3877 	0.038130
43.53 	0.037794 	3863 	0.036885
43.55 	0.041498 	2964 	0.040510
43.57 	0.037087 	2238 	0.036825
43.59 	0.032646 	1746 	0.032311
43.61 	0.041451 	1351 	0.041017
43.63 	0.029970 	1001 	0.029970
43.65 	0.026201 	687 	0.025348
43.67 	0.041833 	502 	0.041833
43.69 	0.049046 	367 	0.047450
43.71 	0.037657 	239 	0.037657
43.73 	0.025000 	120 	0.025000
43.75 	0.125000 	16 	0.125000