File: Example_Data/25SC_s1_0048.003.dat
#F C:\frames\spec\25SC_s1_0048.003
#C title =s:48 frm:3 25SC_s1
#C wavelength =0.15406

#S 1  fr_average C:\frames\spec\25SC_s1_0048.003 C:\win32app\speccom\mask.axs chi 0 180 0 360 0.02
#C 2 theta =0.000000 to 180 deg
#C   q   =0.000000 to 81.568 nm^-1
#C  chi  =0.000000 to 360 deg
#C collumns:
#C  1 position (2theta or chi in degrees)
#C  2 average intensity (sum of all counts in the region divided with number of pixels)
#C  3 Number of pixels in region)
#C  4 error (sum of sqrt(intensity) for all pixels divided by number)
#N 4
#L TTh  Int  N_pix  Err
32.99 	0.032787 	61 	0.032787
33.01 	0.073310 	873 	0.071187
33.03 	0.060388 	1391 	0.059546
33.05 	0.057484 	1757 	0.056818
33.07 	0.069268 	2050 	0.068411
33.09 	0.067746 	2347 	0.066748
33.11 	0.058550 	2579 	0.057414
33.13 	0.064447 	2793 	0.064027
33.15 	0.056686 	2999 	0.056490
33.17 	0.047173 	3201 	0.046990
33.19 	0.056553 	3342 	0.055677
33.21 	0.064901 	3436 	0.063708
33.23 	0.055634 	3523 	0.054803
33.25 	0.055371 	3612 	0.054236
33.27 	0.063912 	3630 	0.063105
33.29 	0.058662 	3648 	0.057191
33.31 	0.060109 	3660 	0.059629
33.33 	0.057786 	3686 	0.056489
33.35 	0.053600 	3694 	0.051989
33.37 	0.054120 	3714 	0.052832
33.39 	0.054170 	3729 	0.053385
33.41 	0.060160 	3740 	0.059221
33.43 	0.059293 	3761 	0.058358
33.45 	0.064670 	3773 	0.062807
33.47 	0.062928 	3798 	0.061231
33.49 	0.061171 	3809 	0.060710
33.51 	0.054784 	3815 	0.053709
33.53 	0.065608 	3841 	0.064235
33.55 	0.059329 	3843 	0.058414
33.57 	0.062161 	3877 	0.061406
33.59 	0.058505 	3880 	0.057297
33.61 	0.058583 	3909 	0.057084
33.63 	0.061240 	3919 	0.060792
33.65 	0.053930 	3931 	0.053334
33.67 	0.056399 	3954 	0.055658
33.69 	0.067291 	3953 	0.065809
33.71 	0.058365 	3975 	0.057038
33.73 	0.056444 	4004 	0.055858
33.75 	0.051013 	3999 	0.050280
33.77 	0.053416 	4025 	0.052543
33.79 	0.063351 	4041 	0.062626
33.81 	0.069341 	4038 	0.068181
33.83 	0.056543 	4050 	0.055675
33.85 	0.059039 	4099 	0.058015
33.87 	0.059596 	4111 	0.058124
33.89 	0.066003 	4121 	0.064724
33.91 	0.067245 	4149 	0.064234
33.93 	0.058781 	4151 	0.057793
33.95 	0.056924 	4181 	0.056060
33.97 	0.059905 	4190 	0.058926
33.99 	0.058333 	4200 	0.056939
34.01 	0.064562 	4213 	0.063288
34.03 	0.055608 	4244 	0.055194
34.05 	0.058796 	4252 	0.057694
34.07 	0.058575 	4268 	0.057752
34.09 	0.055296 	4286 	0.054203
34.11 	0.061832 	4302 	0.060742
34.13 	0.058960 	4308 	0.058280
34.15 	0.059109 	4331 	0.057621
34.17 	0.060920 	4350 	0.059955
34.19 	0.062357 	4362 	0.060745
34.21 	0.058568 	4371 	0.057340
34.23 	0.063965 	4393 	0.063299
34.25 	0.052906 	4404 	0.052507
34.27 	0.064903 	4422 	0.062761
34.29 	0.063811 	4435 	0.063282
34.31 	0.055855 	4458 	0.055066
34.33 	0.056140 	4471 	0.055353
34.35 	0.055754 	4484 	0.054557
34.37 	0.061011 	4491 	0.059946
34.39 	0.052643 	4502 	0.051863
34.41 	0.056783 	4526 	0.056265
34.43 	0.059264 	4539 	0.058490
34.45 	0.057552 	4535 	0.055873
34.47 	0.058145 	4592 	0.056827
34.49 	0.061997 	4597 	0.061487
34.51 	0.059922 	4606 	0.058629
34.53 	0.056214 	4643 	0.055204
34.55 	0.055137 	4643 	0.054632
34.57 	0.054936 	4660 	0.054684
34.59 	0.055615 	4675 	0.054237
34.61 	0.058548 	4697 	0.057426
34.63 	0.060510 	4710 	0.059390
34.65 	0.058462 	4721 	0.057345
34.67 	0.054630 	4741 	0.054136
34.69 	0.058477 	4754 	0.057861
34.71 	0.062316 	4766 	0.061702
34.73 	0.061625 	4787 	0.060769
34.75 	0.060732 	4808 	0.060367
34.77 	0.056455 	4818 	0.055361
34.79 	0.063433 	4824 	0.062219
34.81 	0.063364 	4845 	0.062155
34.83 	0.053270 	4862 	0.052427
34.85 	0.057096 	4869 	0.055993
34.87 	0.054232 	4868 	0.053149
34.89 	0.057968 	4882 	0.057248
34.91 	0.061860 	4882 	0.060760
34.93 	0.056950 	4899 	0.056113
34.95 	0.058282 	4890 	0.056485
34.97 	0.054672 	4902 	0.054194
34.99 	0.063508 	4897 	0.062910
35.01 	0.059313 	4923 	0.057985
35.03 	0.056848 	4943 	0.056374
35.05 	0.062058 	4947 	0.060854
35.07 	0.053644 	4940 	0.052695
35.09 	0.056733 	4953 	0.056024
35.11 	0.057813 	4947 	0.057339
35.13 	0.057886 	4958 	0.056705
35.15 	0.060766 	4937 	0.059935
35.17 	0.049131 	4946 	0.048302
35.19 	0.055443 	4942 	0.054495
35.21 	0.064105 	4945 	0.062921
35.23 	0.054196 	4945 	0.053111
35.25 	0.057455 	4943 	0.055539
35.27 	0.066896 	4948 	0.065692
35.29 	0.062487 	4945 	0.061658
35.31 	0.060815 	4933 	0.059370
35.33 	0.052195 	4943 	0.051721
35.35 	0.061109 	4942 	0.059805
35.37 	0.060539 	4939 	0.059590
35.39 	0.057230 	4945 	0.056499
35.41 	0.056638 	4926 	0.055548
35.43 	0.060004 	4933 	0.058698
35.45 	0.058132 	4937 	0.057302
35.47 	0.059217 	4931 	0.058504
35.49 	0.063340 	4910 	0.062624
35.51 	0.064149 	4926 	0.063317
35.53 	0.056577 	4949 	0.055374
35.55 	0.062083 	4945 	0.061017
35.57 	0.055544 	4933 	0.054594
35.59 	0.058645 	4945 	0.057579
35.61 	0.054634 	4942 	0.053685
35.63 	0.054623 	4943 	0.053319
35.65 	0.058847 	4945 	0.057762
35.67 	0.060907 	4942 	0.060077
35.69 	0.055398 	4946 	0.054787
35.71 	0.058335 	4937 	0.057030
35.73 	0.057942 	4936 	0.057111
35.75 	0.063070 	4931 	0.062001
35.77 	0.058372 	4951 	0.056952
35.79 	0.060219 	4932 	0.059487
35.81 	0.060004 	4933 	0.059173
35.83 	0.053174 	4946 	0.052582
35.85 	0.059777 	4935 	0.059302
35.87 	0.059517 	4923 	0.058922
35.89 	0.056749 	4934 	0.055918
35.91 	0.061092 	4927 	0.060141
35.93 	0.059874 	4927 	0.058566
35.95 	0.052471 	4917 	0.050565
35.97 	0.059243 	4912 	0.057692
35.99 	0.065600 	4939 	0.064414
36.01 	0.054767 	4930 	0.053103
36.03 	0.054420 	4943 	0.053690
36.05 	0.055207 	4945 	0.054970
36.07 	0.060741 	4939 	0.059436
36.09 	0.065789 	4940 	0.064821
36.11 	0.054778 	4929 	0.053946
36.13 	0.060299 	4942 	0.059588
36.15 	0.056084 	4939 	0.054898
36.17 	0.057462 	4925 	0.056253
36.19 	0.056073 	4940 	0.055124
36.21 	0.052952 	4929 	0.052120
36.23 	0.058359 	4935 	0.057646
36.25 	0.055657 	4941 	0.054945
36.27 	0.056650 	4925 	0.056531
36.29 	0.066112 	4931 	0.065281
36.31 	0.054383 	4928 	0.053670
36.33 	0.058180 	4933 	0.057111
36.35 	0.054372 	4929 	0.053540
36.37 	0.057688 	4923 	0.056142
36.39 	0.054054 	4921 	0.053221
36.41 	0.052696 	4896 	0.052098
36.43 	0.059862 	4928 	0.059010
36.45 	0.055375 	4930 	0.054544
36.47 	0.055916 	4936 	0.055085
36.49 	0.058883 	4942 	0.058172
36.51 	0.055950 	4933 	0.054643
36.53 	0.058062 	4943 	0.057706
36.55 	0.058656 	4927 	0.057705
36.57 	0.056344 	4934 	0.055750
36.59 	0.050010 	4939 	0.049417
36.61 	0.057392 	4931 	0.056560
36.63 	0.051308 	4931 	0.050476
36.65 	0.056569 	4932 	0.055857
36.67 	0.055172 	4930 	0.054578
36.69 	0.060459 	4929 	0.058676
36.71 	0.054257 	4921 	0.053305
36.73 	0.055635 	4925 	0.054683
36.75 	0.060275 	4944 	0.059564
36.77 	0.062614 	4919 	0.060947
36.79 	0.056696 	4921 	0.055624
36.81 	0.049837 	4916 	0.049599
36.83 	0.057172 	4915 	0.056080
36.85 	0.050837 	4898 	0.050239
36.87 	0.059061 	4944 	0.057739
36.89 	0.056347 	4916 	0.055274
36.91 	0.057478 	4941 	0.056411
36.93 	0.056389 	4930 	0.055082
36.95 	0.056152 	4933 	0.055321
36.97 	0.046818 	4934 	0.045868
36.99 	0.056940 	4935 	0.055872
37.01 	0.058788 	4933 	0.058056
37.03 	0.057474 	4924 	0.056641
37.05 	0.057642 	4927 	0.056809
37.07 	0.050456 	4935 	0.050100
37.09 	0.052760 	4928 	0.052165
37.11 	0.048024 	4935 	0.047193
37.13 	0.055646 	4924 	0.055170
37.15 	0.049705 	4909 	0.048989
37.17 	0.059992 	4934 	0.058429
37.19 	0.052386 	4925 	0.051910
37.21 	0.051454 	4917 	0.051216
37.23 	0.053884 	4918 	0.052454
37.25 	0.054775 	4911 	0.053563
37.27 	0.051900 	4894 	0.051302
37.29 	0.055578 	4930 	0.054509
37.31 	0.050456 	4935 	0.049506
37.33 	0.050741 	4927 	0.049909
37.35 	0.051033 	4938 	0.049965
37.37 	0.050741 	4927 	0.049909
37.39 	0.049686 	4931 	0.049210
37.41 	0.051714 	4931 	0.050506
37.43 	0.055150 	4932 	0.054081
37.45 	0.049756 	4924 	0.049161
37.47 	0.053763 	4929 	0.052694
37.49 	0.055251 	4923 	0.054299
37.51 	0.048652 	4933 	0.048058
37.53 	0.050417 	4919 	0.049187
37.55 	0.053550 	4930 	0.052837
37.57 	0.051980 	4925 	0.051147
37.59 	0.055544 	4915 	0.054233
37.61 	0.052418 	4922 	0.051942
37.63 	0.048994 	4919 	0.048517
37.65 	0.049004 	4918 	0.048031
37.67 	0.047716 	4904 	0.047119
37.69 	0.063904 	4898 	0.062947
37.71 	0.050720 	4929 	0.050245
37.73 	0.053358 	4929 	0.052526
37.75 	0.051012 	4940 	0.050538
37.77 	0.059959 	4920 	0.059007
37.79 	0.056795 	4930 	0.055706
37.81 	0.047436 	4933 	0.046486
37.83 	0.057724 	4920 	0.056771
37.85 	0.054246 	4922 	0.052937
37.87 	0.051630 	4939 	0.050800
37.89 	0.050355 	4925 	0.049285
37.91 	0.044625 	4930 	0.043793
37.93 	0.052043 	4919 	0.051209
37.95 	0.058118 	4921 	0.056690
37.97 	0.049909 	4929 	0.049077
37.99 	0.049674 	4912 	0.048601
38.01 	0.050122 	4928 	0.049527
38.03 	0.054797 	4909 	0.053127
38.05 	0.057259 	4925 	0.056307
38.07 	0.051131 	4909 	0.050057
38.09 	0.048380 	4878 	0.048020
38.11 	0.053293 	4935 	0.051968
38.13 	0.056512 	4937 	0.056018
38.15 	0.050630 	4918 	0.050035
38.17 	0.056795 	4930 	0.056082
38.19 	0.059432 	4930 	0.057887
38.21 	0.054235 	4923 	0.053164
38.23 	0.061361 	4938 	0.061005
38.25 	0.051047 	4917 	0.050690
38.27 	0.053550 	4930 	0.052718
38.29 	0.056864 	4924 	0.055913
38.31 	0.055003 	4927 	0.053339
38.33 	0.060114 	4924 	0.058924
38.35 	0.057021 	4928 	0.055951
38.37 	0.060723 	4924 	0.060009
38.39 	0.060705 	4909 	0.059154
38.41 	0.058704 	4923 	0.057514
38.43 	0.064076 	4916 	0.062984
38.45 	0.057747 	4918 	0.056556
38.47 	0.061952 	4907 	0.060878
38.49 	0.060283 	4877 	0.059202
38.51 	0.063666 	4932 	0.062597
38.53 	0.060459 	4929 	0.059864
38.55 	0.060575 	4936 	0.059132
38.57 	0.061142 	4923 	0.059833
38.59 	0.061738 	4924 	0.061144
38.61 	0.060373 	4936 	0.059661
38.63 	0.055646 	4924 	0.054813
38.65 	0.057950 	4918 	0.056978
38.67 	0.058943 	4937 	0.057756
38.69 	0.056075 	4922 	0.054171
38.71 	0.057474 	4924 	0.056046
38.73 	0.056730 	4918 	0.056135
38.75 	0.054800 	4927 	0.053492
38.77 	0.056267 	4923 	0.055434
38.79 	0.057357 	4934 	0.056170
38.81 	0.054764 	4912 	0.053571
38.83 	0.053263 	4919 	0.052072
38.85 	0.051303 	4912 	0.050349
38.87 	0.058033 	4911 	0.056840
38.89 	0.048805 	4897 	0.047829
38.91 	0.050785 	4903 	0.049829
38.93 	0.048603 	4938 	0.048247
38.95 	0.049004 	4918 	0.048408
38.97 	0.049686 	4931 	0.049210
38.99 	0.051043 	4937 	0.050331
39.01 	0.046157 	4918 	0.045323
39.03 	0.045602 	4934 	0.045364
39.05 	0.049543 	4925 	0.048829
39.07 	0.048944 	4924 	0.048468
39.09 	0.049157 	4923 	0.047967
39.11 	0.051308 	4931 	0.050001
39.13 	0.043469 	4923 	0.042874
39.15 	0.047202 	4915 	0.046229
39.17 	0.042333 	4937 	0.041977
39.19 	0.047793 	4917 	0.047198
39.21 	0.048065 	4910 	0.046852
39.23 	0.049137 	4925 	0.048067
39.25 	0.045916 	4922 	0.045321
39.27 	0.055193 	4910 	0.054120
39.29 	0.051622 	4901 	0.050785
39.31 	0.047297 	4884 	0.046818
39.33 	0.047049 	4931 	0.046099
39.35 	0.056332 	4935 	0.055858
39.37 	0.052546 	4929 	0.051595
39.39 	0.045851 	4929 	0.045019
39.41 	0.049888 	4931 	0.049176
39.43 	0.048247 	4933 	0.047890
39.45 	0.046701 	4925 	0.046225
39.47 	0.045298 	4923 	0.044445
39.49 	0.045611 	4933 	0.045136
39.51 	0.045695 	4924 	0.045100
39.53 	0.050376 	4923 	0.049424
39.55 	0.045538 	4919 	0.044466
39.57 	0.050882 	4933 	0.050407
39.59 	0.049471 	4912 	0.048994
39.61 	0.048345 	4923 	0.047750
39.63 	0.049777 	4922 	0.048467
39.65 	0.046691 	4926 	0.046096
39.67 	0.047832 	4913 	0.047117
39.69 	0.049024 	4916 	0.048428
39.71 	0.045557 	4895 	0.045198
39.73 	0.053382 	4908 	0.052408
39.75 	0.045455 	4928 	0.044741
39.77 	0.051064 	4935 	0.050352
39.79 	0.049736 	4926 	0.049023
39.81 	0.049320 	4927 	0.048726
39.83 	0.048845 	4934 	0.047895
39.85 	0.049523 	4927 	0.048453
39.87 	0.052589 	4925 	0.051994
39.89 	0.043981 	4934 	0.043506
39.91 	0.052011 	4922 	0.050802
39.93 	0.050841 	4937 	0.049773
39.95 	0.045575 	4915 	0.044621
39.97 	0.046875 	4928 	0.045667
39.99 	0.047040 	4932 	0.046327
40.01 	0.049817 	4918 	0.048606
40.03 	0.051136 	4928 	0.050423
40.05 	0.045760 	4917 	0.045283
40.07 	0.052001 	4923 	0.051406
40.09 	0.046786 	4916 	0.046190
40.11 	0.048007 	4916 	0.047292
40.13 	0.044118 	4896 	0.043639
40.15 	0.043151 	4913 	0.042197
40.17 	0.045455 	4928 	0.044860
40.19 	0.046054 	4929 	0.045222
40.21 	0.046403 	4935 	0.046047
40.23 	0.046837 	4932 	0.046362
40.25 	0.045732 	4920 	0.045255
40.27 	0.050030 	4937 	0.049556
40.29 	0.046073 	4927 	0.045359
40.31 	0.043936 	4939 	0.043106
40.33 	0.047851 	4932 	0.046901
40.35 	0.051637 	4919 	0.050684
40.37 	0.048894 	4929 	0.048300
40.39 	0.048672 	4931 	0.048078
40.41 	0.043655 	4925 	0.043417
40.43 	0.043681 	4922 	0.042472
40.45 	0.049260 	4933 	0.048666
40.47 	0.046360 	4918 	0.046003
40.49 	0.042428 	4926 	0.041477
40.51 	0.046932 	4922 	0.046456
40.53 	0.044752 	4916 	0.044156
40.55 	0.044417 	4908 	0.044179
40.57 	0.046012 	4890 	0.045294
40.59 	0.040510 	4937 	0.039542
40.61 	0.044782 	4935 	0.044070
40.63 	0.039148 	4930 	0.038673
40.65 	0.043346 	4937 	0.042516
40.67 	0.043998 	4932 	0.042791
40.69 	0.040916 	4937 	0.040560
40.71 	0.042579 	4932 	0.042342
40.73 	0.045473 	4926 	0.044878
40.75 	0.050700 	4931 	0.049730
40.77 	0.048188 	4939 	0.047832
40.79 	0.044476 	4924 	0.043643
40.81 	0.043109 	4941 	0.042279
40.83 	0.047687 	4928 	0.046973
40.85 	0.049756 	4924 	0.049161
40.87 	0.046266 	4928 	0.045791
40.89 	0.045630 	4931 	0.045392
40.91 	0.046719 	4923 	0.045768
40.93 	0.050061 	4934 	0.049467
40.95 	0.049257 	4913 	0.048303
40.97 	0.046101 	4924 	0.045625
40.99 	0.041024 	4924 	0.040548
41.01 	0.049064 	4912 	0.048467
41.03 	0.046483 	4905 	0.045647
41.05 	0.047002 	4936 	0.046527
41.07 	0.044219 	4930 	0.043506
41.09 	0.047378 	4939 	0.046311
41.11 	0.044782 	4935 	0.044189
41.13 	0.044165 	4936 	0.043453
41.15 	0.044121 	4941 	0.043646
41.17 	0.047629 	4934 	0.047273
41.19 	0.045639 	4930 	0.045520
41.21 	0.039700 	4937 	0.039344
41.23 	0.044138 	4939 	0.043190
41.25 	0.045611 	4933 	0.044523
41.27 	0.050497 	4931 	0.049171
41.29 	0.043019 	4928 	0.042187
41.31 	0.043787 	4933 	0.043292
41.33 	0.039700 	4937 	0.039226
41.35 	0.041920 	4938 	0.041801
41.37 	0.042648 	4924 	0.041815
41.39 	0.043787 	4933 	0.042956
41.41 	0.048924 	4926 	0.047973
41.43 	0.044431 	4929 	0.043599
41.45 	0.045177 	4914 	0.044462
41.47 	0.046082 	4926 	0.044893
41.49 	0.046811 	4892 	0.045733
41.51 	0.046761 	4940 	0.045931
41.53 	0.042476 	4944 	0.042120
41.55 	0.040122 	4935 	0.039291
41.57 	0.044323 	4941 	0.043612
41.59 	0.046422 	4933 	0.046185
41.61 	0.042802 	4953 	0.041837
41.63 	0.041717 	4938 	0.041361
41.65 	0.046054 	4929 	0.045203
41.67 	0.043725 	4940 	0.042895
41.69 	0.043461 	4947 	0.042750
41.71 	0.049250 	4934 	0.048419
41.73 	0.041329 	4936 	0.040973
41.75 	0.041388 	4929 	0.041269
41.77 	0.041490 	4941 	0.041134
41.79 	0.043892 	4944 	0.043181
41.81 	0.048825 	4936 	0.047876
41.83 	0.045252 	4928 	0.045014
41.85 	0.040089 	4939 	0.039496
41.87 	0.041135 	4935 	0.039948
41.89 	0.044598 	4933 	0.043885
41.91 	0.040924 	4936 	0.040430
41.93 	0.045012 	4932 	0.044537
41.95 	0.042385 	4931 	0.041553
41.97 	0.044160 	4914 	0.043802
41.99 	0.038328 	4905 	0.038209
42.01 	0.041076 	4942 	0.040484
42.03 	0.039482 	4939 	0.039007
42.05 	0.039984 	4952 	0.039629
42.07 	0.043549 	4937 	0.042599
42.09 	0.039612 	4948 	0.038882
42.11 	0.046107 	4945 	0.045396
42.13 	0.042872 	4945 	0.042279
42.15 	0.046780 	4938 	0.046424
42.17 	0.041277 	4918 	0.040920
42.19 	0.042380 	4908 	0.041902
42.21 	0.046113 	4901 	0.045754
42.23 	0.038021 	4892 	0.037423
42.25 	0.041522 	4889 	0.041043
42.27 	0.039803 	4874 	0.039322
42.29 	0.042566 	4863 	0.042205
42.31 	0.045314 	4855 	0.044831
42.33 	0.041167 	4834 	0.040561
42.35 	0.041753 	4838 	0.041632
42.37 	0.039752 	4830 	0.039509
42.39 	0.043089 	4804 	0.042845
42.41 	0.042256 	4804 	0.041525
42.43 	0.048623 	4792 	0.048134
42.45 	0.044389 	4776 	0.044021
42.47 	0.039664 	4765 	0.038927
42.49 	0.039035 	4765 	0.038297
42.51 	0.042378 	4743 	0.041350
42.53 	0.041878 	4728 	0.040887
42.55 	0.043543 	4708 	0.043045
42.57 	0.041649 	4730 	0.040658
42.59 	0.045041 	4729 	0.044298
42.61 	0.040144 	4708 	0.039398
42.63 	0.037800 	4709 	0.037551
42.65 	0.046318 	4685 	0.045443
42.67 	0.040137 	4684 	0.040012
42.69 	0.044501 	4674 	0.043624
42.71 	0.042891 	4663 	0.042388
42.73 	0.040302 	4640 	0.039670
42.75 	0.043968 	4617 	0.043587
42.77 	0.041087 	4600 	0.040832
42.79 	0.040812 	4582 	0.040812
42.81 	0.045375 	4562 	0.044861
42.83 	0.039903 	4536 	0.039516
42.85 	0.042403 	4528 	0.042273
42.87 	0.044232 	4499 	0.043841
42.89 	0.042411 	4480 	0.041888
42.91 	0.042415 	4456 	0.042152
42.93 	0.042285 	4446 	0.041495
42.95 	0.040082 	4416 	0.039551
42.97 	0.041809 	4401 	0.041276
42.99 	0.038312 	4385 	0.037778
43.01 	0.043777 	4363 	0.043106
43.03 	0.043157 	4333 	0.043157
43.05 	0.040462 	4325 	0.040327
43.07 	0.042365 	4296 	0.041683
43.09 	0.043428 	4283 	0.042744
43.11 	0.045123 	4255 	0.044573
43.13 	0.035402 	4237 	0.034988
43.15 	0.036852 	4206 	0.036713
43.17 	0.045465 	4179 	0.044624
43.19 	0.044588 	4194 	0.043610
43.21 	0.044583 	4172 	0.044162
43.23 	0.041887 	4154 	0.041041
43.25 	0.045707 	4135 	0.045424
43.27 	0.039951 	4105 	0.039380
43.29 	0.040976 	4100 	0.040690
43.31 	0.038980 	4079 	0.038980
43.33 	0.038509 	4051 	0.037497
43.35 	0.041915 	4032 	0.041188
43.37 	0.043088 	4015 	0.042189
43.39 	0.035482 	4002 	0.034750
43.41 	0.041541 	3972 	0.040951
43.43 	0.043687 	3960 	0.043243
43.45 	0.037357 	3935 	0.037208
43.47 	0.034175 	3921 	0.033727
43.49 	0.047472 	3897 	0.046721
43.51 	0.041785 	3877 	0.041005
43.53 	0.039089 	3863 	0.038937
43.55 	0.045547 	2964 	0.045547
43.57 	0.042002 	2238 	0.041478
43.59 	0.045246 	1746 	0.043904
43.61 	0.042191 	1351 	0.041757
43.63 	0.033966 	1001 	0.033966
43.65 	0.036390 	687 	0.036390
43.67 	0.043825 	502 	0.043825
43.69 	0.032698 	367 	0.032698
43.71 	0.041841 	239 	0.041841
43.73 	0.058333 	120 	0.058333
43.75 	0.000000 	16 	0.000000