File: Example_Data/25SC_s1_0020.000.dat
#F C:\frames\spec\25SC_s1_0020.000
#C title =s:20 frm:0 25SC_s1
#C wavelength =0.15406

#S 1  fr_average C:\frames\spec\25SC_s1_0020.000 C:\win32app\speccom\mask.axs chi 0 180 0 360 0.02
#C 2 theta =0.000000 to 180 deg
#C   q   =0.000000 to 81.568 nm^-1
#C  chi  =0.000000 to 360 deg
#C collumns:
#C  1 position (2theta or chi in degrees)
#C  2 average intensity (sum of all counts in the region divided with number of pixels)
#C  3 Number of pixels in region)
#C  4 error (sum of sqrt(intensity) for all pixels divided by number)
#N 4
#L TTh  Int  N_pix  Err
32.99 	0.049180 	61 	0.049180
33.01 	0.058419 	873 	0.057748
33.03 	0.059669 	1391 	0.058406
33.05 	0.069437 	1757 	0.067436
33.07 	0.067805 	2050 	0.066376
33.09 	0.059225 	2347 	0.058725
33.11 	0.063203 	2579 	0.061613
33.13 	0.059076 	2793 	0.057189
33.15 	0.062021 	2999 	0.061239
33.17 	0.066542 	3201 	0.065078
33.19 	0.055655 	3342 	0.054604
33.21 	0.060244 	3436 	0.059904
33.23 	0.057054 	3523 	0.056222
33.25 	0.072536 	3612 	0.071401
33.27 	0.053719 	3630 	0.053235
33.29 	0.061404 	3648 	0.059958
33.31 	0.068033 	3660 	0.067233
33.33 	0.062398 	3686 	0.061127
33.35 	0.056308 	3694 	0.055673
33.37 	0.068121 	3714 	0.066543
33.39 	0.059265 	3729 	0.058166
33.41 	0.058021 	3740 	0.056455
33.43 	0.065940 	3761 	0.065005
33.45 	0.061490 	3773 	0.060558
33.47 	0.060558 	3798 	0.059941
33.49 	0.066422 	3809 	0.065345
33.51 	0.059764 	3815 	0.058843
33.53 	0.062223 	3841 	0.061613
33.55 	0.061410 	3843 	0.060013
33.57 	0.060098 	3877 	0.058562
33.59 	0.057990 	3880 	0.057386
33.61 	0.064211 	3909 	0.062862
33.63 	0.063537 	3919 	0.061593
33.65 	0.057746 	3931 	0.056703
33.67 	0.059939 	3954 	0.058754
33.69 	0.058184 	3953 	0.056974
33.71 	0.063648 	3975 	0.062911
33.73 	0.053197 	4004 	0.052612
33.75 	0.056014 	3999 	0.054989
33.77 	0.058385 	4025 	0.056930
33.79 	0.061123 	4041 	0.060254
33.81 	0.063398 	4038 	0.062092
33.83 	0.060247 	4050 	0.058945
33.85 	0.068309 	4099 	0.067023
33.87 	0.058623 	4111 	0.056747
33.89 	0.059694 	4121 	0.058557
33.91 	0.058086 	4149 	0.056674
33.93 	0.055167 	4151 	0.054744
33.95 	0.060273 	4181 	0.059712
33.97 	0.061814 	4190 	0.060556
33.99 	0.063810 	4200 	0.062275
34.01 	0.057204 	4213 	0.056231
34.03 	0.055844 	4244 	0.055429
34.05 	0.067027 	4252 	0.065787
34.07 	0.060684 	4268 	0.059723
34.09 	0.056696 	4286 	0.055740
34.11 	0.060205 	4302 	0.059796
34.13 	0.058264 	4308 	0.057448
34.15 	0.056569 	4331 	0.056028
34.17 	0.055862 	4350 	0.054359
34.19 	0.061440 	4362 	0.060365
34.21 	0.056966 	4371 	0.056140
34.23 	0.058275 	4393 	0.057474
34.25 	0.061308 	4404 	0.060244
34.27 	0.056762 	4422 	0.055702
34.29 	0.056144 	4435 	0.054956
34.31 	0.056079 	4458 	0.055553
34.33 	0.055469 	4471 	0.054813
34.35 	0.057761 	4484 	0.056324
34.37 	0.060566 	4491 	0.059522
34.39 	0.057974 	4502 	0.057454
34.41 	0.058109 	4526 	0.057440
34.43 	0.055519 	4539 	0.053949
34.45 	0.052922 	4535 	0.051630
34.47 	0.058362 	4592 	0.057469
34.49 	0.054383 	4597 	0.054001
34.51 	0.052540 	4606 	0.051650
34.53 	0.060521 	4643 	0.060017
34.55 	0.052768 	4643 	0.052137
34.57 	0.059871 	4660 	0.058740
34.59 	0.053690 	4675 	0.052437
34.61 	0.056632 	4697 	0.056008
34.63 	0.056476 	4710 	0.055978
34.65 	0.059521 	4721 	0.058653
34.67 	0.058848 	4741 	0.057983
34.69 	0.060160 	4754 	0.059031
34.71 	0.057700 	4766 	0.057086
34.73 	0.059536 	4787 	0.058272
34.75 	0.053661 	4808 	0.053173
34.77 	0.058946 	4818 	0.058216
34.79 	0.058872 	4824 	0.057901
34.81 	0.060681 	4845 	0.059593
34.83 	0.059852 	4862 	0.058888
34.85 	0.058739 	4869 	0.057776
34.87 	0.056491 	4868 	0.055529
34.89 	0.055510 	4882 	0.054430
34.91 	0.060016 	4882 	0.059296
34.93 	0.057155 	4899 	0.056437
34.95 	0.060327 	4890 	0.059489
34.97 	0.057324 	4902 	0.056129
34.99 	0.052277 	4897 	0.051798
35.01 	0.051188 	4923 	0.050831
35.03 	0.054623 	4943 	0.054149
35.05 	0.054376 	4947 	0.053311
35.07 	0.053846 	4940 	0.053372
35.09 	0.053907 	4953 	0.052961
35.11 	0.057004 	4947 	0.056057
35.13 	0.054457 	4958 	0.053375
35.15 	0.055904 	4937 	0.055054
35.17 	0.053983 	4946 	0.053509
35.19 	0.059490 	4942 	0.058305
35.21 	0.056218 	4945 	0.055034
35.23 	0.061274 	4945 	0.060208
35.25 	0.056039 	4943 	0.054617
35.27 	0.056993 	4948 	0.056519
35.29 	0.052578 	4945 	0.052105
35.31 	0.058180 	4933 	0.056992
35.33 	0.057050 	4943 	0.056458
35.35 	0.056455 	4942 	0.056099
35.37 	0.061956 	4939 	0.059821
35.39 	0.055814 	4945 	0.054866
35.41 	0.056029 	4926 	0.055078
35.43 	0.054936 	4933 	0.054224
35.45 	0.059550 	4937 	0.058582
35.47 	0.063070 	4931 	0.062001
35.49 	0.054990 	4910 	0.054155
35.51 	0.056232 	4926 	0.055142
35.53 	0.059608 	4949 	0.058543
35.55 	0.062487 	4945 	0.061066
35.57 	0.054531 	4933 	0.053343
35.59 	0.052376 	4945 	0.051310
35.61 	0.060907 	4942 	0.060195
35.63 	0.055634 	4943 	0.055160
35.65 	0.053387 	4945 	0.052795
35.67 	0.057669 	4942 	0.056484
35.69 	0.056611 	4946 	0.055545
35.71 	0.063804 	4937 	0.062736
35.73 	0.052877 	4936 	0.052402
35.75 	0.057392 	4931 	0.056323
35.77 	0.058776 	4951 	0.057692
35.79 	0.053933 	4932 	0.052865
35.81 	0.064667 	4933 	0.063717
35.83 	0.058229 	4946 	0.057400
35.85 	0.059169 	4935 	0.058319
35.87 	0.062157 	4923 	0.060967
35.89 	0.054114 	4934 	0.052571
35.91 	0.066978 	4927 	0.065175
35.93 	0.059265 	4927 	0.058076
35.95 	0.055522 	4917 	0.054926
35.97 	0.064739 	4912 	0.063428
35.99 	0.057704 	4939 	0.056261
36.01 	0.063692 	4930 	0.062622
36.03 	0.053611 	4943 	0.053137
36.05 	0.058847 	4945 	0.058255
36.07 	0.065398 	4939 	0.064449
36.09 	0.062551 	4940 	0.061958
36.11 	0.054169 	4929 	0.053218
36.13 	0.059288 	4942 	0.058083
36.15 	0.053857 	4939 	0.052414
36.17 	0.056853 	4925 	0.055544
36.19 	0.058300 	4940 	0.057707
36.21 	0.056807 	4929 	0.055856
36.23 	0.057143 	4935 	0.056055
36.25 	0.059300 	4941 	0.057759
36.27 	0.059898 	4925 	0.059046
36.29 	0.058406 	4931 	0.057456
36.31 	0.066964 	4928 	0.066013
36.33 	0.057774 	4933 	0.056349
36.35 	0.057618 	4929 	0.056905
36.37 	0.062360 	4923 	0.061527
36.39 	0.057915 	4921 	0.056467
36.41 	0.059436 	4896 	0.058359
36.43 	0.059253 	4928 	0.057589
36.45 	0.057809 	4930 	0.056502
36.47 	0.057536 	4936 	0.056468
36.49 	0.055443 	4942 	0.054495
36.51 	0.055950 	4933 	0.054881
36.53 	0.063322 	4943 	0.062018
36.55 	0.058250 	4927 	0.057775
36.57 	0.060195 	4934 	0.059245
36.59 	0.060741 	4939 	0.060029
36.61 	0.058203 	4931 	0.057847
36.63 	0.064693 	4931 	0.063624
36.65 	0.057178 	4932 	0.055634
36.67 	0.057809 	4930 	0.056483
36.69 	0.053155 	4929 	0.052679
36.71 	0.059744 	4921 	0.058077
36.73 	0.064569 	4925 	0.063498
36.75 	0.056028 	4944 	0.055080
36.77 	0.056922 	4919 	0.056089
36.79 	0.058321 	4921 	0.057112
36.81 	0.061229 	4916 	0.059918
36.83 	0.059207 	4915 	0.058491
36.85 	0.053491 	4898 	0.053013
36.87 	0.063309 	4944 	0.062124
36.89 	0.060212 	4916 	0.059497
36.91 	0.066586 	4941 	0.065637
36.93 	0.058012 	4930 	0.057418
36.95 	0.054733 	4933 	0.053902
36.97 	0.058979 	4934 	0.057772
36.99 	0.062614 	4935 	0.061546
37.01 	0.060207 	4933 	0.059732
37.03 	0.063972 	4924 	0.062664
37.05 	0.056627 	4927 	0.055319
37.07 	0.059169 	4935 	0.058338
37.09 	0.055398 	4928 	0.054209
37.11 	0.051874 	4935 	0.051518
37.13 	0.060114 	4924 	0.058686
37.15 	0.062946 	4909 	0.061514
37.17 	0.056344 	4934 	0.055513
37.19 	0.052386 	4925 	0.051434
37.21 	0.054505 	4917 	0.053671
37.23 	0.058560 	4918 	0.057469
37.25 	0.058644 	4911 	0.057690
37.27 	0.056600 	4894 	0.056001
37.29 	0.058621 	4930 	0.057551
37.31 	0.053901 	4935 	0.053288
37.33 	0.055612 	4927 	0.055017
37.35 	0.056096 	4938 	0.055028
37.37 	0.060686 	4927 	0.059616
37.39 	0.065910 	4931 	0.065078
37.41 	0.053944 	4931 	0.053212
37.43 	0.055961 	4932 	0.055130
37.45 	0.057067 	4924 	0.055739
37.47 	0.061473 	4929 	0.060166
37.49 	0.060126 	4923 	0.058678
37.51 	0.055950 	4933 	0.055118
37.53 	0.063224 	4919 	0.062391
37.55 	0.057809 	4930 	0.057334
37.57 	0.056041 	4925 	0.054970
37.59 	0.055341 	4915 	0.054983
37.61 	0.057903 	4922 	0.056694
37.63 	0.058142 	4919 	0.056832
37.65 	0.059577 	4918 	0.058624
37.67 	0.064029 	4904 	0.062596
37.69 	0.059004 	4898 	0.058166
37.71 	0.052343 	4929 	0.051155
37.73 	0.059850 	4929 	0.058899
37.75 	0.054656 	4940 	0.053233
37.77 	0.055691 	4920 	0.054977
37.79 	0.058621 	4930 	0.057670
37.81 	0.054328 	4933 	0.053616
37.83 	0.056707 	4920 	0.055755
37.85 	0.056684 	4922 	0.055851
37.87 	0.053655 	4939 	0.052943
37.89 	0.057259 	4925 	0.056664
37.91 	0.065720 	4930 	0.064770
37.93 	0.058548 	4919 	0.057834
37.95 	0.051616 	4921 	0.050901
37.97 	0.061473 	4929 	0.060166
37.99 	0.052117 	4912 	0.051163
38.01 	0.059456 	4928 	0.058267
38.03 	0.058057 	4909 	0.057341
38.05 	0.067411 	4925 	0.066341
38.07 	0.058668 	4909 	0.057336
38.09 	0.062936 	4878 	0.061615
38.11 	0.058359 	4935 	0.057409
38.13 	0.058132 	4937 	0.056946
38.15 	0.057950 	4918 	0.056125
38.17 	0.057404 	4930 	0.056215
38.19 	0.062272 	4930 	0.061202
38.21 	0.062157 	4923 	0.060591
38.23 	0.060956 	4938 	0.059532
38.25 	0.056335 	4917 	0.055144
38.27 	0.059838 	4930 	0.058412
38.29 	0.067222 	4924 	0.066013
38.31 	0.069008 	4927 	0.068056
38.33 	0.059504 	4924 	0.058077
38.35 	0.062500 	4928 	0.061668
38.37 	0.073721 	4924 	0.072174
38.39 	0.063760 	4909 	0.062686
38.41 	0.065610 	4923 	0.064401
38.43 	0.071806 	4916 	0.070853
38.45 	0.077471 	4918 	0.075803
38.47 	0.072549 	4907 	0.070998
38.49 	0.074021 	4877 	0.072339
38.51 	0.079481 	4932 	0.077343
38.53 	0.082167 	4929 	0.079038
38.55 	0.085900 	4936 	0.084119
38.57 	0.078611 	4923 	0.076707
38.59 	0.077376 	4924 	0.075473
38.61 	0.077593 	4936 	0.075883
38.63 	0.085093 	4924 	0.082576
38.65 	0.087027 	4918 	0.085121
38.67 	0.080616 	4937 	0.079073
38.69 	0.084112 	4922 	0.082446
38.71 	0.080219 	4924 	0.078911
38.73 	0.077267 	4918 	0.075461
38.75 	0.076923 	4927 	0.075377
38.77 	0.070892 	4923 	0.069940
38.79 	0.069720 	4934 	0.068177
38.81 	0.072679 	4912 	0.071228
38.83 	0.074405 	4919 	0.072838
38.85 	0.072679 	4912 	0.071487
38.87 	0.055386 	4911 	0.054909
38.89 	0.067184 	4897 	0.065749
38.91 	0.064042 	4903 	0.063087
38.93 	0.059943 	4938 	0.058283
38.95 	0.059374 	4918 	0.058302
38.97 	0.068749 	4931 	0.068036
38.99 	0.054284 	4937 	0.053691
39.01 	0.058154 	4918 	0.056486
39.03 	0.046413 	4934 	0.045700
39.05 	0.051574 	4925 	0.050622
39.07 	0.047929 	4924 	0.047334
39.09 	0.045501 	4923 	0.045263
39.11 	0.050700 	4931 	0.050343
39.13 	0.049157 	4923 	0.048443
39.15 	0.044761 	4915 	0.044403
39.17 	0.050233 	4937 	0.049996
39.19 	0.044133 	4917 	0.043299
39.21 	0.048269 	4910 	0.047076
39.23 	0.048528 	4925 	0.048052
39.25 	0.052215 	4922 	0.050866
39.27 	0.051731 	4910 	0.050419
39.29 	0.047133 	4901 	0.046775
39.31 	0.047502 	4884 	0.046902
39.33 	0.051714 	4931 	0.051238
39.35 	0.049037 	4935 	0.047969
39.37 	0.051938 	4929 	0.050868
39.39 	0.044431 	4929 	0.043718
39.41 	0.047658 	4931 	0.046589
39.43 	0.051085 	4933 	0.050253
39.45 	0.050355 	4925 	0.049999
39.47 	0.045094 	4923 	0.044381
39.49 	0.048044 	4933 	0.047450
39.51 	0.048335 	4924 	0.047621
39.53 	0.048954 	4923 	0.048240
39.55 	0.044318 	4919 	0.043961
39.57 	0.047233 	4933 	0.046758
39.59 	0.043770 	4912 	0.043413
39.61 	0.045501 	4923 	0.045144
39.63 	0.046323 	4922 	0.045132
39.65 	0.049736 	4926 	0.048646
39.67 	0.050682 	4913 	0.049966
39.69 	0.045362 	4916 	0.044766
39.71 	0.047191 	4895 	0.046114
39.73 	0.040546 	4908 	0.040546
39.75 	0.045860 	4928 	0.045147
39.77 	0.051064 	4935 	0.050589
39.79 	0.045676 	4926 	0.045200
39.81 	0.042216 	4927 	0.041979
39.83 	0.043170 	4934 	0.042457
39.85 	0.040999 	4927 	0.040404
39.87 	0.043858 	4925 	0.043382
39.89 	0.046615 	4934 	0.046140
39.91 	0.044088 	4922 	0.043255
39.93 	0.044561 	4937 	0.043968
39.95 	0.050051 	4915 	0.049455
39.97 	0.041396 	4928 	0.040683
39.99 	0.042376 	4932 	0.041901
40.01 	0.047987 	4918 	0.047391
40.03 	0.048295 	4928 	0.047582
40.05 	0.044336 	4917 	0.043740
40.07 	0.041844 	4923 	0.041249
40.09 	0.045566 	4916 	0.045327
40.11 	0.049837 	4916 	0.049480
40.13 	0.044322 	4896 	0.043843
40.15 	0.043761 	4913 	0.043285
40.17 	0.046063 	4928 	0.045449
40.19 	0.047271 	4929 	0.046083
40.21 	0.045187 	4935 	0.044357
40.23 	0.042579 	4932 	0.041629
40.25 	0.041667 	4920 	0.040952
40.27 	0.043549 	4937 	0.042481
40.29 	0.045870 	4927 	0.045394
40.31 	0.043936 	4939 	0.043699
40.33 	0.042376 	4932 	0.042020
40.35 	0.044521 	4919 	0.043926
40.37 	0.043214 	4929 	0.042857
40.39 	0.042588 	4931 	0.042113
40.41 	0.043452 	4925 	0.042738
40.43 	0.040431 	4922 	0.039836
40.45 	0.048855 	4933 	0.048261
40.47 	0.047174 	4918 	0.046816
40.49 	0.042225 	4926 	0.041749
40.51 	0.040024 	4922 	0.039667
40.53 	0.049227 	4916 	0.048274
40.55 	0.046047 	4908 	0.045689
40.57 	0.041513 	4890 	0.040535
40.59 	0.039903 	4937 	0.039290
40.61 	0.042351 	4935 	0.041994
40.63 	0.041582 	4930 	0.041226
40.65 	0.040308 	4937 	0.039833
40.67 	0.042174 	4932 	0.041817
40.69 	0.041118 	4937 	0.040881
40.71 	0.043593 	4932 	0.042999
40.73 	0.045067 	4926 	0.044235
40.75 	0.041777 	4931 	0.041539
40.77 	0.040292 	4939 	0.039817
40.79 	0.045288 	4924 	0.044931
40.81 	0.045740 	4941 	0.045147
40.83 	0.043019 	4928 	0.042663
40.85 	0.041024 	4924 	0.040786
40.87 	0.044237 	4928 	0.043286
40.89 	0.042182 	4931 	0.041588
40.91 	0.038797 	4923 	0.038441
40.93 	0.041346 	4934 	0.041108
40.95 	0.046407 	4913 	0.046050
40.97 	0.044882 	4924 	0.044525
40.99 	0.044476 	4924 	0.044119
41.01 	0.039495 	4912 	0.039018
41.03 	0.040571 	4905 	0.039377
41.05 	0.037885 	4936 	0.037410
41.07 	0.041176 	4930 	0.040582
41.09 	0.042316 	4939 	0.041723
41.11 	0.036474 	4935 	0.036118
41.13 	0.043963 	4936 	0.043725
41.15 	0.043311 	4941 	0.042600
41.17 	0.045602 	4934 	0.044890
41.19 	0.041379 	4930 	0.040904
41.21 	0.049220 	4937 	0.048508
41.23 	0.038469 	4939 	0.037995
41.25 	0.047233 	4933 	0.046758
41.27 	0.044413 	4931 	0.044175
41.29 	0.038149 	4928 	0.037912
41.31 	0.044800 	4933 	0.043950
41.33 	0.036662 	4937 	0.036187
41.35 	0.039692 	4938 	0.039455
41.37 	0.041024 	4924 	0.040548
41.39 	0.042773 	4933 	0.042417
41.41 	0.041819 	4926 	0.041224
41.43 	0.039359 	4929 	0.038884
41.45 	0.043956 	4914 	0.043122
41.47 	0.037759 	4926 	0.037283
41.49 	0.043540 	4892 	0.042702
41.51 	0.040891 	4940 	0.040416
41.53 	0.041060 	4944 	0.040586
41.55 	0.039919 	4935 	0.039444
41.57 	0.040275 	4941 	0.039682
41.59 	0.041760 	4933 	0.040810
41.61 	0.044821 	4953 	0.044230
41.63 	0.041312 	4938 	0.040601
41.65 	0.041388 	4929 	0.040437
41.67 	0.042510 	4940 	0.042273
41.69 	0.039418 	4947 	0.038589
41.71 	0.046413 	4934 	0.046056
41.73 	0.041937 	4936 	0.041343
41.75 	0.038344 	4929 	0.037988
41.77 	0.042906 	4941 	0.042669
41.79 	0.041464 	4944 	0.040753
41.81 	0.039303 	4936 	0.038947
41.83 	0.041396 	4928 	0.040683
41.85 	0.041304 	4939 	0.040474
41.87 	0.042756 	4935 	0.041806
41.89 	0.047436 	4933 	0.046961
41.91 	0.038695 	4936 	0.038695
41.93 	0.043998 	4932 	0.043642
41.95 	0.036301 	4931 	0.036301
41.97 	0.040700 	4914 	0.040223
41.99 	0.046279 	4905 	0.046040
42.01 	0.044516 	4942 	0.043924
42.03 	0.034622 	4939 	0.034148
42.05 	0.041397 	4952 	0.040806
42.07 	0.037472 	4937 	0.037235
42.09 	0.039410 	4948 	0.038818
42.11 	0.037816 	4945 	0.037461
42.13 	0.040040 	4945 	0.039211
42.15 	0.042122 	4938 	0.041411
42.17 	0.043920 	4918 	0.043563
42.19 	0.041769 	4908 	0.041530
42.21 	0.037747 	4901 	0.037389
42.23 	0.038226 	4892 	0.037986
42.25 	0.037022 	4889 	0.036543
42.27 	0.044522 	4874 	0.043681
42.29 	0.041127 	4863 	0.041006
42.31 	0.039753 	4855 	0.039270
42.33 	0.041167 	4834 	0.040803
42.35 	0.038239 	4838 	0.037512
42.37 	0.039337 	4830 	0.038731
42.39 	0.039550 	4804 	0.039063
42.41 	0.042048 	4804 	0.041682
42.43 	0.045284 	4792 	0.044550
42.45 	0.041039 	4776 	0.040671
42.47 	0.037775 	4765 	0.037530
42.49 	0.037356 	4765 	0.036495
42.51 	0.038583 	4743 	0.038213
42.53 	0.043993 	4728 	0.043250
42.55 	0.037596 	4708 	0.036953
42.57 	0.035941 	4730 	0.035445
42.59 	0.041446 	4729 	0.041323
42.61 	0.046941 	4708 	0.046548
42.63 	0.039924 	4709 	0.039426
42.65 	0.037353 	4685 	0.036853
42.67 	0.038642 	4684 	0.038017
42.69 	0.042362 	4674 	0.041986
42.71 	0.035814 	4663 	0.035563
42.73 	0.039655 	4640 	0.039150
42.75 	0.038770 	4617 	0.038389
42.77 	0.039348 	4600 	0.038966
42.79 	0.037975 	4582 	0.037591
42.81 	0.036826 	4562 	0.036441
42.83 	0.038139 	4536 	0.037752
42.85 	0.035336 	4528 	0.035077
42.87 	0.038898 	4499 	0.038637
42.89 	0.039732 	4480 	0.039340
42.91 	0.036355 	4456 	0.035961
42.93 	0.035088 	4446 	0.034692
42.95 	0.041440 	4416 	0.040644
42.97 	0.043399 	4401 	0.042867
42.99 	0.046978 	4385 	0.046578
43.01 	0.040110 	4363 	0.039573
43.03 	0.033695 	4333 	0.033425
43.05 	0.036763 	4325 	0.036221
43.07 	0.039804 	4296 	0.039123
43.09 	0.033855 	4283 	0.033444
43.11 	0.039483 	4255 	0.039208
43.13 	0.044607 	4237 	0.044192
43.15 	0.038279 	4206 	0.037722
43.17 	0.040201 	4179 	0.039780
43.19 	0.035765 	4194 	0.035486
43.21 	0.034516 	4172 	0.034235
43.23 	0.038036 	4154 	0.037613
43.25 	0.039661 	4135 	0.039378
43.27 	0.041900 	4105 	0.041472
43.29 	0.039512 	4100 	0.039369
43.31 	0.036283 	4079 	0.035853
43.33 	0.047396 	4051 	0.046962
43.35 	0.042907 	4032 	0.042035
43.37 	0.038356 	4015 	0.038064
43.39 	0.044228 	4002 	0.043935
43.41 	0.039023 	3972 	0.038876
43.43 	0.040152 	3960 	0.039560
43.45 	0.041169 	3935 	0.040722
43.47 	0.038511 	3921 	0.038361
43.49 	0.041827 	3897 	0.041526
43.51 	0.036884 	3877 	0.036733
43.53 	0.038312 	3863 	0.038009
43.55 	0.035425 	2964 	0.035030
43.57 	0.037534 	2238 	0.037534
43.59 	0.036082 	1746 	0.036082
43.61 	0.024426 	1351 	0.023993
43.63 	0.051948 	1001 	0.050778
43.65 	0.032023 	687 	0.032023
43.67 	0.027888 	502 	0.027888
43.69 	0.035422 	367 	0.033826
43.71 	0.041841 	239 	0.041841
43.73 	0.033333 	120 	0.033333
43.75 	0.000000 	16 	0.000000