File: Example_Data/25SC_s1_0017.001.dat
#F C:\frames\spec\25SC_s1_0017.001
#C title =s:17 frm:1 25SC_s1
#C wavelength =0.15406

#S 1  fr_average C:\frames\spec\25SC_s1_0017.001 C:\win32app\speccom\mask.axs chi 0 180 0 360 0.02
#C 2 theta =0.000000 to 180 deg
#C   q   =0.000000 to 81.568 nm^-1
#C  chi  =0.000000 to 360 deg
#C collumns:
#C  1 position (2theta or chi in degrees)
#C  2 average intensity (sum of all counts in the region divided with number of pixels)
#C  3 Number of pixels in region)
#C  4 error (sum of sqrt(intensity) for all pixels divided by number)
#N 4
#L TTh  Int  N_pix  Err
32.99 	0.114754 	61 	0.114754
33.01 	0.067583 	873 	0.065570
33.03 	0.054637 	1391 	0.054637
33.05 	0.054069 	1757 	0.053069
33.07 	0.068780 	2050 	0.067637
33.09 	0.060077 	2347 	0.058330
33.11 	0.064366 	2579 	0.063457
33.13 	0.064447 	2793 	0.063398
33.15 	0.055352 	2999 	0.054570
33.17 	0.056545 	3201 	0.055081
33.19 	0.054458 	3342 	0.053231
33.21 	0.051804 	3436 	0.051293
33.23 	0.053364 	3523 	0.051701
33.25 	0.043466 	3612 	0.042655
33.27 	0.066116 	3630 	0.065632
33.29 	0.052906 	3648 	0.052263
33.31 	0.059836 	3660 	0.058876
33.33 	0.065111 	3686 	0.063337
33.35 	0.059015 	3694 	0.058063
33.37 	0.053850 	3714 	0.052746
33.39 	0.057388 	3729 	0.056288
33.41 	0.058289 	3740 	0.057349
33.43 	0.070460 	3761 	0.068747
33.45 	0.056719 	3773 	0.055451
33.47 	0.058715 	3798 	0.057790
33.49 	0.053820 	3809 	0.053359
33.51 	0.053997 	3815 	0.052769
33.53 	0.062484 	3841 	0.062026
33.55 	0.060370 	3843 	0.059607
33.57 	0.062419 	3877 	0.061211
33.59 	0.058505 	3880 	0.057297
33.61 	0.059094 	3909 	0.058320
33.63 	0.056392 	3919 	0.055495
33.65 	0.063343 	3931 	0.062151
33.67 	0.064239 	3954 	0.063202
33.69 	0.055401 	3953 	0.054067
33.71 	0.052579 	3975 	0.051989
33.73 	0.056194 	4004 	0.055609
33.75 	0.057014 	3999 	0.056428
33.77 	0.057640 	4025 	0.056184
33.79 	0.063351 	4041 	0.061466
33.81 	0.063645 	4038 	0.062316
33.83 	0.060741 	4050 	0.059439
33.85 	0.056843 	4099 	0.055986
33.87 	0.057407 	4111 	0.056410
33.89 	0.058238 	4121 	0.057670
33.91 	0.060979 	4149 	0.060273
33.93 	0.055649 	4151 	0.054944
33.95 	0.054772 	4181 	0.053651
33.97 	0.061814 	4190 	0.060393
33.99 	0.060000 	4200 	0.058884
34.01 	0.061714 	4213 	0.059767
34.03 	0.061734 	4244 	0.060906
34.05 	0.055268 	4252 	0.053868
34.07 	0.056467 	4268 	0.055780
34.09 	0.053196 	4286 	0.052513
34.11 	0.054858 	4302 	0.054177
34.13 	0.056639 	4308 	0.055687
34.15 	0.056569 	4331 	0.055893
34.17 	0.059540 	4350 	0.058149
34.19 	0.055938 	4362 	0.054863
34.21 	0.055136 	4371 	0.054198
34.23 	0.058275 	4393 	0.056941
34.25 	0.057221 	4404 	0.056423
34.27 	0.059475 	4422 	0.058548
34.29 	0.061330 	4435 	0.060406
34.31 	0.064379 	4458 	0.062802
34.33 	0.057705 	4471 	0.057050
34.35 	0.063782 	4484 	0.062607
34.37 	0.057671 	4491 	0.056367
34.39 	0.060418 	4502 	0.059507
34.41 	0.055015 	4526 	0.054239
34.43 	0.057942 	4539 	0.056910
34.45 	0.060198 	4535 	0.058498
34.47 	0.050523 	4592 	0.050012
34.49 	0.055688 	4597 	0.054776
34.51 	0.056665 	4606 	0.055118
34.53 	0.054060 	4643 	0.053429
34.55 	0.060521 	4643 	0.059764
34.57 	0.056438 	4660 	0.055432
34.59 	0.058396 	4675 	0.057644
34.61 	0.060251 	4697 	0.059378
34.63 	0.057962 	4710 	0.056967
34.65 	0.055920 	4721 	0.054804
34.67 	0.062856 	4741 	0.061497
34.69 	0.058477 	4754 	0.056752
34.71 	0.054343 	4766 	0.053094
34.73 	0.059327 	4787 	0.058471
34.75 	0.053245 	4808 	0.052148
34.77 	0.061436 	4818 	0.060585
34.79 	0.051617 	4824 	0.050645
34.81 	0.061507 	4845 	0.060177
34.83 	0.053065 	4862 	0.052101
34.85 	0.052167 	4869 	0.051305
34.87 	0.058546 	4868 	0.057583
34.89 	0.055715 	4882 	0.054635
34.91 	0.052233 	4882 	0.051373
34.93 	0.049194 	4899 	0.048476
34.95 	0.065235 	4890 	0.064516
34.97 	0.058140 	4902 	0.057423
34.99 	0.053706 	4897 	0.052869
35.01 	0.054032 	4923 	0.052842
35.03 	0.058062 	4943 	0.057588
35.05 	0.058621 	4947 	0.057200
35.07 	0.052227 	4940 	0.051021
35.09 	0.056128 	4953 	0.054827
35.11 	0.056600 	4947 	0.055515
35.13 	0.057079 	4958 	0.055760
35.15 	0.057930 	4937 	0.057099
35.17 	0.054387 	4946 	0.053558
35.19 	0.054634 	4942 	0.054160
35.21 	0.062690 	4945 	0.060893
35.23 	0.057634 	4945 	0.056331
35.25 	0.058871 	4943 	0.058160
35.27 	0.058003 	4948 	0.056938
35.29 	0.063498 	4945 	0.062531
35.31 	0.058990 	4933 	0.058040
35.33 	0.055634 	4943 	0.055279
35.35 	0.060907 	4942 	0.059465
35.37 	0.053250 	4939 	0.052538
35.39 	0.062690 	4945 	0.061860
35.41 	0.062728 	4926 	0.061539
35.43 	0.058382 	4933 	0.057314
35.45 	0.058132 	4937 	0.057183
35.47 	0.057392 	4931 	0.056560
35.49 	0.054786 	4910 	0.053931
35.51 	0.054405 	4926 	0.053573
35.53 	0.054354 	4949 	0.053644
35.55 	0.055005 	4945 	0.054038
35.57 	0.059396 	4933 	0.058565
35.59 	0.058847 	4945 	0.057544
35.61 	0.063132 	4942 	0.062540
35.63 	0.052600 	4943 	0.051533
35.65 	0.063296 	4945 	0.061855
35.67 	0.061716 	4942 	0.060768
35.69 	0.052568 	4946 	0.050910
35.71 	0.058740 	4937 	0.057672
35.73 	0.052877 	4936 	0.052165
35.75 	0.058406 	4931 	0.057693
35.77 	0.046455 	4951 	0.046219
35.79 	0.060219 	4932 	0.059744
35.81 	0.063653 	4933 	0.062703
35.83 	0.059240 	4946 	0.058292
35.85 	0.060790 	4935 	0.059603
35.87 	0.062767 	4923 	0.062053
35.89 	0.058168 	4934 	0.057455
35.91 	0.052162 	4927 	0.050973
35.93 	0.054597 	4927 	0.053765
35.95 	0.054301 	4917 	0.053587
35.97 	0.058021 	4912 	0.056471
35.99 	0.055882 	4939 	0.054933
36.01 	0.056389 	4930 	0.055201
36.03 	0.052397 	4943 	0.051568
36.05 	0.057432 	4945 	0.056465
36.07 	0.059526 	4939 	0.058696
36.09 	0.053846 	4940 	0.052759
36.11 	0.053763 	4929 	0.052932
36.13 	0.057264 	4942 	0.056553
36.15 	0.057906 	4939 	0.056839
36.17 	0.060508 	4925 	0.059318
36.19 	0.050607 	4940 	0.049402
36.21 	0.064313 	4929 	0.062649
36.23 	0.053090 	4935 	0.052141
36.25 	0.059502 	4941 	0.058435
36.27 	0.056041 	4925 	0.055188
36.29 	0.055972 	4931 	0.055022
36.31 	0.055804 	4928 	0.054239
36.33 	0.054936 	4933 	0.054105
36.35 	0.055184 	4929 	0.054233
36.37 	0.058704 	4923 	0.057276
36.39 	0.056289 	4921 	0.054861
36.41 	0.056168 	4896 	0.055091
36.43 	0.057224 	4928 	0.056630
36.45 	0.058215 	4930 	0.057264
36.47 	0.061791 	4936 	0.060347
36.49 	0.056455 	4942 	0.055744
36.51 	0.051693 	4933 	0.051336
36.53 	0.060490 	4943 	0.059186
36.55 	0.057642 	4927 	0.057047
36.57 	0.057154 	4934 	0.056205
36.59 	0.057097 	4939 	0.056010
36.61 	0.062056 	4931 	0.060512
36.63 	0.058609 	4931 	0.057777
36.65 	0.056367 	4932 	0.055060
36.67 	0.060852 	4930 	0.060020
36.69 	0.055386 	4929 	0.054079
36.71 	0.054257 	4921 	0.052790
36.73 	0.051371 	4925 	0.050538
36.75 	0.057646 	4944 	0.057172
36.77 	0.055499 	4919 	0.054308
36.79 	0.058931 	4921 	0.058336
36.81 	0.059194 	4916 	0.058241
36.83 	0.052289 	4915 	0.052051
36.85 	0.061658 	4898 	0.060701
36.87 	0.059668 	4944 	0.058109
36.89 	0.056143 	4916 	0.055190
36.91 	0.059097 	4941 	0.057556
36.93 	0.050913 	4930 	0.049962
36.95 	0.054125 	4933 	0.052819
36.97 	0.052290 	4934 	0.051103
36.99 	0.054711 	4935 	0.053762
37.01 	0.060815 	4933 	0.059509
37.03 	0.059504 	4924 	0.058295
37.05 	0.059874 	4927 	0.059517
37.07 	0.061803 	4935 	0.060142
37.09 	0.053369 	4928 	0.052418
37.11 	0.058967 	4935 	0.057661
37.13 	0.055646 	4924 	0.054932
37.15 	0.055816 	4909 	0.055100
37.17 	0.055533 	4934 	0.054583
37.19 	0.054416 	4925 	0.054178
37.21 	0.060809 	4917 	0.059975
37.23 	0.055917 	4918 	0.055083
37.25 	0.052942 	4911 	0.052107
37.27 	0.061300 	4894 	0.060462
37.29 	0.065112 	4930 	0.064280
37.31 	0.058561 	4935 	0.057117
37.33 	0.066369 	4927 	0.065299
37.35 	0.061968 	4938 	0.060426
37.37 	0.060889 	4927 	0.059224
37.39 	0.057189 	4931 	0.055764
37.41 	0.056581 	4931 	0.055630
37.43 	0.057989 	4932 	0.056326
37.45 	0.065800 	4924 	0.063778
37.47 	0.060864 	4929 	0.060032
37.49 	0.053016 	4923 	0.052065
37.51 	0.053517 	4933 	0.052310
37.53 	0.060378 	4919 	0.058810
37.55 	0.056592 	4930 	0.055404
37.57 	0.055228 	4925 	0.054158
37.59 	0.051475 	4915 	0.050998
37.61 	0.065014 	4922 	0.063943
37.63 	0.050417 	4919 	0.049464
37.65 	0.053680 	4918 	0.052013
37.67 	0.055057 	4904 	0.054340
37.69 	0.057166 	4898 	0.056568
37.71 	0.055589 	4929 	0.054520
37.73 	0.052749 	4929 	0.051898
37.75 	0.056275 	4940 	0.055327
37.77 	0.053252 	4920 	0.052061
37.79 	0.055984 	4930 	0.055627
37.81 	0.052706 	4933 	0.051875
37.83 	0.058943 	4920 	0.057752
37.85 	0.059935 	4922 	0.058388
37.87 	0.052440 	4939 	0.052084
37.89 	0.053604 	4925 	0.053128
37.91 	0.053347 	4930 	0.052277
37.93 	0.056922 	4919 	0.056089
37.95 	0.057305 	4921 	0.056710
37.97 	0.053358 	4929 	0.052645
37.99 	0.048453 	4912 	0.048214
38.01 	0.053977 	4928 	0.052789
38.03 	0.051334 	4909 	0.050857
38.05 	0.052589 	4925 	0.051023
38.07 	0.056834 	4909 	0.055522
38.09 	0.057401 	4878 	0.056800
38.11 	0.054711 	4935 	0.053406
38.13 	0.052258 	4937 	0.051171
38.15 	0.057544 	4918 	0.056591
38.17 	0.053144 	4930 	0.051956
38.19 	0.053753 	4930 	0.052921
38.21 	0.057079 	4923 	0.056365
38.23 	0.058323 	4938 	0.057493
38.25 	0.065690 	4917 	0.064380
38.27 	0.053753 	4930 	0.052802
38.29 	0.057067 	4924 	0.056334
38.31 	0.055612 	4927 	0.055136
38.33 	0.055443 	4924 	0.054471
38.35 	0.057427 	4928 	0.056476
38.37 	0.058895 	4924 	0.057825
38.39 	0.058668 	4909 	0.057474
38.41 	0.058907 	4923 	0.057598
38.43 	0.064687 	4916 	0.063356
38.45 	0.065677 	4918 	0.065201
38.47 	0.064194 	4907 	0.063000
38.49 	0.067460 	4877 	0.065778
38.51 	0.067315 	4932 	0.065653
38.53 	0.065328 	4929 	0.063664
38.55 	0.072934 	4936 	0.071391
38.57 	0.069673 	4923 	0.068245
38.59 	0.068643 	4924 	0.066383
38.61 	0.069692 	4936 	0.068624
38.63 	0.082250 	4924 	0.079594
38.65 	0.067710 	4918 	0.065686
38.67 	0.071298 	4937 	0.070230
38.69 	0.071516 	4922 	0.069592
38.71 	0.077173 	4924 	0.075745
38.73 	0.069744 	4918 	0.068434
38.75 	0.069819 	4927 	0.067898
38.77 	0.065204 	4923 	0.064133
38.79 	0.076003 	4934 	0.073728
38.81 	0.070643 	4912 	0.069431
38.83 	0.070340 	4919 	0.068891
38.85 	0.061686 	4912 	0.060712
38.87 	0.063531 	4911 	0.062696
38.89 	0.069430 	4897 	0.067995
38.91 	0.060779 	4903 	0.059943
38.93 	0.066829 	4938 	0.065148
38.95 	0.054494 	4918 	0.053183
38.97 	0.050700 	4931 	0.050106
38.99 	0.051651 	4937 	0.050702
39.01 	0.049410 	4918 	0.048577
39.03 	0.055128 	4934 	0.053703
39.05 	0.048731 	4925 	0.047779
39.07 	0.051381 	4924 	0.050648
39.09 	0.053423 	4923 	0.052828
39.11 	0.053133 	4931 	0.052183
39.13 	0.051595 	4923 	0.050405
39.15 	0.051475 	4915 	0.050879
39.17 	0.044967 	4937 	0.044017
39.19 	0.049624 	4917 	0.049385
39.21 	0.046436 	4910 	0.045581
39.23 	0.045482 	4925 	0.045006
39.25 	0.044088 	4922 	0.043017
39.27 	0.043585 	4910 	0.043465
39.29 	0.048766 	4901 	0.047331
39.31 	0.045045 	4884 	0.044325
39.33 	0.049686 	4931 	0.048716
39.35 	0.040729 	4935 	0.040373
39.37 	0.044634 	4929 	0.044158
39.39 	0.045648 	4929 	0.045173
39.41 	0.044210 	4931 	0.043973
39.43 	0.039327 	4933 	0.038852
39.45 	0.040406 	4925 	0.039574
39.47 	0.044891 	4923 	0.043939
39.49 	0.046219 	4933 	0.045626
39.51 	0.042242 	4924 	0.041885
39.53 	0.048141 	4923 	0.046357
39.55 	0.045741 	4919 	0.045265
39.57 	0.045206 	4933 	0.044968
39.59 	0.045399 	4912 	0.044564
39.61 	0.046110 	4923 	0.045396
39.63 	0.044291 	4922 	0.043577
39.65 	0.045879 	4926 	0.045522
39.67 	0.050478 	4913 	0.049763
39.69 	0.044345 	4916 	0.043988
39.71 	0.043514 	4895 	0.042317
39.73 	0.043806 	4908 	0.043448
39.75 	0.044846 	4928 	0.044014
39.77 	0.041337 	4935 	0.040981
39.79 	0.046285 	4926 	0.045928
39.81 	0.042825 	4927 	0.041874
39.83 	0.039116 	4934 	0.038879
39.85 	0.040390 	4927 	0.040271
39.87 	0.044061 	4925 	0.042990
39.89 	0.044589 	4934 	0.043995
39.91 	0.045713 	4922 	0.044999
39.93 	0.039498 	4937 	0.038786
39.95 	0.039878 	4915 	0.039640
39.97 	0.047281 	4928 	0.046687
39.99 	0.045418 	4932 	0.044943
40.01 	0.045140 	4918 	0.044307
40.03 	0.039976 	4928 	0.039500
40.05 	0.047183 	4917 	0.046588
40.07 	0.047126 	4923 	0.046412
40.09 	0.043735 	4916 	0.043377
40.11 	0.040480 	4916 	0.039388
40.13 	0.043096 	4896 	0.042618
40.15 	0.045390 	4913 	0.044555
40.17 	0.045657 	4928 	0.045182
40.19 	0.049097 	4929 	0.048741
40.21 	0.041540 	4935 	0.041421
40.23 	0.041971 	4932 	0.041971
40.25 	0.037398 	4920 	0.037160
40.27 	0.041726 	4937 	0.041251
40.29 	0.047290 	4927 	0.046676
40.31 	0.043126 	4939 	0.042889
40.33 	0.044404 	4932 	0.043454
40.35 	0.042692 	4919 	0.042196
40.37 	0.041591 	4929 	0.041353
40.39 	0.045832 	4931 	0.045120
40.41 	0.043655 	4925 	0.043060
40.43 	0.043681 	4922 	0.043324
40.45 	0.043179 	4933 	0.042704
40.47 	0.040870 	4918 	0.040275
40.49 	0.046082 	4926 	0.045725
40.51 	0.043275 	4922 	0.042680
40.53 	0.043328 	4916 	0.042732
40.55 	0.044010 	4908 	0.043294
40.57 	0.043558 	4890 	0.042840
40.59 	0.044359 	4937 	0.044122
40.61 	0.042756 	4935 	0.041806
40.63 	0.040162 	4930 	0.039331
40.65 	0.045979 	4937 	0.044793
40.67 	0.045418 	4932 	0.044468
40.69 	0.039903 	4937 	0.039646
40.71 	0.037713 	4932 	0.037357
40.73 	0.042834 	4926 	0.041843
40.75 	0.039951 	4931 	0.039714
40.77 	0.045961 	4939 	0.045130
40.79 	0.045288 	4924 	0.044694
40.81 	0.041287 	4941 	0.041050
40.83 	0.044643 	4928 	0.043692
40.85 	0.041836 	4924 	0.041360
40.87 	0.042411 	4928 	0.041935
40.89 	0.042791 	4931 	0.042434
40.91 	0.044079 	4923 	0.043365
40.93 	0.041143 	4934 	0.040549
40.95 	0.044372 	4913 	0.043776
40.97 	0.039399 	4924 	0.039161
40.99 	0.050569 	4924 	0.049260
41.01 	0.041327 	4912 	0.040970
41.03 	0.041794 	4905 	0.041177
41.05 	0.040519 	4936 	0.039925
41.07 	0.043002 	4930 	0.042764
41.09 	0.043936 	4939 	0.042987
41.11 	0.042958 	4935 	0.042484
41.13 	0.043760 	4936 	0.042929
41.15 	0.039870 	4941 	0.039515
41.17 	0.038508 	4934 	0.038152
41.19 	0.037931 	4930 	0.037456
41.21 	0.041726 	4937 	0.041488
41.23 	0.041101 	4939 	0.040627
41.25 	0.045003 	4933 	0.044271
41.27 	0.043399 	4931 	0.042924
41.29 	0.041802 	4928 	0.041089
41.31 	0.035678 	4933 	0.035441
41.33 	0.043346 	4937 	0.042002
41.35 	0.037465 	4938 	0.037109
41.37 	0.040820 	4924 	0.040583
41.39 	0.039530 	4933 	0.038936
41.41 	0.037556 	4926 	0.037318
41.43 	0.040576 	4929 	0.040220
41.45 	0.042328 	4914 	0.041851
41.47 	0.042225 	4926 	0.041987
41.49 	0.040474 	4892 	0.039876
41.51 	0.036032 	4940 	0.035795
41.53 	0.041667 	4944 	0.040956
41.55 	0.040729 	4935 	0.040255
41.57 	0.038454 	4941 	0.038098
41.59 	0.043584 	4933 	0.043228
41.61 	0.041389 	4953 	0.040679
41.63 	0.043945 	4938 	0.043708
41.65 	0.040373 	4929 	0.040136
41.67 	0.043927 	4940 	0.043453
41.69 	0.035779 	4947 	0.035542
41.71 	0.037495 	4934 	0.037257
41.73 	0.039506 	4936 	0.038912
41.75 	0.038142 	4929 	0.037547
41.77 	0.035823 	4941 	0.035586
41.79 	0.043083 	4944 	0.042253
41.81 	0.040113 	4936 	0.039401
41.83 	0.036729 	4928 	0.036610
41.85 	0.035027 	4939 	0.034672
41.87 	0.041743 	4935 	0.040793
41.89 	0.043381 	4933 	0.042906
41.91 	0.038290 	4936 	0.037578
41.93 	0.042376 	4932 	0.042020
41.95 	0.041168 	4931 	0.040455
41.97 	0.039276 	4914 	0.038918
41.99 	0.035270 	4905 	0.034912
42.01 	0.037434 	4942 	0.037079
42.03 	0.041304 	4939 	0.040829
42.05 	0.035137 	4952 	0.034782
42.07 	0.037675 	4937 	0.037081
42.09 	0.041229 	4948 	0.040874
42.11 	0.035794 	4945 	0.035557
42.13 	0.040445 	4945 	0.039497
42.15 	0.043742 	4938 	0.042793
42.17 	0.042497 	4918 	0.042140
42.19 	0.041769 	4908 	0.041172
42.21 	0.038360 	4901 	0.037881
42.23 	0.042927 	4892 	0.042688
42.25 	0.042135 	4889 	0.041417
42.27 	0.045548 	4874 	0.045307
42.29 	0.038454 	4863 	0.038333
42.31 	0.035633 	4855 	0.035513
42.33 	0.034961 	4834 	0.034234
42.35 	0.038032 	4838 	0.037548
42.37 	0.039545 	4830 	0.039302
42.39 	0.037677 	4804 	0.037189
42.41 	0.042048 	4804 	0.041682
42.43 	0.040275 	4792 	0.040031
42.45 	0.037479 	4776 	0.036988
42.47 	0.039664 	4765 	0.039050
42.49 	0.040504 	4765 	0.040258
42.51 	0.033312 	4743 	0.033312
42.53 	0.041455 	4728 	0.041083
42.55 	0.041206 	4708 	0.040564
42.57 	0.038901 	4730 	0.038529
42.59 	0.034891 	4729 	0.034396
42.61 	0.038445 	4708 	0.038072
42.63 	0.039286 	4709 	0.039038
42.65 	0.036499 	4685 	0.035999
42.67 	0.042058 	4684 	0.041558
42.69 	0.036371 	4674 	0.036246
42.71 	0.037529 	4663 	0.037153
42.73 	0.039009 	4640 	0.038756
42.75 	0.040719 	4617 	0.040212
42.77 	0.036957 	4600 	0.036574
42.79 	0.039284 	4582 	0.038901
42.81 	0.045156 	4562 	0.044385
42.83 	0.034832 	4536 	0.034445
42.85 	0.039753 	4528 	0.039494
42.87 	0.034452 	4499 	0.034322
42.89 	0.033036 	4480 	0.032643
42.91 	0.036804 	4456 	0.036541
42.93 	0.039586 	4446 	0.038927
42.95 	0.037817 	4416 	0.037552
42.97 	0.037037 	4401 	0.036638
42.99 	0.036488 	4385 	0.035954
43.01 	0.039652 	4363 	0.039249
43.03 	0.037157 	4333 	0.037157
43.05 	0.036763 	4325 	0.036357
43.07 	0.037011 	4296 	0.036466
43.09 	0.036423 	4283 	0.036150
43.11 	0.035958 	4255 	0.035545
43.13 	0.038943 	4237 	0.038943
43.15 	0.037090 	4206 	0.036951
43.17 	0.041397 	4179 	0.041257
43.19 	0.038388 	4194 	0.037690
43.21 	0.036194 	4172 	0.036053
43.23 	0.037554 	4154 	0.037272
43.25 	0.042080 	4135 	0.042080
43.27 	0.036297 	4105 	0.036012
43.29 	0.036585 	4100 	0.036014
43.31 	0.041432 	4079 	0.041145
43.33 	0.039003 	4051 	0.037557
43.35 	0.035218 	4032 	0.034928
43.37 	0.035367 	4015 	0.034930
43.39 	0.033233 	4002 	0.032648
43.41 	0.031974 	3972 	0.031679
43.43 	0.036616 	3960 	0.036172
43.45 	0.040152 	3935 	0.039855
43.47 	0.040041 	3921 	0.039891
43.49 	0.044137 	3897 	0.043836
43.51 	0.039464 	3877 	0.039161
43.53 	0.037018 	3863 	0.036411
43.55 	0.034750 	2964 	0.033960
43.57 	0.044236 	2238 	0.043974
43.59 	0.030355 	1746 	0.029684
43.61 	0.041451 	1351 	0.040150
43.63 	0.033966 	1001 	0.033966
43.65 	0.036390 	687 	0.036390
43.67 	0.025896 	502 	0.025896
43.69 	0.029973 	367 	0.029973
43.71 	0.037657 	239 	0.037657
43.73 	0.016667 	120 	0.016667
43.75 	0.000000 	16 	0.000000