File: Example_Data/25SC_s1_0052.002.dat
#F C:\frames\spec\25SC_s1_0052.002
#C title =s:52 frm:2 25SC_s1
#C wavelength =0.15406

#S 1  fr_average C:\frames\spec\25SC_s1_0052.002 C:\win32app\speccom\mask.axs chi 0 180 0 360 0.02
#C 2 theta =0.000000 to 180 deg
#C   q   =0.000000 to 81.568 nm^-1
#C  chi  =0.000000 to 360 deg
#C collumns:
#C  1 position (2theta or chi in degrees)
#C  2 average intensity (sum of all counts in the region divided with number of pixels)
#C  3 Number of pixels in region)
#C  4 error (sum of sqrt(intensity) for all pixels divided by number)
#N 4
#L TTh  Int  N_pix  Err
32.99 	0.032787 	61 	0.032787
33.01 	0.054983 	873 	0.052859
33.03 	0.066858 	1391 	0.065174
33.05 	0.083096 	1757 	0.080429
33.07 	0.065854 	2050 	0.064996
33.09 	0.072433 	2347 	0.071435
33.11 	0.072509 	2579 	0.071146
33.13 	0.073756 	2793 	0.071868
33.15 	0.069690 	2999 	0.068127
33.17 	0.061543 	3201 	0.060232
33.19 	0.072711 	3342 	0.072185
33.21 	0.069558 	3436 	0.067853
33.23 	0.062447 	3523 	0.061449
33.25 	0.069767 	3612 	0.067659
33.27 	0.071901 	3630 	0.070287
33.29 	0.065789 	3648 	0.064826
33.31 	0.063661 	3660 	0.062061
33.33 	0.069723 	3686 	0.068293
33.35 	0.076611 	3694 	0.075184
33.37 	0.058697 	3714 	0.057120
33.39 	0.066238 	3729 	0.065295
33.41 	0.061765 	3740 	0.061138
33.43 	0.064876 	3761 	0.064098
33.45 	0.066525 	3773 	0.065102
33.47 	0.068720 	3798 	0.067641
33.49 	0.059858 	3809 	0.057859
33.51 	0.077326 	3815 	0.074998
33.53 	0.066389 	3841 	0.065626
33.55 	0.069477 	3843 	0.067750
33.57 	0.069899 	3877 	0.069144
33.59 	0.063402 	3880 	0.061741
33.61 	0.072141 	3909 	0.071242
33.63 	0.070426 	3919 	0.069230
33.65 	0.065378 	3931 	0.064037
33.67 	0.067021 	3954 	0.065687
33.69 	0.068809 	3953 	0.066969
33.71 	0.067421 	3975 	0.066832
33.73 	0.063936 	4004 	0.062742
33.75 	0.072018 	3999 	0.070969
33.77 	0.070559 	4025 	0.068958
33.79 	0.058896 	4041 	0.057592
33.81 	0.066369 	4038 	0.064919
33.83 	0.066914 	4050 	0.065323
33.85 	0.069041 	4099 	0.068184
33.87 	0.063975 	4111 	0.063405
33.89 	0.064547 	4121 	0.063695
33.91 	0.059773 	4149 	0.059209
33.93 	0.066490 	4151 	0.065220
33.95 	0.067209 	4181 	0.066368
33.97 	0.063007 	4190 	0.061749
33.99 	0.067619 	4200 	0.066085
34.01 	0.063613 	4213 	0.061666
34.03 	0.066211 	4244 	0.065222
34.05 	0.060677 	4252 	0.059553
34.07 	0.064433 	4268 	0.063609
34.09 	0.074895 	4286 	0.073096
34.11 	0.070432 	4302 	0.067959
34.13 	0.064995 	4308 	0.063772
34.15 	0.068114 	4331 	0.066491
34.17 	0.070115 	4350 	0.069172
34.19 	0.066942 	4362 	0.065330
34.21 	0.068863 	4371 	0.067121
34.23 	0.065786 	4393 	0.064720
34.25 	0.059718 	4404 	0.058787
34.27 	0.067164 	4422 	0.065177
34.29 	0.073957 	4435 	0.072879
34.31 	0.071332 	4458 	0.070150
34.33 	0.063073 	4471 	0.062418
34.35 	0.060883 	4484 	0.059425
34.37 	0.068136 	4491 	0.066289
34.39 	0.057530 	4502 	0.056728
34.41 	0.062528 	4526 	0.061104
34.43 	0.069619 	4539 	0.068586
34.45 	0.069019 	4535 	0.068115
34.47 	0.066202 	4592 	0.065437
34.49 	0.067653 	4597 	0.066251
34.51 	0.061876 	4606 	0.061240
34.53 	0.061598 	4643 	0.060967
34.55 	0.060952 	4643 	0.060195
34.57 	0.066309 	4660 	0.064926
34.59 	0.067166 	4675 	0.065286
34.61 	0.064509 	4697 	0.062763
34.63 	0.058174 	4710 	0.056682
34.65 	0.065240 	4721 	0.064124
34.67 	0.061590 	4741 	0.059840
34.69 	0.071729 	4754 	0.069758
34.71 	0.065254 	4766 	0.064516
34.73 	0.068728 	4787 	0.067137
34.75 	0.060108 	4808 	0.059255
34.77 	0.063719 	4818 	0.062625
34.79 	0.063847 	4824 	0.062997
34.81 	0.062126 	4845 	0.060312
34.83 	0.067256 	4862 	0.065449
34.85 	0.067365 	4869 	0.065801
34.87 	0.062038 	4868 	0.061316
34.89 	0.060016 	4882 	0.059296
34.91 	0.068005 	4882 	0.066565
34.93 	0.067769 	4899 	0.066573
34.95 	0.061963 	4890 	0.061005
34.97 	0.073235 	4902 	0.071782
34.99 	0.065755 	4897 	0.064319
35.01 	0.062563 	4923 	0.061493
35.03 	0.077079 	4943 	0.075657
35.05 	0.059026 	4947 	0.058197
35.07 	0.058097 	4940 	0.057030
35.09 	0.065011 	4953 	0.063828
35.11 	0.064484 	4947 	0.063299
35.13 	0.071803 	4958 	0.070858
35.15 	0.067450 	4937 	0.066026
35.17 	0.058431 	4946 	0.058076
35.19 	0.058276 	4942 	0.057683
35.21 	0.066532 	4945 	0.064755
35.23 	0.064105 	4945 	0.062565
35.25 	0.066356 	4943 	0.065171
35.27 	0.067098 	4948 	0.065677
35.29 	0.064914 	4945 	0.063611
35.31 	0.063856 	4933 	0.062549
35.33 	0.061299 	4943 	0.060351
35.35 	0.062728 	4942 	0.062016
35.37 	0.070865 	4939 	0.069204
35.39 	0.064307 	4945 	0.063597
35.41 	0.061510 	4926 	0.060421
35.43 	0.065680 	4933 	0.064611
35.45 	0.064209 	4937 	0.062548
35.47 	0.070168 	4931 	0.068505
35.49 	0.061711 	4910 	0.061114
35.51 	0.066382 	4926 	0.064817
35.53 	0.062033 	4949 	0.061204
35.55 	0.065925 	4945 	0.064148
35.57 	0.065477 	4933 	0.064152
35.59 	0.055612 	4945 	0.054546
35.61 	0.069000 	4942 	0.067341
35.63 	0.068784 	4943 	0.067362
35.65 	0.070779 	4945 	0.069002
35.67 	0.066370 	4942 	0.065422
35.69 	0.063890 	4946 	0.062824
35.71 	0.067045 	4937 	0.065621
35.73 	0.064627 	4936 	0.063084
35.75 	0.071791 	4931 	0.069870
35.77 	0.059382 	4951 	0.058672
35.79 	0.066910 	4932 	0.065485
35.81 	0.067707 	4933 	0.066520
35.83 	0.066518 	4946 	0.065097
35.85 	0.063222 	4935 	0.062391
35.87 	0.066829 	4923 	0.065520
35.89 	0.056952 	4934 	0.055646
35.91 	0.062310 	4927 	0.061359
35.93 	0.064136 	4927 	0.063304
35.95 	0.068741 	4917 	0.067788
35.97 	0.063314 	4912 	0.062360
35.99 	0.063171 	4939 	0.062815
36.01 	0.066329 	4930 	0.065240
36.03 	0.070403 	4943 	0.068980
36.05 	0.061881 	4945 	0.060341
36.07 	0.069042 	4939 	0.068212
36.09 	0.071053 	4940 	0.069393
36.11 	0.065531 	4929 	0.063629
36.13 	0.067584 	4942 	0.065806
36.15 	0.067827 	4939 	0.066997
36.17 	0.064365 	4925 	0.062938
36.19 	0.068219 	4940 	0.066914
36.21 	0.063502 	4929 	0.061957
36.23 	0.068085 	4935 	0.067254
36.25 	0.068205 	4941 	0.066901
36.27 	0.067614 	4925 	0.066544
36.29 	0.071588 	4931 	0.070044
36.31 	0.071834 	4928 	0.069933
36.33 	0.063248 	4933 	0.062773
36.35 	0.063705 	4929 	0.062041
36.37 	0.071298 	4923 	0.069256
36.39 	0.068076 	4921 	0.066528
36.41 	0.065768 	4896 	0.064572
36.43 	0.064935 	4928 	0.063628
36.45 	0.066531 	4930 	0.065343
36.47 	0.067666 	4936 	0.066479
36.49 	0.063942 	4942 	0.062638
36.51 	0.064667 	4933 	0.063479
36.53 	0.063120 	4943 	0.062172
36.55 	0.062310 	4927 	0.061477
36.57 	0.068302 	4934 	0.066501
36.59 	0.064386 	4939 	0.063318
36.61 	0.064693 	4931 	0.063505
36.63 	0.063476 	4931 	0.062169
36.65 	0.064071 	4932 	0.062765
36.67 	0.070791 	4930 	0.069959
36.69 	0.059850 	4929 	0.059256
36.71 	0.067060 	4921 	0.066226
36.73 	0.071066 	4925 	0.069758
36.75 	0.070591 	4944 	0.069880
36.77 	0.064851 	4919 	0.063898
36.79 	0.068279 	4921 	0.067327
36.81 	0.060212 	4916 	0.058543
36.83 	0.067955 	4915 	0.066883
36.85 	0.062270 	4898 	0.060835
36.87 	0.064523 	4944 	0.063575
36.89 	0.071400 	4916 	0.070089
36.91 	0.067598 	4941 	0.066748
36.93 	0.060852 	4930 	0.060020
36.95 	0.064464 	4933 	0.062683
36.97 	0.071950 	4934 	0.070644
36.99 	0.064843 	4935 	0.064131
37.01 	0.064869 	4933 	0.064038
37.03 	0.070065 	4924 	0.068499
37.05 	0.062310 	4927 	0.060982
37.07 	0.068693 	4935 	0.066675
37.09 	0.061080 	4928 	0.060247
37.11 	0.068896 	4935 	0.067115
37.13 	0.068846 	4924 	0.067657
37.15 	0.064372 	4909 	0.063417
37.17 	0.065667 	4934 	0.064123
37.19 	0.062132 	4925 	0.061299
37.21 	0.064267 	4917 	0.063552
37.23 	0.063847 	4918 	0.062021
37.25 	0.058847 	4911 	0.057774
37.27 	0.063343 	4894 	0.062266
37.29 	0.065112 	4930 	0.063547
37.31 	0.066059 	4935 	0.064753
37.33 	0.066775 	4927 	0.065824
37.35 	0.064601 	4938 	0.063771
37.37 	0.072052 	4927 	0.070744
37.39 	0.062868 	4931 	0.061898
37.41 	0.066518 	4931 	0.065330
37.43 	0.064477 	4932 	0.063170
37.45 	0.067019 	4924 	0.066186
37.47 	0.058227 	4929 	0.057038
37.49 	0.062360 	4923 	0.060556
37.51 	0.060612 	4933 	0.059781
37.53 	0.061598 	4919 	0.060883
37.55 	0.057809 	4930 	0.057196
37.57 	0.064162 	4925 	0.063092
37.59 	0.070600 	4915 	0.069508
37.61 	0.060951 	4922 	0.059880
37.63 	0.062614 	4919 	0.061781
37.65 	0.061814 	4918 	0.060623
37.67 	0.061786 	4904 	0.060114
37.69 	0.064108 	4898 	0.063031
37.71 	0.060053 	4929 	0.058864
37.73 	0.069182 	4929 	0.067756
37.75 	0.063765 	4940 	0.062817
37.77 	0.064837 	4920 	0.063528
37.79 	0.065314 	4930 	0.064126
37.81 	0.057166 	4933 	0.056335
37.83 	0.066260 	4920 	0.064712
37.85 	0.062373 	4922 	0.060826
37.87 	0.063171 	4939 	0.061273
37.89 	0.062132 	4925 	0.060705
37.91 	0.063692 	4930 	0.062860
37.93 	0.066070 	4919 	0.064641
37.95 	0.064621 	4921 	0.063193
37.97 	0.064516 	4929 	0.063447
37.99 	0.063722 	4912 	0.062271
38.01 	0.060268 	4928 	0.059674
38.03 	0.072112 	4909 	0.071038
38.05 	0.059898 	4925 	0.058828
38.07 	0.056020 	4909 	0.055304
38.09 	0.060476 	4878 	0.059035
38.11 	0.059574 	4935 	0.058487
38.13 	0.068868 	4937 	0.066831
38.15 	0.065474 	4918 	0.063925
38.17 	0.072211 	4930 	0.070310
38.19 	0.069777 	4930 	0.068826
38.21 	0.070485 	4923 	0.069058
38.23 	0.074727 	4938 	0.073778
38.25 	0.074436 	4917 	0.073125
38.27 	0.080933 	4930 	0.078794
38.29 	0.077985 	4924 	0.076558
38.31 	0.078141 	4927 	0.076219
38.33 	0.073111 	4924 	0.071545
38.35 	0.083604 	4928 	0.082059
38.37 	0.079204 	4924 	0.077181
38.39 	0.084742 	4909 	0.082594
38.41 	0.087345 	4923 	0.084965
38.43 	0.095403 	4916 	0.092543
38.45 	0.081944 	4918 	0.080376
38.47 	0.090687 	4907 	0.087921
38.49 	0.082223 	4877 	0.080181
38.51 	0.089213 	4932 	0.087075
38.53 	0.077906 	4929 	0.075985
38.55 	0.085494 	4936 	0.083596
38.57 	0.076173 	4923 	0.073992
38.59 	0.079813 	4924 	0.077910
38.61 	0.077188 	4936 	0.075527
38.63 	0.081844 	4924 	0.079683
38.65 	0.074217 	4918 	0.072292
38.67 	0.066842 	4937 	0.065893
38.69 	0.071516 	4922 	0.070326
38.71 	0.074736 	4924 	0.072714
38.73 	0.066287 	4918 	0.065572
38.75 	0.063122 	4927 	0.061794
38.77 	0.067032 	4923 	0.065604
38.79 	0.055736 	4934 	0.054311
38.81 	0.058836 	4912 	0.058120
38.83 	0.060581 	4919 	0.059271
38.85 	0.056393 	4912 	0.055677
38.87 	0.062513 	4911 	0.061916
38.89 	0.053911 	4897 	0.052595
38.91 	0.051193 	4903 	0.050476
38.93 	0.057311 	4938 	0.056599
38.95 	0.053884 	4918 	0.052812
38.97 	0.058609 	4931 	0.058015
38.99 	0.055904 	4937 	0.054955
39.01 	0.053680 	4918 	0.052489
39.03 	0.050061 	4934 	0.049705
39.05 	0.056041 	4925 	0.054851
39.07 	0.054224 	4924 	0.053154
39.09 	0.047329 	4923 	0.046238
39.11 	0.057798 	4931 	0.056610
39.13 	0.053423 	4923 	0.052471
39.15 	0.053510 	4915 	0.052517
39.17 	0.055499 	4937 	0.054431
39.19 	0.052268 	4917 	0.051910
39.21 	0.056619 	4910 	0.054810
39.23 	0.048934 	4925 	0.047982
39.25 	0.053230 	4922 	0.052021
39.27 	0.049898 	4910 	0.049302
39.29 	0.050398 	4901 	0.049681
39.31 	0.047502 	4884 	0.046543
39.33 	0.053742 	4931 	0.053266
39.35 	0.054306 	4935 	0.053831
39.37 	0.053358 	4929 	0.052882
39.39 	0.046460 	4929 	0.045984
39.41 	0.047658 	4931 	0.046470
39.43 	0.055544 	4933 	0.054119
39.45 	0.049949 	4925 	0.048740
39.47 	0.046923 	4923 	0.046209
39.49 	0.051693 	4933 	0.050743
39.51 	0.057474 	4924 	0.056760
39.53 	0.046313 	4923 	0.045599
39.55 	0.050823 	4919 	0.049990
39.57 	0.053112 	4933 	0.052280
39.59 	0.042345 	4912 	0.042107
39.61 	0.058095 	4923 	0.057143
39.63 	0.058919 	4922 	0.058205
39.65 	0.049533 	4926 	0.049057
39.67 	0.053735 	4913 	0.053020
39.69 	0.052889 	4916 	0.052412
39.71 	0.049847 	4895 	0.049368
39.73 	0.051752 	4908 	0.051514
39.75 	0.053774 	4928 	0.053299
39.77 	0.044782 	4935 	0.044307
39.79 	0.052375 	4926 	0.051781
39.81 	0.045870 	4927 	0.045394
39.83 	0.048845 	4934 	0.048607
39.85 	0.047696 	4927 	0.046983
39.87 	0.051371 	4925 	0.051133
39.89 	0.047629 	4934 	0.047035
39.91 	0.054856 	4922 	0.053666
39.93 	0.049828 	4937 	0.048641
39.95 	0.049644 	4915 	0.048571
39.97 	0.047484 	4928 	0.046652
39.99 	0.054339 	4932 	0.053389
40.01 	0.046970 	4918 	0.045898
40.03 	0.054789 	4928 	0.054195
40.05 	0.050844 	4917 	0.050248
40.07 	0.043673 	4923 	0.043078
40.09 	0.047600 	4916 	0.047004
40.11 	0.047600 	4916 	0.046646
40.13 	0.045547 	4896 	0.044830
40.15 	0.053735 	4913 	0.053020
40.17 	0.051542 	4928 	0.050691
40.19 	0.054575 	4929 	0.053624
40.21 	0.049443 	4935 	0.048612
40.23 	0.048459 	4932 	0.047746
40.25 	0.046138 	4920 	0.045781
40.27 	0.052056 	4937 	0.051206
40.29 	0.050335 	4927 	0.049622
40.31 	0.047176 	4939 	0.046701
40.33 	0.048054 	4932 	0.047440
40.35 	0.048994 	4919 	0.048636
40.37 	0.051329 	4929 	0.051091
40.39 	0.050497 	4931 	0.049665
40.41 	0.053198 	4925 	0.052603
40.43 	0.049573 	4922 	0.049097
40.45 	0.051287 	4933 	0.050575
40.47 	0.043107 	4918 	0.042273
40.49 	0.047097 	4926 	0.046126
40.51 	0.045104 	4922 	0.044628
40.53 	0.051261 	4916 	0.049831
40.55 	0.051752 	4908 	0.050678
40.57 	0.047853 	4890 	0.047254
40.59 	0.051651 	4937 	0.051413
40.61 	0.046403 	4935 	0.046166
40.63 	0.045842 	4930 	0.045485
40.65 	0.044764 	4937 	0.044052
40.67 	0.047851 	4932 	0.046901
40.69 	0.048207 	4937 	0.047357
40.71 	0.043593 	4932 	0.043474
40.73 	0.048518 	4926 	0.048042
40.75 	0.045427 	4931 	0.045308
40.77 	0.047580 	4939 	0.046750
40.79 	0.053615 	4924 	0.052901
40.81 	0.045335 	4941 	0.044624
40.83 	0.051948 	4928 	0.051235
40.85 	0.043664 	4924 	0.042712
40.87 	0.051136 	4928 	0.050067
40.89 	0.052525 	4931 	0.051337
40.91 	0.046516 	4923 	0.045426
40.93 	0.047426 	4934 	0.047070
40.95 	0.050885 	4913 	0.050051
40.97 	0.044070 	4924 	0.043118
40.99 	0.038587 	4924 	0.037754
41.01 	0.043974 	4912 	0.043497
41.03 	0.046483 	4905 	0.045747
41.05 	0.048420 	4936 	0.047826
41.07 	0.051724 	4930 	0.051011
41.09 	0.046163 	4939 	0.045333
41.11 	0.045998 	4935 	0.045642
41.13 	0.045786 	4936 	0.045430
41.15 	0.048978 	4941 	0.048622
41.17 	0.042156 	4934 	0.041919
41.19 	0.049493 	4930 	0.048780
41.21 	0.050841 	4937 	0.050010
41.23 	0.046771 	4939 	0.045940
41.25 	0.045206 	4933 	0.044968
41.27 	0.048874 	4931 	0.047924
41.29 	0.045455 	4928 	0.044622
41.31 	0.054328 	4933 	0.053141
41.33 	0.050435 	4937 	0.049368
41.35 	0.044147 	4938 	0.043317
41.37 	0.047725 	4924 	0.047369
41.39 	0.046827 	4933 	0.046471
41.41 	0.049330 	4926 	0.048973
41.43 	0.045040 	4929 	0.044564
41.45 	0.046195 	4914 	0.045360
41.47 	0.044458 	4926 	0.044220
41.49 	0.045176 	4892 	0.044577
41.51 	0.050000 	4940 	0.048933
41.53 	0.047735 	4944 	0.046905
41.55 	0.045187 	4935 	0.044238
41.57 	0.054847 	4941 	0.053405
41.59 	0.046422 	4933 	0.045571
41.61 	0.048657 	4953 	0.048066
41.63 	0.046375 	4938 	0.045901
41.65 	0.046663 	4929 	0.046187
41.67 	0.048178 	4940 	0.047348
41.69 	0.047099 	4947 	0.046626
41.71 	0.046210 	4934 	0.045241
41.73 	0.045178 	4936 	0.044466
41.75 	0.043619 	4929 	0.043263
41.77 	0.047156 	4941 	0.046445
41.79 	0.041464 	4944 	0.040872
41.81 	0.048420 	4936 	0.048064
41.83 	0.048904 	4928 	0.048310
41.85 	0.046163 	4939 	0.045689
41.87 	0.048835 	4935 	0.047767
41.89 	0.049666 	4933 	0.048834
41.91 	0.044976 	4936 	0.044738
41.93 	0.044404 	4932 	0.043929
41.95 	0.050700 	4931 	0.049492
41.97 	0.047823 	4914 	0.047107
41.99 	0.048930 	4905 	0.047616
42.01 	0.045933 	4942 	0.045340
42.03 	0.042519 	4939 	0.041807
42.05 	0.046042 	4952 	0.045451
42.07 	0.045169 	4937 	0.044457
42.09 	0.044462 	4948 	0.043752
42.11 	0.045905 	4945 	0.045194
42.13 	0.048736 	4945 	0.047788
42.15 	0.045160 	4938 	0.044685
42.17 	0.048190 	4918 	0.047118
42.19 	0.042176 	4908 	0.041579
42.21 	0.043869 	4901 	0.043510
42.23 	0.044971 	4892 	0.044373
42.25 	0.040090 	4889 	0.039371
42.27 	0.044932 	4874 	0.044692
42.29 	0.044417 	4863 	0.043574
42.31 	0.038517 	4855 	0.037793
42.33 	0.043442 	4834 	0.042958
42.35 	0.043613 	4838 	0.043129
42.37 	0.044099 	4830 	0.043736
42.39 	0.044963 	4804 	0.044353
42.41 	0.044546 	4804 	0.044302
42.43 	0.043614 	4792 	0.042759
42.45 	0.042295 	4776 	0.042295
42.47 	0.042183 	4765 	0.041937
42.49 	0.041763 	4765 	0.041640
42.51 	0.038583 	4743 	0.037945
42.53 	0.045897 	4728 	0.045649
42.55 	0.043543 	4708 	0.042776
42.57 	0.042706 	4730 	0.042458
42.59 	0.041869 	4729 	0.041002
42.61 	0.049065 	4708 	0.048319
42.63 	0.043534 	4709 	0.042767
42.65 	0.045037 	4685 	0.044662
42.67 	0.048676 	4684 	0.047801
42.69 	0.041292 	4674 	0.040916
42.71 	0.039888 	4663 	0.039763
42.73 	0.044181 	4640 	0.042919
42.75 	0.045051 	4617 	0.044543
42.77 	0.040000 	4600 	0.039491
42.79 	0.043867 	4582 	0.043739
42.81 	0.046471 	4562 	0.045444
42.83 	0.044312 	4536 	0.043666
42.85 	0.047924 	4528 	0.047407
42.87 	0.044010 	4499 	0.043619
42.89 	0.041741 	4480 	0.041349
42.91 	0.038600 	4456 	0.038337
42.93 	0.038237 	4446 	0.037710
42.95 	0.041440 	4416 	0.041308
42.97 	0.044990 	4401 	0.044590
42.99 	0.042645 	4385 	0.042245
43.01 	0.044923 	4363 	0.044520
43.03 	0.043619 	4333 	0.043078
43.05 	0.040231 	4325 	0.039960
43.07 	0.046788 	4296 	0.046379
43.09 	0.038291 	4283 	0.037744
43.11 	0.046298 	4255 	0.045748
43.13 	0.048147 	4237 	0.047871
43.15 	0.039230 	4206 	0.039090
43.17 	0.049294 	4179 	0.048710
43.19 	0.048402 	4194 	0.047704
43.21 	0.040748 	4172 	0.040607
43.23 	0.046461 	4154 	0.046038
43.25 	0.048126 	4135 	0.047559
43.27 	0.041657 	4105 	0.041228
43.29 	0.044146 	4100 	0.044146
43.31 	0.041677 	4079 	0.041102
43.33 	0.043446 	4051 	0.043012
43.35 	0.044643 	4032 	0.043771
43.37 	0.039601 	4015 	0.039310
43.39 	0.042979 	4002 	0.042100
43.41 	0.040282 	3972 	0.039987
43.43 	0.041919 	3960 	0.041155
43.45 	0.040661 	3935 	0.040512
43.47 	0.039021 	3921 	0.038871
43.49 	0.039774 	3897 	0.039323
43.51 	0.042301 	3877 	0.041696
43.53 	0.041419 	3863 	0.040812
43.55 	0.046896 	2964 	0.046106
43.57 	0.045576 	2238 	0.045315
43.59 	0.040092 	1746 	0.039421
43.61 	0.039230 	1351 	0.039230
43.63 	0.033966 	1001 	0.033966
43.65 	0.040757 	687 	0.040757
43.67 	0.053785 	502 	0.053785
43.69 	0.049046 	367 	0.045854
43.71 	0.079498 	239 	0.077047
43.73 	0.066667 	120 	0.066667
43.75 	0.000000 	16 	0.000000