File: Example_Data/25SC_s1_0002.009.dat
#F C:\frames\spec\25SC_s1_0002.009
#C title =s:2 frm:9 25SC_s1
#C wavelength =0.15406

#S 1  fr_average C:\frames\spec\25SC_s1_0002.009 C:\win32app\speccom\mask.axs chi 0 180 0 360 0.02
#C 2 theta =0.000000 to 180 deg
#C   q   =0.000000 to 81.568 nm^-1
#C  chi  =0.000000 to 360 deg
#C collumns:
#C  1 position (2theta or chi in degrees)
#C  2 average intensity (sum of all counts in the region divided with number of pixels)
#C  3 Number of pixels in region)
#C  4 error (sum of sqrt(intensity) for all pixels divided by number)
#N 4
#L TTh  Int  N_pix  Err
32.99 	0.065574 	61 	0.065574
33.01 	0.076747 	873 	0.074734
33.03 	0.068296 	1391 	0.066612
33.05 	0.080820 	1757 	0.079153
33.07 	0.065854 	2050 	0.064139
33.09 	0.074563 	2347 	0.073565
33.11 	0.070570 	2579 	0.068526
33.13 	0.075904 	2793 	0.074646
33.15 	0.071691 	2999 	0.070323
33.17 	0.068104 	3201 	0.066091
33.19 	0.064632 	3342 	0.064106
33.21 	0.074214 	3436 	0.072652
33.23 	0.074368 	3523 	0.072041
33.25 	0.067829 	3612 	0.067181
33.27 	0.063085 	3630 	0.062117
33.29 	0.070724 	3648 	0.069278
33.31 	0.062842 	3660 	0.061401
33.33 	0.073250 	3686 	0.071661
33.35 	0.072279 	3694 	0.071804
33.37 	0.070544 	3714 	0.069598
33.39 	0.065969 	3729 	0.064713
33.41 	0.063102 	3740 	0.062162
33.43 	0.069928 	3761 	0.068682
33.45 	0.076067 	3773 	0.074489
33.47 	0.069774 	3798 	0.068077
33.49 	0.070622 	3809 	0.068905
33.51 	0.075754 	3815 	0.074679
33.53 	0.065868 	3841 	0.064293
33.55 	0.067135 	3843 	0.066373
33.57 	0.071189 	3877 	0.069527
33.59 	0.079639 	3880 	0.078129
33.61 	0.072909 	3909 	0.071560
33.63 	0.065578 	3919 	0.064532
33.65 	0.060036 	3931 	0.059291
33.67 	0.067021 	3954 	0.066132
33.69 	0.074880 	3953 	0.073546
33.71 	0.078994 	3975 	0.077667
33.73 	0.071429 	4004 	0.070404
33.75 	0.071268 	3999 	0.069339
33.77 	0.068075 	4025 	0.067347
33.79 	0.076961 	4041 	0.075512
33.81 	0.074790 	4038 	0.073629
33.83 	0.068889 	4050 	0.067009
33.85 	0.068309 	4099 	0.067166
33.87 	0.071272 	4111 	0.069990
33.89 	0.069158 	4121 	0.068021
33.91 	0.067486 	4149 	0.065769
33.93 	0.076126 	4151 	0.074292
33.95 	0.069361 	4181 	0.067960
33.97 	0.073747 	4190 	0.071767
33.99 	0.066429 	4200 	0.064894
34.01 	0.071208 	4213 	0.069378
34.03 	0.076814 	4244 	0.074606
34.05 	0.075259 	4252 	0.074019
34.07 	0.071931 	4268 	0.070261
34.09 	0.071629 	4286 	0.070672
34.11 	0.069503 	4302 	0.068549
34.13 	0.072888 	4308 	0.071664
34.15 	0.071115 	4331 	0.069763
34.17 	0.071264 	4350 	0.070052
34.19 	0.074966 	4362 	0.073332
34.21 	0.075955 	4371 	0.073499
34.23 	0.066925 	4393 	0.065591
34.25 	0.076067 	4404 	0.074604
34.27 	0.064903 	4422 	0.063843
34.29 	0.074634 	4435 	0.072784
34.31 	0.080305 	4458 	0.078181
34.33 	0.065981 	4471 	0.064802
34.35 	0.068243 	4484 	0.067589
34.37 	0.063906 	4491 	0.062862
34.39 	0.074189 	4502 	0.071977
34.41 	0.069598 	4526 	0.068282
34.43 	0.074906 	4539 	0.073229
34.45 	0.069680 	4535 	0.068518
34.47 	0.065113 	4592 	0.063710
34.49 	0.076354 	4597 	0.074570
34.51 	0.061442 	4606 	0.060022
34.53 	0.069136 	4643 	0.068506
34.55 	0.069352 	4643 	0.068469
34.57 	0.065880 	4660 	0.064120
34.59 	0.072086 	4675 	0.070185
34.61 	0.068129 	4697 	0.066362
34.63 	0.068365 	4710 	0.067495
34.65 	0.066088 	4721 	0.064723
34.67 	0.065809 	4741 	0.064944
34.69 	0.068153 	4754 	0.066798
34.71 	0.065254 	4766 	0.064148
34.73 	0.071861 	4787 	0.070026
34.75 	0.070092 	4808 	0.069340
34.77 	0.073059 	4818 	0.071824
34.79 	0.075249 	4824 	0.073043
34.81 	0.073684 	4845 	0.071609
34.83 	0.068902 	4862 	0.067456
34.85 	0.064284 	4869 	0.062841
34.87 	0.068406 	4868 	0.066461
34.89 	0.065752 	4882 	0.064312
34.91 	0.073535 	4882 	0.072216
34.93 	0.073076 	4899 	0.071263
34.95 	0.071984 	4890 	0.070426
34.97 	0.063443 	4902 	0.062010
34.99 	0.070860 	4897 	0.069783
35.01 	0.074548 	4923 	0.072763
35.03 	0.063524 	4943 	0.061945
35.05 	0.070952 	4947 	0.067953
35.07 	0.075304 	4940 	0.073762
35.09 	0.069453 	4953 	0.067561
35.11 	0.071154 	4947 	0.070089
35.13 	0.074425 	4958 	0.073007
35.15 	0.072311 	4937 	0.071125
35.17 	0.070360 	4946 	0.069176
35.19 	0.074059 	4942 	0.072518
35.21 	0.070576 	4945 	0.069273
35.23 	0.072599 	4945 	0.071532
35.25 	0.073033 	4943 	0.071136
35.27 	0.062854 	4948 	0.061315
35.29 	0.074216 	4945 	0.073012
35.31 	0.074397 	4933 	0.072853
35.33 	0.075258 	4943 	0.073560
35.35 	0.070012 	4942 	0.069301
35.37 	0.068232 	4939 	0.067027
35.39 	0.071183 	4945 	0.069742
35.41 	0.078360 	4926 	0.076556
35.43 	0.069329 	4933 	0.067746
35.45 	0.071906 	4937 	0.070245
35.47 	0.070777 	4931 	0.070183
35.49 	0.067821 	4910 	0.066508
35.51 	0.071661 	4926 	0.070809
35.53 	0.073146 	4949 	0.071706
35.55 	0.079272 	4945 	0.078087
35.57 	0.067707 	4933 	0.066876
35.59 	0.071992 	4945 	0.069959
35.61 	0.075273 	4942 	0.073377
35.63 	0.072021 	4943 	0.070461
35.65 	0.070779 	4945 	0.069476
35.67 	0.074868 	4942 	0.072972
35.69 	0.071775 	4946 	0.070354
35.71 	0.071298 	4937 	0.069637
35.73 	0.071921 	4936 	0.070734
35.75 	0.078483 	4931 	0.075751
35.77 	0.068471 	4951 	0.067170
35.79 	0.065693 	4932 	0.063892
35.81 	0.070140 	4933 	0.068834
35.83 	0.073797 	4946 	0.072238
35.85 	0.063830 	4935 	0.062880
35.87 	0.068251 	4923 	0.067061
35.89 	0.073976 	4934 	0.073027
35.91 	0.078141 	4927 	0.076357
35.93 	0.079156 	4927 	0.077452
35.95 	0.070775 	4917 	0.069464
35.97 	0.069015 	4912 	0.067941
35.99 	0.072889 	4939 	0.071783
36.01 	0.073225 	4930 	0.071086
36.03 	0.077888 	4943 	0.075162
36.05 	0.076441 	4945 	0.074427
36.07 	0.072687 	4939 	0.071619
36.09 	0.072874 	4940 	0.071096
36.11 	0.079935 	4929 	0.078489
36.13 	0.073857 	4942 	0.072316
36.15 	0.071067 	4939 	0.070118
36.17 	0.070457 	4925 	0.069505
36.19 	0.074899 	4940 	0.073832
36.21 	0.064313 	4929 	0.063362
36.23 	0.079635 	4935 	0.078448
36.25 	0.067193 	4941 	0.066126
36.27 	0.076751 	4925 	0.075324
36.29 	0.069763 	4931 	0.067506
36.31 	0.072849 	4928 	0.070947
36.33 	0.074802 	4933 	0.073377
36.35 	0.071211 	4929 	0.069666
36.37 	0.070892 	4923 	0.069464
36.39 	0.069498 	4921 	0.068546
36.41 	0.073938 	4896 	0.072383
36.43 	0.079343 	4928 	0.078035
36.45 	0.076876 	4930 	0.075213
36.47 	0.071718 	4936 	0.070531
36.49 	0.076285 	4942 	0.073914
36.51 	0.072167 	4933 	0.070723
36.53 	0.074044 	4943 	0.072622
36.55 	0.074488 	4927 	0.073061
36.57 	0.071747 	4934 	0.070797
36.59 	0.080786 	4939 	0.078888
36.61 	0.067126 	4931 	0.066176
36.63 	0.074833 	4931 	0.073625
36.65 	0.072384 	4932 	0.071553
36.67 	0.072414 	4930 	0.070394
36.69 	0.070400 	4929 	0.069211
36.71 	0.071937 	4921 	0.070032
36.73 	0.072487 	4925 	0.071298
36.75 	0.072816 	4944 	0.071631
36.77 	0.064241 	4919 	0.063169
36.79 	0.074782 	4921 	0.073353
36.81 	0.068552 	4916 	0.066864
36.83 	0.070193 	4915 	0.068605
36.85 	0.077379 	4898 	0.075824
36.87 	0.061489 	4944 	0.060541
36.89 	0.071603 	4916 	0.070411
36.91 	0.068610 	4941 	0.066713
36.93 	0.064706 	4930 	0.064231
36.95 	0.073383 	4933 	0.070851
36.97 	0.072152 	4934 	0.070609
36.99 	0.074569 	4935 	0.073264
37.01 	0.071762 	4933 	0.069980
37.03 	0.070065 	4924 	0.068518
37.05 	0.065354 	4927 	0.064403
37.07 	0.065856 	4935 	0.064669
37.09 	0.070211 	4928 	0.069141
37.11 	0.071327 	4935 	0.070259
37.13 	0.067425 	4924 	0.065482
37.15 	0.068446 	4909 	0.067252
37.17 	0.075193 	4934 	0.073649
37.19 	0.068223 	4925 	0.067034
37.21 	0.074029 	4917 	0.071984
37.23 	0.067710 	4918 	0.066500
37.25 	0.068214 	4911 	0.067379
37.27 	0.064978 	4894 	0.063900
37.29 	0.066937 	4930 	0.065511
37.31 	0.073961 	4935 	0.072418
37.33 	0.072458 	4927 	0.070912
37.35 	0.070474 	4938 	0.068794
37.37 	0.069413 	4927 	0.067967
37.39 	0.068952 	4931 	0.067288
37.41 	0.068749 	4931 	0.068155
37.43 	0.070762 	4932 	0.069318
37.45 	0.065800 	4924 	0.063639
37.47 	0.062893 	4929 	0.061586
37.49 	0.064798 	4923 	0.063231
37.51 	0.065275 	4933 	0.063593
37.53 	0.073186 	4919 	0.071995
37.55 	0.067546 	4930 	0.066239
37.57 	0.064162 	4925 	0.062735
37.59 	0.072838 	4915 	0.071170
37.61 	0.065421 	4922 	0.064468
37.63 	0.075015 	4919 	0.073209
37.65 	0.067507 	4918 	0.067031
37.67 	0.069331 	4904 	0.067898
37.69 	0.071662 	4898 	0.069509
37.71 	0.073849 	4929 	0.072304
37.73 	0.065733 	4929 	0.064525
37.75 	0.070445 	4940 	0.068785
37.77 	0.060976 	4920 	0.060142
37.79 	0.066329 	4930 	0.064546
37.81 	0.063856 	4933 	0.062312
37.83 	0.066870 	4920 	0.065560
37.85 	0.065624 	4922 	0.064553
37.87 	0.079368 	4939 	0.077589
37.89 	0.067614 	4925 	0.066167
37.91 	0.061663 	4930 	0.060832
37.93 	0.069730 	4919 	0.068301
37.95 	0.069904 	4921 	0.068218
37.97 	0.070805 	4929 	0.070092
37.99 	0.069015 	4912 	0.067941
38.01 	0.067370 	4928 	0.065706
38.03 	0.066409 	4909 	0.064977
38.05 	0.068426 	4925 	0.067237
38.07 	0.069872 	4909 	0.068678
38.09 	0.063961 	4878 	0.063000
38.11 	0.068896 	4935 	0.067709
38.13 	0.075349 	4937 	0.073688
38.15 	0.072387 	4918 	0.070819
38.17 	0.066937 	4930 	0.065373
38.19 	0.068357 	4930 	0.067268
38.21 	0.071298 	4923 	0.069751
38.23 	0.063386 	4938 	0.062437
38.25 	0.075046 	4917 	0.073477
38.27 	0.065517 	4930 	0.064329
38.29 	0.070065 	4924 	0.067686
38.31 	0.070834 	4927 	0.069883
38.33 	0.083875 	4924 	0.082923
38.35 	0.076096 	4928 	0.073679
38.37 	0.079204 	4924 	0.077519
38.39 	0.087187 	4909 	0.085258
38.41 	0.076173 	4923 	0.074388
38.43 	0.081367 	4916 	0.079441
38.45 	0.081741 	4918 	0.080788
38.47 	0.083554 	4907 	0.081405
38.49 	0.072791 	4877 	0.071590
38.51 	0.089213 	4932 	0.086719
38.53 	0.080747 	4929 	0.078231
38.55 	0.083063 	4936 	0.080808
38.57 	0.076579 	4923 	0.075389
38.59 	0.079813 	4924 	0.078029
38.61 	0.081442 	4936 	0.079662
38.63 	0.077376 	4924 	0.075473
38.65 	0.076251 	4918 	0.074940
38.67 	0.080413 	4937 	0.078040
38.69 	0.072125 	4922 	0.070935
38.71 	0.071487 	4924 	0.069940
38.73 	0.081944 	4918 	0.079999
38.75 	0.068602 	4927 	0.067769
38.77 	0.075157 	4923 	0.072897
38.79 	0.079449 	4934 	0.077549
38.81 	0.066164 	4912 	0.064733
38.83 	0.067900 	4919 	0.066570
38.85 	0.065757 	4912 	0.064068
38.87 	0.069232 	4911 	0.068159
38.89 	0.069839 	4897 	0.068523
38.91 	0.073832 	4903 	0.071782
38.93 	0.069461 	4938 	0.067801
38.95 	0.063644 	4918 	0.062810
38.97 	0.060637 	4931 	0.059568
38.99 	0.061778 	4937 	0.060928
39.01 	0.063237 	4918 	0.062384
39.03 	0.058573 	4934 	0.057980
39.05 	0.067817 	4925 	0.066509
39.07 	0.067831 	4924 	0.066284
39.09 	0.067845 	4923 	0.066774
39.11 	0.067329 	4931 	0.066240
39.13 	0.066017 	4923 	0.064807
39.15 	0.063886 	4915 	0.062933
39.17 	0.064412 	4937 	0.063581
39.19 	0.065487 	4917 	0.064415
39.21 	0.061507 	4910 	0.060314
39.23 	0.061117 	4925 	0.060403
39.25 	0.062779 	4922 	0.061232
39.27 	0.069450 	4910 	0.068018
39.29 	0.062640 	4901 	0.060847
39.31 	0.062039 	4884 	0.060960
39.33 	0.062259 	4931 	0.061309
39.35 	0.065451 	4935 	0.063532
39.37 	0.062284 	4929 	0.061195
39.39 	0.067154 	4929 	0.066203
39.41 	0.064084 	4931 	0.063015
39.43 	0.062842 	4933 	0.061417
39.45 	0.065787 	4925 	0.064954
39.47 	0.062767 	4923 	0.060724
39.49 	0.065477 	4933 	0.064646
39.51 	0.067019 	4924 	0.066662
39.53 	0.067642 	4923 	0.066690
39.55 	0.066274 	4919 	0.064706
39.57 	0.066896 	4933 	0.064878
39.59 	0.071050 	4912 	0.069242
39.61 	0.065204 	4923 	0.063776
39.63 	0.074563 	4922 	0.073234
39.65 	0.066179 	4926 	0.064634
39.67 	0.067169 	4913 	0.065957
39.69 	0.064280 	4916 	0.062969
39.71 	0.067416 	4895 	0.066099
39.73 	0.062551 	4908 	0.060999
39.75 	0.066558 	4928 	0.064875
39.77 	0.070517 	4935 	0.069548
39.79 	0.071458 	4926 	0.070031
39.81 	0.064542 	4927 	0.063829
39.83 	0.069720 	4934 	0.069008
39.85 	0.068196 	4927 	0.066650
39.87 	0.062741 	4925 	0.061790
39.89 	0.070126 	4934 	0.069413
39.91 	0.062373 	4922 	0.061778
39.93 	0.063804 	4937 	0.062973
39.95 	0.062869 	4915 	0.061200
39.97 	0.066558 	4928 	0.065013
39.99 	0.068127 	4932 	0.066939
40.01 	0.063847 	4918 	0.063252
40.03 	0.069602 	4928 	0.068057
40.05 	0.068741 	4917 	0.068265
40.07 	0.068048 	4923 	0.067215
40.09 	0.069976 	4916 	0.069022
40.11 	0.059601 	4916 	0.058867
40.13 	0.065972 	4896 	0.065135
40.15 	0.057602 	4913 	0.056390
40.17 	0.065341 	4928 	0.064509
40.19 	0.057618 	4929 	0.056667
40.21 	0.064640 	4935 	0.063453
40.23 	0.059611 	4932 	0.059254
40.25 	0.058537 	4920 	0.057684
40.27 	0.059348 	4937 	0.058755
40.29 	0.066978 	4927 	0.065551
40.31 	0.067827 	4939 	0.066879
40.33 	0.060219 	4932 	0.059506
40.35 	0.054686 	4919 	0.053852
40.37 	0.063907 	4929 	0.062719
40.39 	0.062259 	4931 	0.061546
40.41 	0.063959 	4925 	0.062889
40.43 	0.059935 	4922 	0.058983
40.45 	0.066694 	4933 	0.065506
40.47 	0.060797 	4918 	0.060063
40.49 	0.059886 	4926 	0.058340
40.51 	0.063592 	4922 	0.062025
40.53 	0.064280 	4916 	0.063327
40.55 	0.057865 	4908 	0.057507
40.57 	0.060736 	4890 	0.059538
40.59 	0.064209 	4937 	0.063497
40.61 	0.060993 	4935 	0.059668
40.63 	0.062475 	4930 	0.060673
40.65 	0.061981 	4937 	0.061269
40.67 	0.059813 	4932 	0.058626
40.69 	0.060766 	4937 	0.059816
40.71 	0.058800 	4932 	0.057968
40.73 	0.061104 	4926 	0.059558
40.75 	0.061448 	4931 	0.060141
40.77 	0.058919 	4939 	0.058326
40.79 	0.064988 	4924 	0.064036
40.81 	0.065371 	4941 	0.063712
40.83 	0.061688 	4928 	0.061094
40.85 	0.066003 	4924 	0.064695
40.87 	0.060268 	4928 	0.059792
40.89 	0.068343 	4931 	0.066324
40.91 	0.061345 	4923 	0.060274
40.93 	0.064653 	4934 	0.063110
40.95 	0.057602 	4913 	0.056529
40.97 	0.069862 	4924 	0.068791
40.99 	0.065800 	4924 	0.064710
41.01 	0.060261 	4912 	0.058710
41.03 	0.063609 	4905 	0.063011
41.05 	0.064830 	4936 	0.063762
41.07 	0.061663 	4930 	0.060475
41.09 	0.057704 	4939 	0.056736
41.11 	0.059980 	4935 	0.059149
41.13 	0.057131 	4936 	0.055826
41.15 	0.056669 	4941 	0.056432
41.17 	0.065869 	4934 	0.064801
41.19 	0.063286 	4930 	0.062098
41.21 	0.062589 	4937 	0.061264
41.23 	0.061956 	4939 	0.060533
41.25 	0.060207 	4933 	0.058901
41.27 	0.060637 	4931 	0.059330
41.29 	0.060674 	4928 	0.059604
41.31 	0.061423 	4933 	0.060354
41.33 	0.059145 	4937 	0.058196
41.35 	0.058323 	4938 	0.057711
41.37 	0.062551 	4924 	0.061837
41.39 	0.068721 	4933 	0.067158
41.41 	0.053187 	4926 	0.052454
41.43 	0.056401 	4929 	0.055569
41.45 	0.064306 	4914 	0.063114
41.47 	0.060292 	4926 	0.059103
41.49 	0.069501 	4892 	0.067805
41.51 	0.057895 	4940 	0.057065
41.53 	0.056230 	4944 	0.055045
41.55 	0.060588 	4935 	0.059638
41.57 	0.060312 	4941 	0.059482
41.59 	0.056558 	4933 	0.056202
41.61 	0.058348 	4953 	0.057028
41.63 	0.060753 	4938 	0.059448
41.65 	0.061473 	4929 	0.060641
41.67 	0.060931 	4940 	0.059745
41.69 	0.056802 	4947 	0.056092
41.71 	0.061208 	4934 	0.060258
41.73 	0.064830 	4936 	0.062793
41.75 	0.059241 	4929 	0.057934
41.77 	0.061526 	4941 	0.060340
41.79 	0.061489 	4944 	0.060304
41.81 	0.061183 	4936 	0.060352
41.83 	0.060471 	4928 	0.059995
41.85 	0.058919 	4939 	0.057970
41.87 	0.064843 	4935 	0.063755
41.89 	0.065072 	4933 	0.063884
41.91 	0.057536 	4936 	0.056350
41.93 	0.058597 	4932 	0.056934
41.95 	0.061448 	4931 	0.061092
41.97 	0.066138 	4914 	0.064707
41.99 	0.062589 	4905 	0.061156
42.01 	0.053217 	4942 	0.052743
42.03 	0.058109 	4939 	0.056785
42.05 	0.055129 	4952 	0.054301
42.07 	0.062994 	4937 	0.062045
42.09 	0.053961 	4948 	0.053014
42.11 	0.057432 	4945 	0.056484
42.13 	0.058241 	4945 	0.057293
42.15 	0.052450 	4938 	0.051739
42.17 	0.053070 	4918 	0.051998
42.19 	0.054605 	4908 	0.053172
42.21 	0.058764 	4901 	0.058166
42.23 	0.054988 	4892 	0.054150
42.25 	0.055431 	4889 	0.054472
42.27 	0.054780 	4874 	0.054059
42.29 	0.054287 	4863 	0.053565
42.31 	0.057055 	4855 	0.055708
42.33 	0.059164 	4834 	0.058680
42.35 	0.059115 	4838 	0.058147
42.37 	0.057143 	4830 	0.056415
42.39 	0.058077 	4804 	0.057345
42.41 	0.055995 	4804 	0.054532
42.43 	0.062396 	4792 	0.061540
42.45 	0.055486 	4776 	0.054505
42.47 	0.056034 	4765 	0.054887
42.49 	0.055824 	4765 	0.054594
42.51 	0.053342 	4743 	0.052971
42.53 	0.057318 	4728 	0.056079
42.55 	0.060110 	4708 	0.058866
42.57 	0.060254 	4730 	0.059387
42.59 	0.061958 	4729 	0.061463
42.61 	0.051189 	4708 	0.050319
42.63 	0.049904 	4709 	0.049780
42.65 	0.056137 	4685 	0.055261
42.67 	0.055722 	4684 	0.053950
42.69 	0.052632 	4674 	0.052005
42.71 	0.056616 	4663 	0.055360
42.73 	0.057543 	4640 	0.056407
42.75 	0.053065 	4617 	0.052304
42.77 	0.057174 	4600 	0.055773
42.79 	0.060890 	4582 	0.058931
42.81 	0.060500 	4562 	0.059601
42.83 	0.054674 	4536 	0.054028
42.85 	0.056095 	4528 	0.055060
42.87 	0.058902 	4499 	0.058381
42.89 	0.053795 	4480 	0.053141
42.91 	0.057899 	4456 	0.057768
42.93 	0.051282 	4446 	0.050096
42.95 	0.057292 	4416 	0.056739
42.97 	0.058396 	4401 	0.057863
42.99 	0.056328 	4385 	0.055126
43.01 	0.055696 	4363 	0.054890
43.03 	0.057928 	4333 	0.056846
43.05 	0.057341 	4325 	0.056528
43.07 	0.058426 	4296 	0.057472
43.09 	0.057203 	4283 	0.056793
43.11 	0.058284 	4255 	0.057458
43.13 	0.054756 	4237 	0.053788
43.15 	0.055635 	4206 	0.054521
43.17 	0.053841 	4179 	0.052696
43.19 	0.051741 	4194 	0.051042
43.21 	0.056568 	4172 	0.055725
43.23 	0.052720 	4154 	0.052015
43.25 	0.056832 	4135 	0.055982
43.27 	0.055055 	4105 	0.054484
43.29 	0.063902 	4100 	0.062474
43.31 	0.056632 	4079 	0.055339
43.33 	0.055048 	4051 	0.054181
43.35 	0.059276 	4032 	0.057968
43.37 	0.055791 	4015 	0.055061
43.39 	0.054973 	4002 	0.054533
43.41 	0.064451 	3972 	0.062829
43.43 	0.053535 	3960 	0.052944
43.45 	0.048793 	3935 	0.048346
43.47 	0.052538 	3921 	0.051492
43.49 	0.058250 	3897 	0.057348
43.51 	0.054166 	3877 	0.053863
43.53 	0.054880 	3863 	0.054728
43.55 	0.048583 	2964 	0.048188
43.57 	0.054960 	2238 	0.053913
43.59 	0.056701 	1746 	0.055024
43.61 	0.059215 	1351 	0.058348
43.63 	0.040959 	1001 	0.040374
43.65 	0.050946 	687 	0.050093
43.67 	0.047809 	502 	0.046642
43.69 	0.068120 	367 	0.064928
43.71 	0.046025 	239 	0.046025
43.73 	0.041667 	120 	0.041667
43.75 	0.125000 	16 	0.125000