File: Example_Data/25SC_s1_0002.006.dat
#F C:\frames\spec\25SC_s1_0002.006
#C title =s:2 frm:6 25SC_s1
#C wavelength =0.15406

#S 1  fr_average C:\frames\spec\25SC_s1_0002.006 C:\win32app\speccom\mask.axs chi 0 180 0 360 0.02
#C 2 theta =0.000000 to 180 deg
#C   q   =0.000000 to 81.568 nm^-1
#C  chi  =0.000000 to 360 deg
#C collumns:
#C  1 position (2theta or chi in degrees)
#C  2 average intensity (sum of all counts in the region divided with number of pixels)
#C  3 Number of pixels in region)
#C  4 error (sum of sqrt(intensity) for all pixels divided by number)
#N 4
#L TTh  Int  N_pix  Err
32.99 	0.098361 	61 	0.098361
33.01 	0.075601 	873 	0.073478
33.03 	0.064702 	1391 	0.062596
33.05 	0.087649 	1757 	0.085982
33.07 	0.080976 	2050 	0.079261
33.09 	0.072007 	2347 	0.069761
33.11 	0.063978 	2579 	0.063070
33.13 	0.077336 	2793 	0.076078
33.15 	0.074358 	2999 	0.072991
33.17 	0.072790 	3201 	0.071143
33.19 	0.074506 	3342 	0.072725
33.21 	0.067811 	3436 	0.066448
33.23 	0.062163 	3523 	0.060279
33.25 	0.071429 	3612 	0.069969
33.27 	0.076860 	3630 	0.075569
33.29 	0.077303 	3648 	0.075536
33.31 	0.074590 	3660 	0.072510
33.33 	0.070808 	3686 	0.069378
33.35 	0.069302 	3694 	0.067874
33.37 	0.073506 	3714 	0.072086
33.39 	0.067042 	3729 	0.065942
33.41 	0.072460 	3740 	0.071050
33.43 	0.077373 	3761 	0.075167
33.45 	0.070766 	3773 	0.069188
33.47 	0.070563 	3798 	0.068070
33.49 	0.073248 	3809 	0.072325
33.51 	0.064220 	3815 	0.063452
33.53 	0.071596 	3841 	0.069766
33.55 	0.072339 	3843 	0.071730
33.57 	0.064483 	3877 	0.063727
33.59 	0.065464 	3880 	0.064256
33.61 	0.069583 	3909 	0.068084
33.63 	0.071192 	3919 	0.070295
33.65 	0.071737 	3931 	0.070396
33.67 	0.078655 	3954 	0.077321
33.69 	0.080192 	3953 	0.077229
33.71 	0.057610 	3975 	0.056223
33.73 	0.074925 	4004 	0.073023
33.75 	0.071018 	3999 	0.069406
33.77 	0.075031 	4025 	0.072218
33.79 	0.075724 	4041 	0.074250
33.81 	0.075037 	4038 	0.073296
33.83 	0.068148 	4050 	0.066823
33.85 	0.083679 	4099 	0.081369
33.87 	0.068353 	4111 	0.067213
33.89 	0.073041 	4121 	0.071311
33.91 	0.074476 	4149 	0.073205
33.93 	0.077572 	4151 	0.076019
33.95 	0.069601 	4181 	0.068340
33.97 	0.084487 	4190 	0.082110
33.99 	0.080952 	4200 	0.079558
34.01 	0.067648 	4213 	0.065539
34.03 	0.072809 	4244 	0.070831
34.05 	0.071261 	4252 	0.069332
34.07 	0.074742 	4268 	0.073370
34.09 	0.070229 	4286 	0.069249
34.11 	0.079963 	4302 	0.078329
34.13 	0.073352 	4308 	0.071992
34.15 	0.074579 	4331 	0.072685
34.17 	0.068276 	4350 	0.067199
34.19 	0.070839 	4362 	0.069630
34.21 	0.070236 	4371 	0.068739
34.23 	0.076941 	4393 	0.075340
34.25 	0.068801 	4404 	0.067870
34.27 	0.069199 	4422 	0.067742
34.29 	0.075761 	4435 	0.073912
34.31 	0.066846 	4458 	0.065532
34.33 	0.073362 	4471 	0.071789
34.35 	0.067574 	4484 	0.065745
34.37 	0.068359 	4491 	0.067446
34.39 	0.071524 	4502 	0.070223
34.41 	0.076889 	4526 	0.075465
34.43 	0.068738 	4539 	0.067534
34.45 	0.069460 	4535 	0.067888
34.47 	0.064024 	4592 	0.062749
34.49 	0.071133 	4597 	0.069966
34.51 	0.066001 	4606 	0.064983
34.53 	0.076890 	4643 	0.075376
34.55 	0.072367 	4643 	0.071232
34.57 	0.072103 	4660 	0.070720
34.59 	0.070374 	4675 	0.068871
34.61 	0.071322 	4697 	0.069701
34.63 	0.074947 	4710 	0.073579
34.65 	0.067782 	4721 	0.066541
34.67 	0.070871 	4741 	0.069265
34.69 	0.067943 	4754 	0.066464
34.71 	0.073856 	4766 	0.072873
34.73 	0.076457 	4787 	0.075233
34.75 	0.066764 	4808 	0.065180
34.77 	0.080946 	4818 	0.078860
34.79 	0.067164 	4824 	0.066193
34.81 	0.067905 	4845 	0.067180
34.83 	0.075895 	4862 	0.073846
34.85 	0.062436 	4869 	0.061112
34.87 	0.067173 	4868 	0.065489
34.89 	0.072716 	4882 	0.071636
34.91 	0.072306 	4882 	0.071087
34.93 	0.069198 	4899 	0.067265
34.95 	0.067894 	4890 	0.066456
34.97 	0.074867 	4902 	0.073314
34.99 	0.070656 	4897 	0.069459
35.01 	0.073939 	4923 	0.072511
35.03 	0.068986 	4943 	0.067683
35.05 	0.074591 	4947 	0.072814
35.07 	0.067004 	4940 	0.066293
35.09 	0.069857 	4953 	0.068181
35.11 	0.066101 	4947 	0.064542
35.13 	0.069786 	4958 	0.067995
35.15 	0.070286 	4937 	0.068506
35.17 	0.071169 	4946 	0.069984
35.19 	0.067179 	4942 	0.065401
35.21 	0.073205 	4945 	0.072001
35.23 	0.069767 	4945 	0.067853
35.25 	0.074246 	4943 	0.073279
35.27 	0.066087 	4948 	0.065495
35.29 	0.073610 	4945 	0.071951
35.31 	0.067302 	4933 	0.066589
35.33 	0.072830 	4943 	0.070728
35.35 	0.072643 	4942 	0.071576
35.37 	0.076331 	4939 	0.075027
35.39 	0.069161 	4945 	0.067957
35.41 	0.079781 	4926 	0.078116
35.43 	0.076424 	4933 	0.075118
35.45 	0.069475 	4937 	0.068526
35.47 	0.072196 	4931 	0.071226
35.49 	0.072709 	4910 	0.070919
35.51 	0.074706 	4926 	0.073140
35.53 	0.066680 	4949 	0.065733
35.55 	0.076441 	4945 	0.075375
35.57 	0.079668 	4933 	0.078480
35.59 	0.080688 	4945 	0.079010
35.61 	0.079320 	4942 	0.077542
35.63 	0.068177 	4943 	0.066755
35.65 	0.063296 	4945 	0.061875
35.67 	0.069810 	4942 	0.068585
35.69 	0.072786 	4946 	0.070773
35.71 	0.064614 	4937 	0.063309
35.73 	0.066856 	4936 	0.065194
35.75 	0.072399 	4931 	0.070974
35.77 	0.079176 	4951 	0.076928
35.79 	0.071573 	4932 	0.069673
35.81 	0.069329 	4933 	0.068498
35.83 	0.074808 	4946 	0.073150
35.85 	0.069098 	4935 	0.067892
35.87 	0.072111 	4923 	0.069592
35.89 	0.073368 	4934 	0.072775
35.91 	0.066572 	4927 	0.065859
35.93 	0.070225 	4927 	0.068680
35.95 	0.073826 	4917 	0.072257
35.97 	0.070033 	4912 	0.068463
35.99 	0.071067 	4939 	0.069762
36.01 	0.071400 	4930 	0.070211
36.03 	0.072021 	4943 	0.070362
36.05 	0.070981 	4945 	0.070152
36.07 	0.064386 	4939 	0.063199
36.09 	0.073279 	4940 	0.071856
36.11 	0.075269 	4929 	0.073367
36.13 	0.070214 	4942 	0.069385
36.15 	0.072687 	4939 	0.071600
36.17 	0.075939 	4925 	0.074274
36.19 	0.072874 	4940 	0.070740
36.21 	0.073037 	4929 	0.071730
36.23 	0.076393 	4935 	0.074474
36.25 	0.070431 	4941 	0.069246
36.27 	0.072487 	4925 	0.070565
36.29 	0.076252 	4931 	0.074570
36.31 	0.072646 	4928 	0.070982
36.33 	0.064058 	4933 	0.063108
36.35 	0.071617 	4929 	0.069815
36.37 	0.071704 	4923 	0.070514
36.39 	0.065840 	4921 	0.063936
36.41 	0.072508 	4896 	0.070833
36.43 	0.068791 	4928 	0.068315
36.45 	0.067343 	4930 	0.066155
36.47 	0.070908 	4936 	0.069326
36.49 	0.074868 	4942 	0.073308
36.51 	0.073181 	4933 	0.071993
36.53 	0.066559 	4943 	0.064831
36.55 	0.078953 	4927 	0.077526
36.57 	0.073166 	4934 	0.070890
36.59 	0.071674 	4939 	0.069994
36.61 	0.065504 	4931 	0.064078
36.63 	0.068140 	4931 	0.067071
36.65 	0.076440 	4932 	0.075371
36.67 	0.077485 	4930 	0.075584
36.69 	0.071211 	4929 	0.069429
36.71 	0.069295 	4921 	0.067133
36.73 	0.068832 	4925 	0.067643
36.75 	0.073827 	4944 	0.071931
36.77 	0.070746 	4919 	0.069317
36.79 	0.073969 	4921 	0.072878
36.81 	0.071400 	4916 	0.070446
36.83 	0.071821 	4915 	0.070610
36.85 	0.064720 	4898 	0.063524
36.87 	0.070995 	4944 	0.069573
36.89 	0.066721 	4916 	0.065629
36.91 	0.072253 	4941 	0.071186
36.93 	0.076673 	4930 	0.074614
36.95 	0.069532 	4933 	0.067968
36.97 	0.072558 	4934 	0.071588
36.99 	0.065856 	4935 	0.063581
37.01 	0.072167 	4933 	0.069753
37.03 	0.066003 	4924 	0.065408
37.05 	0.067384 	4927 	0.066076
37.07 	0.069098 	4935 	0.067417
37.09 	0.066356 	4928 	0.064810
37.11 	0.063019 	4935 	0.062288
37.13 	0.063769 	4924 	0.062461
37.15 	0.066205 	4909 	0.064892
37.17 	0.067288 	4934 	0.066081
37.19 	0.069645 	4925 	0.069169
37.21 	0.069961 	4917 	0.069127
37.23 	0.066084 	4918 	0.065131
37.25 	0.066992 	4911 	0.066635
37.27 	0.071107 	4894 	0.069791
37.29 	0.072819 	4930 	0.071869
37.31 	0.060993 	4935 	0.059569
37.33 	0.067790 	4927 	0.066720
37.35 	0.068044 	4938 	0.066857
37.37 	0.071037 	4927 	0.070086
37.39 	0.070168 	4931 	0.068624
37.41 	0.064490 	4931 	0.062570
37.43 	0.065693 	4932 	0.064724
37.45 	0.062348 	4924 	0.061138
37.47 	0.066545 	4929 	0.065238
37.49 	0.067439 	4923 	0.066011
37.51 	0.069937 	4933 	0.068631
37.53 	0.064647 	4919 	0.063218
37.55 	0.072617 	4930 	0.071171
37.57 	0.064772 	4925 	0.063582
37.59 	0.067548 	4915 	0.066118
37.61 	0.068265 	4922 	0.066837
37.63 	0.068307 	4919 	0.066758
37.65 	0.063237 	4918 	0.061292
37.67 	0.068923 	4904 	0.067968
37.69 	0.065741 	4898 	0.064784
37.71 	0.070400 	4929 	0.068786
37.73 	0.065733 	4929 	0.064426
37.75 	0.066599 	4940 	0.064801
37.77 	0.066667 	4920 	0.065119
37.79 	0.064097 	4930 	0.063246
37.81 	0.063856 	4933 	0.063005
37.83 	0.063618 	4920 	0.062546
37.85 	0.061357 	4922 	0.060286
37.87 	0.064386 	4939 	0.062606
37.89 	0.063959 	4925 	0.063484
37.91 	0.069168 	4930 	0.068337
37.93 	0.060378 	4919 	0.059049
37.95 	0.069295 	4921 	0.068104
37.97 	0.060256 	4929 	0.059424
37.99 	0.057614 	4912 	0.056779
38.01 	0.066558 	4928 	0.064360
38.03 	0.060705 	4909 	0.059611
38.05 	0.061117 	4925 	0.060165
38.07 	0.068446 	4909 	0.066875
38.09 	0.066626 	4878 	0.064704
38.11 	0.063425 	4935 	0.062831
38.13 	0.055702 	4937 	0.054258
38.15 	0.065270 	4918 	0.063841
38.17 	0.067546 	4930 	0.066714
38.19 	0.064909 	4930 	0.062988
38.21 	0.062970 	4923 	0.061046
38.23 	0.065816 	4938 	0.064966
38.25 	0.064063 	4917 	0.062634
38.27 	0.065314 	4930 	0.063869
38.29 	0.067831 	4924 	0.065908
38.31 	0.067181 	4927 	0.066111
38.33 	0.072096 	4924 	0.069717
38.35 	0.066964 	4928 	0.066013
38.37 	0.077173 	4924 	0.075389
38.39 	0.076390 	4909 	0.074839
38.41 	0.074142 	4923 	0.072119
38.43 	0.078316 	4916 	0.077005
38.45 	0.069540 	4918 	0.068349
38.47 	0.074995 	4907 	0.073682
38.49 	0.072996 	4877 	0.071194
38.51 	0.072182 	4932 	0.071231
38.53 	0.083587 	4929 	0.080972
38.55 	0.081645 	4936 	0.079984
38.57 	0.073532 	4923 	0.072699
38.59 	0.071284 	4924 	0.069975
38.61 	0.067869 	4936 	0.066188
38.63 	0.073314 	4924 	0.071629
38.65 	0.075234 	4918 	0.073805
38.67 	0.072514 	4937 	0.071090
38.69 	0.069078 	4922 	0.068126
38.71 	0.069050 	4924 	0.067384
38.73 	0.068727 	4918 	0.067655
38.75 	0.060483 	4927 	0.059770
38.77 	0.070282 	4923 	0.069568
38.79 	0.065059 	4934 	0.064228
38.81 	0.066164 	4912 	0.064833
38.83 	0.057939 	4919 	0.057066
38.85 	0.057410 	4912 	0.056576
38.87 	0.055386 	4911 	0.054312
38.89 	0.057995 	4897 	0.057636
38.91 	0.057312 	4903 	0.056953
38.93 	0.058121 	4938 	0.057409
38.95 	0.054697 	4918 	0.053844
38.97 	0.055161 	4931 	0.054924
38.99 	0.058740 	4937 	0.057554
39.01 	0.055917 	4918 	0.055202
39.03 	0.061816 	4934 	0.060747
39.05 	0.056650 	4925 	0.055817
39.07 	0.061535 	4924 	0.060465
39.09 	0.062360 	4923 	0.060813
39.11 	0.062462 	4931 	0.061512
39.13 	0.060532 	4923 	0.059342
39.15 	0.059613 	4915 	0.058541
39.17 	0.066235 	4937 	0.064811
39.19 	0.057149 	4917 	0.056672
39.21 	0.057230 	4910 	0.056872
39.23 	0.061117 	4925 	0.060165
39.25 	0.062779 	4922 	0.061708
39.27 	0.057841 	4910 	0.056409
39.29 	0.054479 	4901 	0.053881
39.31 	0.055078 	4884 	0.053998
39.33 	0.056581 	4931 	0.055987
39.35 	0.054306 	4935 	0.053238
39.37 	0.061676 	4929 	0.059774
39.39 	0.058227 	4929 	0.056801
39.41 	0.060434 	4931 	0.059464
39.43 	0.058180 	4933 	0.057329
39.45 	0.060305 	4925 	0.059234
39.47 	0.050376 	4923 	0.049404
39.49 	0.061018 	4933 	0.060186
39.51 	0.052803 	4924 	0.052307
39.53 	0.061954 	4923 	0.060487
39.55 	0.060378 	4919 	0.059902
39.57 	0.063856 	4933 	0.062787
39.59 	0.054764 	4912 	0.054168
39.61 	0.054235 	4923 	0.053521
39.63 	0.053230 	4922 	0.052516
39.65 	0.061510 	4926 	0.060916
39.67 	0.065540 	4913 	0.064090
39.69 	0.062653 	4916 	0.061342
39.71 	0.058427 	4895 	0.057829
39.73 	0.057661 	4908 	0.056806
39.75 	0.060877 	4928 	0.059569
39.77 	0.058359 	4935 	0.057053
39.79 	0.058871 	4926 	0.057801
39.81 	0.056424 	4927 	0.055473
39.83 	0.053506 	4934 	0.052675
39.85 	0.059265 	4927 	0.058195
39.87 	0.055431 	4925 	0.055075
39.89 	0.058979 	4934 	0.057791
39.91 	0.058106 	4922 	0.056540
39.93 	0.057120 	4937 	0.055676
39.95 	0.057986 	4915 	0.057032
39.97 	0.051136 	4928 	0.050661
39.99 	0.053528 	4932 	0.052578
40.01 	0.062424 	4918 	0.061114
40.03 	0.054383 	4928 	0.053076
40.05 	0.056945 	4917 	0.055853
40.07 	0.058704 	4923 	0.057990
40.09 	0.050651 	4916 	0.049817
40.11 	0.055126 	4916 	0.054769
40.13 	0.054534 	4896 	0.053218
40.15 	0.057399 	4913 	0.056683
40.17 	0.053977 	4928 	0.052551
40.19 	0.058430 	4929 	0.057954
40.21 	0.049037 	4935 	0.048444
40.23 	0.056772 	4932 	0.055822
40.25 	0.054675 	4920 	0.053484
40.27 	0.055297 	4937 	0.053992
40.29 	0.055815 	4927 	0.054983
40.31 	0.053655 	4939 	0.052568
40.33 	0.056569 	4932 	0.055500
40.35 	0.046961 	4919 	0.046484
40.37 	0.055995 	4929 	0.055044
40.39 	0.058000 	4931 	0.056694
40.41 	0.062132 	4925 	0.060824
40.43 	0.055872 	4922 	0.055277
40.45 	0.052909 	4933 	0.052434
40.47 	0.060187 	4918 	0.058857
40.49 	0.047706 	4926 	0.046854
40.51 	0.059935 	4922 	0.058507
40.53 	0.052278 	4916 	0.051325
40.55 	0.054197 	4908 	0.053223
40.57 	0.057260 	4890 	0.056541
40.59 	0.057322 	4937 	0.055898
40.61 	0.047416 	4935 	0.046823
40.63 	0.058012 	4930 	0.056804
40.65 	0.053676 	4937 	0.052846
40.67 	0.054745 	4932 	0.053913
40.69 	0.056917 	4937 	0.056067
40.71 	0.049878 	4932 	0.049166
40.73 	0.056638 	4926 	0.055330
40.75 	0.059217 	4931 	0.058386
40.77 	0.059729 	4939 	0.059136
40.79 	0.051178 	4924 	0.050445
40.81 	0.048371 	4941 	0.048134
40.83 	0.045860 	4928 	0.045266
40.85 	0.056052 	4924 	0.055576
40.87 	0.051745 	4928 	0.050794
40.89 	0.051714 	4931 	0.051120
40.91 	0.056470 	4923 	0.055399
40.93 	0.045805 	4934 	0.044974
40.95 	0.060045 	4913 	0.058714
40.97 	0.060520 	4924 	0.059925
40.99 	0.058489 	4924 	0.057894
41.01 	0.050896 	4912 	0.050419
41.03 	0.050561 	4905 	0.049366
41.05 	0.052269 	4936 	0.051438
41.07 	0.055984 	4930 	0.055390
41.09 	0.061753 	4939 	0.060548
41.11 	0.054509 	4935 	0.053796
41.13 	0.050243 	4936 	0.049650
41.15 	0.055050 	4941 	0.054319
41.17 	0.053709 	4934 	0.052403
41.19 	0.054564 	4930 	0.053831
41.21 	0.057322 	4937 	0.056729
41.23 	0.055072 	4939 	0.054242
41.25 	0.055544 	4933 	0.054832
41.27 	0.055567 	4931 	0.054379
41.29 	0.053571 	4928 	0.052383
41.31 	0.054733 	4933 	0.054377
41.33 	0.055297 	4937 	0.054328
41.35 	0.057918 	4938 	0.056732
41.37 	0.052803 	4924 	0.052089
41.39 	0.056761 	4933 	0.055098
41.41 	0.048112 	4926 	0.047280
41.43 	0.056198 	4929 	0.055485
41.45 	0.054538 	4914 	0.053704
41.47 	0.056638 	4926 	0.055568
41.49 	0.048855 	4892 	0.048496
41.51 	0.052429 	4940 	0.051599
41.53 	0.048948 	4944 	0.048830
41.55 	0.056332 	4935 	0.055620
41.57 	0.059300 	4941 	0.057877
41.59 	0.057166 	4933 	0.056335
41.61 	0.051080 	4953 	0.050489
41.63 	0.056298 	4938 	0.055468
41.65 	0.059241 	4929 	0.058290
41.67 	0.050607 	4940 	0.049777
41.69 	0.055791 	4947 	0.054963
41.71 	0.049655 	4934 	0.049181
41.73 	0.054498 	4936 	0.053786
41.75 	0.056604 	4929 	0.055772
41.77 	0.052216 	4941 	0.051505
41.79 	0.052387 	4944 	0.051320
41.81 	0.055916 	4936 	0.055085
41.83 	0.055398 	4928 	0.054209
41.85 	0.050618 	4939 	0.050025
41.87 	0.047416 	4935 	0.046467
41.89 	0.051895 	4933 	0.051163
41.91 	0.052472 	4936 	0.052116
41.93 	0.054947 	4932 	0.053878
41.95 	0.053539 	4931 	0.052826
41.97 	0.051893 	4914 	0.051058
41.99 	0.048318 	4905 	0.047462
42.01 	0.051194 	4942 	0.050838
42.03 	0.051225 	4939 	0.050276
42.05 	0.053110 	4952 	0.052637
42.07 	0.051043 	4937 	0.050924
42.09 	0.050323 	4948 	0.049731
42.11 	0.049343 	4945 	0.048731
42.13 	0.045703 	4945 	0.045110
42.15 	0.046780 	4938 	0.046068
42.17 	0.052867 	4918 	0.052391
42.19 	0.048900 	4908 	0.048661
42.21 	0.054887 	4901 	0.054050
42.23 	0.048855 	4892 	0.048137
42.25 	0.049090 	4889 	0.048611
42.27 	0.054370 	4874 	0.053509
42.29 	0.047913 	4863 	0.046708
42.31 	0.047580 	4855 	0.046353
42.33 	0.051303 	4834 	0.050091
42.35 	0.049194 	4838 	0.048346
42.37 	0.050311 	4830 	0.049219
42.39 	0.053705 	4804 	0.052852
42.41 	0.051415 	4804 	0.050684
42.43 	0.046536 	4792 	0.046047
42.45 	0.050461 	4776 	0.049725
42.47 	0.048059 	4765 	0.047178
42.49 	0.053515 	4765 	0.052409
42.51 	0.051023 	4743 	0.050158
42.53 	0.051607 	4728 	0.050864
42.55 	0.045030 	4708 	0.044781
42.57 	0.046089 	4730 	0.045717
42.59 	0.050328 	4729 	0.049832
42.61 	0.047791 	4708 	0.046920
42.63 	0.055001 	4709 	0.054503
42.65 	0.046745 	4685 	0.046245
42.67 	0.044620 	4684 	0.043995
42.69 	0.048353 	4674 	0.047580
42.71 	0.049968 	4663 	0.049088
42.73 	0.046121 	4640 	0.045616
42.75 	0.049166 	4617 	0.048659
42.77 	0.052174 	4600 	0.051792
42.79 	0.046486 	4582 	0.045719
42.81 	0.049759 	4562 	0.049374
42.83 	0.043871 	4536 	0.043484
42.85 	0.047482 	4528 	0.046835
42.87 	0.055790 	4499 	0.054749
42.89 	0.047321 	4480 	0.046537
42.91 	0.048250 	4456 	0.047329
42.93 	0.047233 	4446 	0.046838
42.95 	0.056159 	4416 	0.054966
42.97 	0.042263 	4401 	0.041864
42.99 	0.045610 	4385 	0.044809
43.01 	0.043777 	4363 	0.042703
43.03 	0.055389 	4333 	0.054848
43.05 	0.049942 	4325 	0.048859
43.07 	0.049581 	4296 	0.049581
43.09 	0.052066 	4283 	0.051519
43.11 	0.052409 	4255 	0.051308
43.13 	0.050035 	4237 	0.049621
43.15 	0.052782 	4206 	0.052225
43.17 	0.050491 	4179 	0.050070
43.19 	0.043395 	4194 	0.042697
43.21 	0.049616 	4172 	0.049055
43.23 	0.044295 	4154 	0.043731
43.25 	0.049335 	4135 	0.048627
43.27 	0.048721 	4105 	0.047579
43.29 	0.045122 	4100 	0.044693
43.31 	0.050748 	4079 	0.050030
43.33 	0.053814 	4051 	0.053235
43.35 	0.056300 	4032 	0.056154
43.37 	0.043088 	4015 	0.042213
43.39 	0.047226 	4002 	0.046934
43.41 	0.043051 	3972 	0.042166
43.43 	0.046970 	3960 	0.046822
43.45 	0.052605 	3935 	0.051861
43.47 	0.041826 	3921 	0.041228
43.49 	0.056710 	3897 	0.055959
43.51 	0.048491 	3877 	0.048038
43.53 	0.051256 	3863 	0.050952
43.55 	0.053644 	2964 	0.052656
43.57 	0.042895 	2238 	0.042634
43.59 	0.040664 	1746 	0.040664
43.61 	0.040711 	1351 	0.039843
43.63 	0.048951 	1001 	0.048366
43.65 	0.050946 	687 	0.050093
43.67 	0.053785 	502 	0.053785
43.69 	0.051771 	367 	0.051771
43.71 	0.058577 	239 	0.058577
43.73 	0.066667 	120 	0.066667
43.75 	0.000000 	16 	0.000000