File: Example_Data/25SC_s1_0018.002.dat
#F C:\frames\spec\25SC_s1_0018.002
#C title =s:18 frm:2 25SC_s1
#C wavelength =0.15406

#S 1  fr_average C:\frames\spec\25SC_s1_0018.002 C:\win32app\speccom\mask.axs chi 0 180 0 360 0.02
#C 2 theta =0.000000 to 180 deg
#C   q   =0.000000 to 81.568 nm^-1
#C  chi  =0.000000 to 360 deg
#C collumns:
#C  1 position (2theta or chi in degrees)
#C  2 average intensity (sum of all counts in the region divided with number of pixels)
#C  3 Number of pixels in region)
#C  4 error (sum of sqrt(intensity) for all pixels divided by number)
#N 4
#L TTh  Int  N_pix  Err
32.99 	0.065574 	61 	0.065574
33.01 	0.054983 	873 	0.054312
33.03 	0.064702 	1391 	0.063438
33.05 	0.055777 	1757 	0.053776
33.07 	0.058537 	2050 	0.056775
33.09 	0.063059 	2347 	0.062020
33.11 	0.059325 	2579 	0.058871
33.13 	0.066237 	2793 	0.064979
33.15 	0.057019 	2999 	0.055652
33.17 	0.059981 	3201 	0.058883
33.19 	0.052663 	3342 	0.051962
33.21 	0.051804 	3436 	0.051293
33.23 	0.060460 	3523 	0.059296
33.25 	0.061462 	3612 	0.060975
33.27 	0.057300 	3630 	0.056493
33.29 	0.056195 	3648 	0.055232
33.31 	0.065027 	3660 	0.064067
33.33 	0.058871 	3686 	0.058712
33.35 	0.062805 	3694 	0.061695
33.37 	0.062197 	3714 	0.061408
33.39 	0.054438 	3729 	0.053810
33.41 	0.064171 	3740 	0.063545
33.43 	0.056634 	3761 	0.055544
33.45 	0.062285 	3773 	0.060732
33.47 	0.063718 	3798 	0.062484
33.49 	0.052507 	3809 	0.052046
33.51 	0.060288 	3815 	0.059674
33.53 	0.060401 	3841 	0.059486
33.55 	0.056206 	3843 	0.054987
33.57 	0.060356 	3877 	0.058694
33.59 	0.055412 	3880 	0.053425
33.61 	0.056792 	3909 	0.056193
33.63 	0.065068 	3919 	0.064021
33.65 	0.059781 	3931 	0.059185
33.67 	0.058928 	3954 	0.057891
33.69 	0.055907 	3953 	0.055611
33.71 	0.053836 	3975 	0.053247
33.73 	0.061938 	4004 	0.061060
33.75 	0.051763 	3999 	0.051470
33.77 	0.062360 	4025 	0.061341
33.79 	0.060876 	4041 	0.060441
33.81 	0.052749 	4038 	0.052024
33.83 	0.056296 	4050 	0.055428
33.85 	0.061234 	4099 	0.059805
33.87 	0.064704 	4111 	0.063137
33.89 	0.064062 	4121 	0.062641
33.91 	0.054230 	4149 	0.053100
33.93 	0.055167 	4151 	0.054462
33.95 	0.061708 	4181 	0.060307
33.97 	0.062530 	4190 	0.060992
33.99 	0.063095 	4200 	0.061282
34.01 	0.062663 	4213 	0.061829
34.03 	0.057729 	4244 	0.057176
34.05 	0.057385 	4252 	0.056834
34.07 	0.056467 	4268 	0.055918
34.09 	0.057863 	4286 	0.056474
34.11 	0.060669 	4302 	0.059989
34.13 	0.060585 	4308 	0.060041
34.15 	0.064419 	4331 	0.063743
34.17 	0.057471 	4350 	0.056663
34.19 	0.064191 	4362 	0.063385
34.21 	0.057195 	4371 	0.055989
34.23 	0.054177 	4393 	0.053377
34.25 	0.059491 	4404 	0.058693
34.27 	0.056309 	4422 	0.056044
34.29 	0.059526 	4435 	0.058074
34.31 	0.052490 	4458 	0.051176
34.33 	0.057482 	4471 	0.056564
34.35 	0.055754 	4484 	0.054970
34.37 	0.062347 	4491 	0.061434
34.39 	0.056419 	4502 	0.055769
34.41 	0.059434 	4526 	0.058637
34.43 	0.052655 	4539 	0.051493
34.45 	0.059978 	4535 	0.059203
34.47 	0.056402 	4592 	0.055509
34.49 	0.051338 	4597 	0.050807
34.51 	0.052106 	4606 	0.051470
34.53 	0.053844 	4643 	0.052709
34.55 	0.062460 	4643 	0.061072
34.57 	0.053863 	4660 	0.052857
34.59 	0.054973 	4675 	0.053846
34.61 	0.051948 	4697 	0.051699
34.63 	0.059660 	4710 	0.057919
34.65 	0.060157 	4721 	0.059660
34.67 	0.054630 	4741 	0.053518
34.69 	0.061212 	4754 	0.059733
34.71 	0.050147 	4766 	0.049041
34.73 	0.058283 	4787 	0.057426
34.75 	0.051165 	4808 	0.050434
34.77 	0.055210 	4818 	0.054359
34.79 	0.051824 	4824 	0.051076
34.81 	0.059649 	4845 	0.058299
34.83 	0.059852 	4862 	0.058888
34.85 	0.057712 	4869 	0.056509
34.87 	0.061216 	4868 	0.060494
34.89 	0.059197 	4882 	0.058477
34.91 	0.060221 	4882 	0.059021
34.93 	0.062258 	4899 	0.060166
34.95 	0.053988 	4890 	0.053029
34.97 	0.057732 	4902 	0.056776
34.99 	0.058607 	4897 	0.057411
35.01 	0.055454 	4923 	0.054502
35.03 	0.060894 	4943 	0.060164
35.05 	0.054781 	4947 	0.054070
35.07 	0.054656 	4940 	0.053470
35.09 	0.056329 	4953 	0.055383
35.11 	0.054781 	4947 	0.053833
35.13 	0.052239 	4958 	0.051530
35.15 	0.057525 	4937 	0.055745
35.17 	0.065912 	4946 	0.065083
35.19 	0.058074 	4942 	0.057125
35.21 	0.052174 	4945 	0.051463
35.23 	0.051972 	4945 	0.051379
35.25 	0.057860 	4943 	0.056319
35.27 	0.059822 	4948 	0.058993
35.29 	0.052376 	4945 	0.051547
35.31 	0.058585 	4933 	0.057754
35.33 	0.059276 	4943 	0.058565
35.35 	0.054634 	4942 	0.053567
35.37 	0.055882 	4939 	0.055289
35.39 	0.055005 	4945 	0.054275
35.41 	0.063134 	4926 	0.061926
35.43 	0.056558 	4933 	0.055727
35.45 	0.055297 	4937 	0.054822
35.47 	0.058203 	4931 	0.056659
35.49 	0.055193 	4910 	0.054458
35.51 	0.058871 	4926 	0.057563
35.53 	0.055163 	4949 	0.054334
35.55 	0.060667 	4945 	0.059838
35.57 	0.053517 	4933 	0.052805
35.59 	0.062487 	4945 	0.062014
35.61 	0.056657 	4942 	0.055472
35.63 	0.053611 	4943 	0.053019
35.65 	0.057230 	4945 	0.056400
35.67 	0.053824 	4942 	0.052995
35.69 	0.060453 	4946 	0.059387
35.71 	0.052056 	4937 	0.051344
35.73 	0.059765 	4936 	0.058578
35.75 	0.057595 	4931 	0.056882
35.77 	0.054130 	4951 	0.052947
35.79 	0.061030 	4932 	0.059605
35.81 	0.061018 	4933 	0.060305
35.83 	0.050142 	4946 	0.049194
35.85 	0.060385 	4935 	0.059673
35.87 	0.055657 	4923 	0.054329
35.89 	0.058168 	4934 	0.056624
35.91 	0.055815 	4927 	0.055102
35.93 	0.058656 	4927 	0.057824
35.95 	0.061216 	4917 	0.059787
35.97 	0.052321 	4912 	0.051248
35.99 	0.059931 	4939 	0.058133
36.01 	0.058012 	4930 	0.057062
36.03 	0.056646 	4943 	0.056053
36.05 	0.056218 	4945 	0.055034
36.07 	0.060944 	4939 	0.059857
36.09 	0.057490 	4940 	0.056897
36.11 	0.054778 	4929 	0.053946
36.13 	0.055038 	4942 	0.054564
36.15 	0.056287 	4939 	0.054982
36.17 	0.060508 	4925 	0.059556
36.19 	0.058907 	4940 	0.057721
36.21 	0.056198 	4929 	0.055010
36.23 	0.052685 	4935 	0.051716
36.25 	0.061324 	4941 	0.060257
36.27 	0.052386 	4925 	0.052029
36.29 	0.060637 	4931 	0.059073
36.31 	0.058847 	4928 	0.058253
36.33 	0.063856 	4933 	0.062906
36.35 	0.057415 	4929 	0.056821
36.37 	0.060126 	4923 	0.059412
36.39 	0.050193 	4921 	0.049598
36.41 	0.061683 	4896 	0.060247
36.43 	0.061688 	4928 	0.061094
36.45 	0.052941 	4930 	0.051991
36.47 	0.062399 	4936 	0.060263
36.49 	0.053015 	4942 	0.052422
36.51 	0.058788 	4933 	0.058432
36.53 	0.056039 	4943 	0.055328
36.55 	0.058250 	4927 	0.056943
36.57 	0.058370 	4934 	0.057777
36.59 	0.050820 	4939 	0.049990
36.61 	0.051308 	4931 	0.050833
36.63 	0.054350 	4931 	0.053162
36.65 	0.053933 	4932 	0.052865
36.67 	0.052941 	4930 	0.051872
36.69 	0.058835 	4929 	0.057746
36.71 	0.053444 	4921 	0.052115
36.73 	0.048731 	4925 	0.047542
36.75 	0.054409 	4944 	0.053343
36.77 	0.057735 	4919 	0.057259
36.79 	0.060963 	4921 	0.060130
36.81 	0.058381 	4916 	0.057904
36.83 	0.059207 	4915 	0.058611
36.85 	0.057779 	4898 	0.056702
36.87 	0.053196 	4944 	0.051774
36.89 	0.053906 	4916 	0.052694
36.91 	0.056062 	4941 	0.055469
36.93 	0.049087 	4930 	0.048374
36.95 	0.056963 	4933 	0.055657
36.97 	0.055533 	4934 	0.055058
36.99 	0.053090 	4935 	0.052378
37.01 	0.060612 	4933 	0.059900
37.03 	0.058286 	4924 	0.057215
37.05 	0.061295 	4927 	0.060086
37.07 	0.064032 	4935 	0.062450
37.09 	0.054180 	4928 	0.053705
37.11 	0.056738 	4935 	0.056144
37.13 	0.053818 	4924 	0.052866
37.15 	0.050927 	4909 	0.049972
37.17 	0.050669 	4934 	0.049956
37.19 	0.056853 	4925 	0.056496
37.21 	0.058572 	4917 	0.057123
37.23 	0.043717 	4918 	0.043241
37.25 	0.057829 	4911 	0.056994
37.27 	0.054761 	4894 	0.053803
37.29 	0.052333 	4930 	0.051857
37.31 	0.057143 	4935 	0.056312
37.33 	0.053379 	4927 	0.052409
37.35 	0.053868 	4938 	0.053156
37.37 	0.053785 	4927 	0.053072
37.39 	0.051916 	4931 	0.051322
37.41 	0.054350 	4931 	0.053518
37.43 	0.050284 	4932 	0.049096
37.45 	0.057067 	4924 	0.056235
37.47 	0.054981 	4929 	0.054030
37.49 	0.053626 	4923 	0.052198
37.51 	0.047841 	4933 	0.047366
37.53 	0.056719 	4919 	0.055885
37.55 	0.056187 	4930 	0.055098
37.57 	0.055228 	4925 	0.054277
37.59 	0.053103 	4915 	0.052268
37.61 	0.056684 	4922 	0.055137
37.63 	0.051637 	4919 	0.051041
37.65 	0.047377 	4918 	0.046662
37.67 	0.057300 	4904 	0.056106
37.69 	0.049204 	4898 	0.048227
37.71 	0.055995 	4929 	0.054549
37.73 	0.049909 	4929 	0.048958
37.75 	0.045749 	4940 	0.045038
37.77 	0.053455 	4920 	0.052860
37.79 	0.055172 	4930 	0.054103
37.81 	0.057977 	4933 	0.056908
37.83 	0.055285 	4920 	0.054332
37.85 	0.059529 	4922 	0.058557
37.87 	0.055882 	4939 	0.054439
37.89 	0.054416 	4925 	0.054059
37.91 	0.055781 	4930 	0.055167
37.93 	0.052043 	4919 	0.051567
37.95 	0.048567 	4921 	0.048091
37.97 	0.052546 	4929 	0.051358
37.99 	0.051303 	4912 	0.050468
38.01 	0.054180 	4928 	0.053229
38.03 	0.053371 	4909 	0.052417
38.05 	0.052792 	4925 	0.051840
38.07 	0.055408 	4909 	0.054692
38.09 	0.049405 	4878 	0.048925
38.11 	0.053698 	4935 	0.053342
38.13 	0.050030 	4937 	0.049556
38.15 	0.052257 	4918 	0.051066
38.17 	0.053144 	4930 	0.052312
38.19 	0.056592 	4930 	0.055523
38.21 	0.055657 	4923 	0.055538
38.23 	0.052855 	4938 	0.051788
38.25 	0.061216 	4917 	0.059906
38.27 	0.058012 	4930 	0.056943
38.29 	0.055037 	4924 	0.054799
38.31 	0.051756 	4927 	0.050923
38.33 	0.050975 	4924 	0.049904
38.35 	0.058036 	4928 	0.057204
38.37 	0.058692 	4924 	0.057978
38.39 	0.060909 	4909 	0.060073
38.41 	0.058298 	4923 	0.057346
38.43 	0.060618 	4916 	0.059665
38.45 	0.056934 	4918 	0.056219
38.47 	0.063786 	4907 	0.063190
38.49 	0.060693 	4877 	0.060092
38.51 	0.062247 	4932 	0.061534
38.53 	0.066951 	4929 	0.066119
38.55 	0.065438 	4936 	0.064132
38.57 	0.059720 	4923 	0.059244
38.59 	0.060520 	4924 	0.058973
38.61 	0.063817 	4936 	0.062492
38.63 	0.059504 	4924 	0.058077
38.65 	0.064864 	4918 	0.062442
38.67 	0.062184 	4937 	0.060997
38.69 	0.064811 	4922 	0.063502
38.71 	0.058489 	4924 	0.057161
38.73 	0.058357 	4918 	0.057385
38.75 	0.061498 	4927 	0.060666
38.77 	0.054235 	4923 	0.053402
38.79 	0.056952 	4934 	0.056121
38.81 	0.050489 	4912 	0.049773
38.83 	0.061191 	4919 	0.060239
38.85 	0.052321 	4912 	0.051486
38.87 	0.054164 	4911 	0.053568
38.89 	0.053706 	4897 	0.053347
38.91 	0.051601 	4903 	0.051004
38.93 	0.050425 	4938 	0.049951
38.95 	0.050020 	4918 	0.048829
38.97 	0.054147 	4931 	0.053434
38.99 	0.057322 	4937 	0.056136
39.01 	0.046360 	4918 	0.045765
39.03 	0.049655 	4934 	0.049418
39.05 	0.046294 	4925 	0.046057
39.07 	0.045898 	4924 	0.045303
39.09 	0.048954 	4923 	0.048716
39.11 	0.048469 	4931 	0.046925
39.13 	0.045094 	4923 	0.043855
39.15 	0.056562 	4915 	0.055608
39.17 	0.052664 	4937 	0.051240
39.19 	0.049217 	4917 	0.048502
39.21 	0.045621 	4910 	0.045025
39.23 	0.049137 	4925 	0.048285
39.25 	0.041853 	4922 	0.041496
39.27 	0.042770 	4910 	0.042531
39.29 	0.044685 	4901 	0.044207
39.31 	0.041974 	4884 	0.041134
39.33 	0.049280 	4931 	0.048686
39.35 	0.045998 	4935 	0.045523
39.37 	0.046054 	4929 	0.045579
39.39 	0.046865 	4929 	0.046271
39.41 	0.045224 	4931 	0.044987
39.43 	0.045003 	4933 	0.044409
39.45 	0.047919 	4925 	0.046948
39.47 	0.045501 	4923 	0.044549
39.49 	0.043989 	4933 	0.043514
39.51 	0.051584 	4924 	0.050989
39.53 	0.042860 	4923 	0.042503
39.55 	0.047367 	4919 	0.046891
39.57 	0.045408 	4933 	0.044696
39.59 	0.047842 	4912 	0.047246
39.61 	0.043876 	4923 	0.043400
39.63 	0.045713 	4922 	0.045475
39.65 	0.042022 	4926 	0.041071
39.67 	0.042744 	4913 	0.041890
39.69 	0.047193 	4916 	0.046716
39.71 	0.047804 	4895 	0.047066
39.73 	0.048492 	4908 	0.048254
39.75 	0.040381 	4928 	0.040144
39.77 	0.044985 	4935 	0.044273
39.79 	0.044255 	4926 	0.043898
39.81 	0.045464 	4927 	0.045107
39.83 	0.045399 	4934 	0.044449
39.85 	0.042825 	4927 	0.042350
39.87 	0.044061 	4925 	0.043823
39.89 	0.044386 	4934 	0.043792
39.91 	0.043681 	4922 	0.042729
39.93 	0.046790 	4937 	0.046196
39.95 	0.047202 	4915 	0.046229
39.97 	0.052963 	4928 	0.051893
39.99 	0.041363 	4932 	0.040769
40.01 	0.050427 	4918 	0.049831
40.03 	0.046266 	4928 	0.045196
40.05 	0.044743 	4917 	0.043909
40.07 	0.044485 	4923 	0.043890
40.09 	0.048210 	4916 	0.047972
40.11 	0.042718 	4916 	0.042241
40.13 	0.046977 	4896 	0.046738
40.15 	0.046815 	4913 	0.046338
40.17 	0.043425 	4928 	0.043069
40.19 	0.046865 	4929 	0.046271
40.21 	0.046201 	4935 	0.045488
40.23 	0.042782 	4932 	0.042544
40.25 	0.041463 	4920 	0.041106
40.27 	0.041321 	4937 	0.040965
40.29 	0.043840 	4927 	0.043483
40.31 	0.043329 	4939 	0.042973
40.33 	0.038524 	4932 	0.038049
40.35 	0.044115 	4919 	0.043281
40.37 	0.040779 	4929 	0.040423
40.39 	0.040965 	4931 	0.040609
40.41 	0.048528 	4925 	0.047695
40.43 	0.046119 	4922 	0.045286
40.45 	0.047436 	4933 	0.047079
40.47 	0.043310 	4918 	0.042953
40.49 	0.040804 	4926 	0.040328
40.51 	0.043072 	4922 	0.042834
40.53 	0.041294 	4916 	0.040917
40.55 	0.038712 	4908 	0.038354
40.57 	0.047035 	4890 	0.046675
40.59 	0.042739 	4937 	0.042264
40.61 	0.042756 	4935 	0.042518
40.63 	0.044625 	4930 	0.043674
40.65 	0.038485 	4937 	0.038366
40.67 	0.042782 	4932 	0.042069
40.69 	0.045777 	4937 	0.045184
40.71 	0.042174 	4932 	0.041560
40.73 	0.043037 	4926 	0.042799
40.75 	0.042993 	4931 	0.042518
40.77 	0.033003 	4939 	0.032765
40.79 	0.035743 	4924 	0.035148
40.81 	0.036430 	4941 	0.035956
40.83 	0.042614 	4928 	0.042257
40.85 	0.043664 	4924 	0.043188
40.87 	0.042208 	4928 	0.041732
40.89 	0.039951 	4931 	0.039714
40.91 	0.042048 	4923 	0.041572
40.93 	0.043981 	4934 	0.042912
40.95 	0.038673 	4913 	0.038196
40.97 	0.040617 	4924 	0.040260
40.99 	0.042445 	4924 	0.042326
41.01 	0.045603 	4912 	0.044887
41.03 	0.046075 	4905 	0.044762
41.05 	0.044976 	4936 	0.044145
41.07 	0.045842 	4930 	0.045485
41.09 	0.039887 	4939 	0.038938
41.11 	0.043161 	4935 	0.042686
41.13 	0.043963 	4936 	0.043488
41.15 	0.042502 	4941 	0.041909
41.17 	0.040738 	4934 	0.040263
41.19 	0.044422 	4930 	0.043828
41.21 	0.045979 	4937 	0.045386
41.23 	0.045353 	4939 	0.044879
41.25 	0.043989 	4933 	0.043752
41.27 	0.041168 	4931 	0.040931
41.29 	0.040787 	4928 	0.040193
41.31 	0.047030 	4933 	0.046674
41.33 	0.043751 	4937 	0.043277
41.35 	0.041312 	4938 	0.040719
41.37 	0.047725 	4924 	0.046873
41.39 	0.038111 	4933 	0.037517
41.41 	0.043240 	4926 	0.042745
41.43 	0.041793 	4929 	0.041318
41.45 	0.040090 	4914 	0.039255
41.47 	0.040601 	4926 	0.039650
41.49 	0.040065 	4892 	0.039586
41.51 	0.035020 	4940 	0.034665
41.53 	0.037419 	4944 	0.036827
41.55 	0.038906 	4935 	0.038312
41.57 	0.037037 	4941 	0.036800
41.59 	0.040949 	4933 	0.040236
41.61 	0.043408 	4953 	0.043053
41.63 	0.042730 	4938 	0.042137
41.65 	0.049097 	4929 	0.048622
41.67 	0.036032 	4940 	0.035795
41.69 	0.042450 	4947 	0.041621
41.71 	0.039724 	4934 	0.039012
41.73 	0.042342 	4936 	0.041630
41.75 	0.044634 	4929 	0.044158
41.77 	0.038251 	4941 	0.037540
41.79 	0.040049 	4944 	0.039812
41.81 	0.037480 	4936 	0.037124
41.83 	0.039367 	4928 	0.039129
41.85 	0.042519 	4939 	0.041807
41.87 	0.036879 	4935 	0.036405
41.89 	0.040543 	4933 	0.040187
41.91 	0.045583 	4936 	0.044990
41.93 	0.042985 	4932 	0.042509
41.95 	0.041777 	4931 	0.041301
41.97 	0.043956 	4914 	0.043122
41.99 	0.041998 	4905 	0.041401
42.01 	0.037434 	4942 	0.036723
42.03 	0.036647 	4939 	0.036173
42.05 	0.038368 	4952 	0.037540
42.07 	0.039700 	4937 	0.039463
42.09 	0.037995 	4948 	0.037029
42.11 	0.040040 	4945 	0.039567
42.13 	0.041254 	4945 	0.040661
42.15 	0.043135 	4938 	0.042522
42.17 	0.039650 	4918 	0.039650
42.19 	0.036267 	4908 	0.036148
42.21 	0.037543 	4901 	0.037065
42.23 	0.039248 	4892 	0.039128
42.25 	0.038658 	4889 	0.038299
42.27 	0.040008 	4874 	0.039388
42.29 	0.039893 	4863 	0.039411
42.31 	0.040371 	4855 	0.039245
42.33 	0.036616 	4834 	0.036494
42.35 	0.041339 	4838 	0.040734
42.37 	0.034576 	4830 	0.034333
42.39 	0.038301 	4804 	0.037692
42.41 	0.034971 	4804 	0.034483
42.43 	0.041319 	4792 	0.040463
42.45 	0.037270 	4776 	0.037024
42.47 	0.039244 	4765 	0.038507
42.49 	0.045750 	4765 	0.045259
42.51 	0.041535 	4743 	0.041164
42.53 	0.046108 	4728 	0.045737
42.55 	0.046729 	4708 	0.045858
42.57 	0.038055 	4730 	0.037683
42.59 	0.038697 	4729 	0.038574
42.61 	0.039295 	4708 	0.039046
42.63 	0.041622 	4709 	0.041498
42.65 	0.042049 	4685 	0.041674
42.67 	0.036294 	4684 	0.035919
42.69 	0.038939 	4674 	0.038312
42.71 	0.037958 	4663 	0.037582
42.73 	0.035991 	4640 	0.035739
42.75 	0.037254 	4617 	0.037000
42.77 	0.039565 	4600 	0.039183
42.79 	0.039502 	4582 	0.038735
42.81 	0.034853 	4562 	0.034596
42.83 	0.039903 	4536 	0.039516
42.85 	0.033790 	4528 	0.033272
42.87 	0.038231 	4499 	0.037688
42.89 	0.036384 	4480 	0.035599
42.91 	0.038600 	4456 	0.038337
42.93 	0.041161 	4446 	0.040107
42.95 	0.040987 	4416 	0.040589
42.97 	0.035219 	4401 	0.034687
42.99 	0.038540 	4385 	0.038273
43.01 	0.033922 	4363 	0.033653
43.03 	0.039465 	4333 	0.039059
43.05 	0.040231 	4325 	0.039419
43.07 	0.038873 	4296 	0.038601
43.09 	0.037124 	4283 	0.036576
43.11 	0.036898 	4255 	0.036485
43.13 	0.037055 	4237 	0.036640
43.15 	0.040418 	4206 	0.040001
43.17 	0.038765 	4179 	0.038205
43.19 	0.036242 	4194 	0.036103
43.21 	0.038111 	4172 	0.038111
43.23 	0.039239 	4154 	0.039098
43.25 	0.040629 	4135 	0.039920
43.27 	0.036541 	4105 	0.036255
43.29 	0.033171 	4100 	0.032885
43.31 	0.034567 	4079 	0.034280
43.33 	0.034806 	4051 	0.034806
43.35 	0.036706 	4032 	0.036561
43.37 	0.036862 	4015 	0.035840
43.39 	0.039730 	4002 	0.039437
43.41 	0.034995 	3972 	0.034847
43.43 	0.040909 	3960 	0.040613
43.45 	0.035070 	3935 	0.034772
43.47 	0.041316 	3921 	0.041017
43.49 	0.039004 	3897 	0.038553
43.51 	0.032757 	3877 	0.032606
43.53 	0.037794 	3863 	0.037491
43.55 	0.032389 	2964 	0.032389
43.57 	0.034853 	2238 	0.034591
43.59 	0.030928 	1746 	0.030928
43.61 	0.051813 	1351 	0.050946
43.63 	0.038961 	1001 	0.038961
43.65 	0.036390 	687 	0.036390
43.67 	0.039841 	502 	0.039841
43.69 	0.021798 	367 	0.021798
43.71 	0.041841 	239 	0.041841
43.73 	0.008333 	120 	0.008333
43.75 	0.125000 	16 	0.125000