File: Example_Data/25SC_s1_0049.000.dat
#F C:\frames\spec\25SC_s1_0049.000
#C title =s:49 frm:0 25SC_s1
#C wavelength =0.15406

#S 1  fr_average C:\frames\spec\25SC_s1_0049.000 C:\win32app\speccom\mask.axs chi 0 180 0 360 0.02
#C 2 theta =0.000000 to 180 deg
#C   q   =0.000000 to 81.568 nm^-1
#C  chi  =0.000000 to 360 deg
#C collumns:
#C  1 position (2theta or chi in degrees)
#C  2 average intensity (sum of all counts in the region divided with number of pixels)
#C  3 Number of pixels in region)
#C  4 error (sum of sqrt(intensity) for all pixels divided by number)
#N 4
#L TTh  Int  N_pix  Err
32.99 	0.016393 	61 	0.016393
33.01 	0.061856 	873 	0.061185
33.03 	0.073329 	1391 	0.072065
33.05 	0.062038 	1757 	0.061704
33.07 	0.068293 	2050 	0.066292
33.09 	0.060077 	2347 	0.058829
33.11 	0.066305 	2579 	0.065132
33.13 	0.059434 	2793 	0.058386
33.15 	0.062688 	2999 	0.061906
33.17 	0.053733 	3201 	0.052239
33.19 	0.064632 	3342 	0.062529
33.21 	0.060536 	3436 	0.060365
33.23 	0.064150 	3523 	0.062986
33.25 	0.063123 	3612 	0.062474
33.27 	0.060055 	3630 	0.059383
33.29 	0.057292 	3648 	0.056649
33.31 	0.057104 	3660 	0.055343
33.33 	0.060499 	3686 	0.059705
33.35 	0.067136 	3694 	0.064731
33.37 	0.060851 	3714 	0.059904
33.39 	0.051488 	3729 	0.050546
33.41 	0.053743 	3740 	0.052804
33.43 	0.064876 	3761 	0.063449
33.45 	0.060429 	3773 	0.059343
33.47 	0.061875 	3798 	0.060178
33.49 	0.055920 	3809 	0.054665
33.51 	0.061599 	3815 	0.060985
33.53 	0.063004 	3841 	0.062242
33.55 	0.052043 	3843 	0.051738
33.57 	0.058550 	3877 	0.057795
33.59 	0.058763 	3880 	0.057555
33.61 	0.050908 	3909 	0.049859
33.63 	0.059199 	3919 	0.058003
33.65 	0.056729 	3931 	0.055834
33.67 	0.054375 	3954 	0.053486
33.69 	0.060207 	3953 	0.059911
33.71 	0.057610 	3975 	0.056726
33.73 	0.061688 	4004 	0.060664
33.75 	0.055514 	3999 	0.055221
33.77 	0.056894 	4025 	0.056458
33.79 	0.051720 	4041 	0.051140
33.81 	0.066617 	4038 	0.065021
33.83 	0.060741 	4050 	0.059005
33.85 	0.056111 	4099 	0.055540
33.87 	0.058137 	4111 	0.056997
33.89 	0.061393 	4121 	0.060256
33.91 	0.054953 	4149 	0.053824
33.93 	0.062154 	4151 	0.061025
33.95 	0.059077 	4181 	0.058797
33.97 	0.061337 	4190 	0.060637
33.99 	0.053571 	4200 	0.052572
34.01 	0.059340 	4213 	0.058367
34.03 	0.054194 	4244 	0.053090
34.05 	0.059737 	4252 	0.058359
34.07 	0.061153 	4268 	0.060192
34.09 	0.056930 	4286 	0.055426
34.11 	0.059042 	4302 	0.057272
34.13 	0.059656 	4308 	0.059249
34.15 	0.052413 	4331 	0.051466
34.17 	0.057931 	4350 	0.056988
34.19 	0.059147 	4362 	0.058207
34.21 	0.053077 	4371 	0.052273
34.23 	0.058275 	4393 	0.057186
34.25 	0.057221 	4404 	0.055869
34.27 	0.058345 	4422 	0.057417
34.29 	0.055468 	4435 	0.054675
34.31 	0.061687 	4458 	0.060504
34.33 	0.060389 	4471 	0.058686
34.35 	0.051517 	4484 	0.051125
34.37 	0.056780 	4491 	0.055867
34.39 	0.057752 	4502 	0.056841
34.41 	0.061423 	4526 	0.059870
34.43 	0.058603 	4539 	0.057571
34.45 	0.060860 	4535 	0.059568
34.47 	0.058362 	4592 	0.057087
34.49 	0.055036 	4597 	0.054144
34.51 	0.062744 	4606 	0.061854
34.53 	0.051691 	4643 	0.050681
34.55 	0.051906 	4643 	0.051149
34.57 	0.058584 	4660 	0.057452
34.59 	0.057540 	4675 	0.056788
34.61 	0.052161 	4697 	0.051039
34.63 	0.054777 	4710 	0.053264
34.65 	0.056344 	4721 	0.055103
34.67 	0.058216 	4741 	0.056856
34.69 	0.053849 	4754 	0.052864
34.71 	0.059169 	4766 	0.058145
34.73 	0.055567 	4787 	0.054466
34.75 	0.063020 	4808 	0.062167
34.77 	0.058323 	4818 	0.057472
34.79 	0.055763 	4824 	0.055156
34.81 	0.061300 	4845 	0.059970
34.83 	0.054504 	4862 	0.053661
34.85 	0.054015 	4869 	0.053053
34.87 	0.053205 	4868 	0.052583
34.89 	0.060426 	4882 	0.058866
34.91 	0.057149 	4882 	0.056069
34.93 	0.053684 	4899 	0.052967
34.95 	0.055828 	4890 	0.054970
34.97 	0.049572 	4902 	0.048596
34.99 	0.052685 	4897 	0.051469
35.01 	0.057282 	4923 	0.056687
35.03 	0.056241 	4943 	0.054938
35.05 	0.056196 	4947 	0.055485
35.07 	0.052429 	4940 	0.051718
35.09 	0.054714 	4953 	0.054241
35.11 	0.058217 	4947 	0.056796
35.13 	0.054861 	4958 	0.053916
35.15 	0.064817 	4937 	0.063729
35.17 	0.061464 	4946 	0.060004
35.19 	0.057062 	4942 	0.055640
35.21 	0.055612 	4945 	0.054664
35.23 	0.061274 	4945 	0.060208
35.25 	0.059478 	4943 	0.058135
35.27 	0.059822 	4948 	0.058757
35.29 	0.056825 	4945 	0.055522
35.31 	0.056355 	4933 	0.055405
35.33 	0.050779 	4943 	0.050522
35.35 	0.057062 	4942 	0.056588
35.37 	0.054667 	4939 	0.053955
35.39 	0.051163 	4945 	0.050807
35.41 	0.061104 	4926 	0.060629
35.43 	0.060815 	4933 	0.059627
35.45 	0.052866 	4937 	0.051680
35.47 	0.056378 	4931 	0.055784
35.49 	0.049898 	4910 	0.049302
35.51 	0.053187 	4926 	0.052117
35.53 	0.064457 	4949 	0.063254
35.55 	0.050152 	4945 	0.049678
35.57 	0.055544 	4933 	0.054951
35.59 	0.063296 	4945 	0.062112
35.61 	0.057467 	4942 	0.056755
35.63 	0.061703 	4943 	0.060400
35.65 	0.050758 	4945 	0.049692
35.67 	0.059288 	4942 	0.058458
35.69 	0.055600 	4946 	0.054535
35.71 	0.056512 	4937 	0.055326
35.73 	0.057942 	4936 	0.057230
35.75 	0.057392 	4931 	0.056679
35.77 	0.061402 	4951 	0.060810
35.79 	0.065288 	4932 	0.064219
35.81 	0.051693 	4933 	0.051218
35.83 	0.054590 	4946 	0.054234
35.85 	0.059169 	4935 	0.058338
35.87 	0.056470 	4923 	0.055756
35.89 	0.054317 	4934 	0.053348
35.91 	0.057642 	4927 	0.056790
35.93 	0.050741 	4927 	0.050027
35.95 	0.056539 	4917 	0.055824
35.97 	0.058225 	4912 	0.056655
35.99 	0.055882 	4939 	0.055289
36.01 	0.053144 	4930 	0.052193
36.03 	0.057253 	4943 	0.055831
36.05 	0.060870 	4945 	0.059922
36.07 	0.056287 	4939 	0.055101
36.09 	0.054656 	4940 	0.054182
36.11 	0.061067 	4929 	0.059522
36.13 	0.054027 	4942 	0.053553
36.15 	0.055679 	4939 	0.055086
36.17 	0.054010 	4925 	0.052821
36.19 	0.059109 	4940 	0.058279
36.21 	0.060256 	4929 	0.059661
36.23 	0.059777 	4935 	0.058808
36.25 	0.063752 	4941 	0.062567
36.27 	0.060508 	4925 	0.059794
36.29 	0.059623 	4931 	0.058672
36.31 	0.058442 	4928 	0.057372
36.33 	0.061829 	4933 	0.060997
36.35 	0.059647 	4929 	0.058102
36.37 	0.055048 	4923 	0.054334
36.39 	0.057915 	4921 	0.056844
36.41 	0.053105 	4896 	0.052267
36.43 	0.065544 	4928 	0.063999
36.45 	0.061258 	4930 	0.060307
36.47 	0.063614 	4936 	0.061558
36.49 	0.054027 	4942 	0.052486
36.51 	0.059599 	4933 	0.059005
36.53 	0.063524 	4943 	0.061964
36.55 	0.067587 	4927 	0.065566
36.57 	0.051682 	4934 	0.051069
36.59 	0.057502 	4939 	0.056296
36.61 	0.057798 	4931 	0.057085
36.63 	0.062665 	4931 	0.061120
36.65 	0.058191 	4932 	0.057360
36.67 	0.058621 	4930 	0.057908
36.69 	0.054575 	4929 	0.053862
36.71 	0.062182 	4921 	0.061825
36.73 	0.054010 	4925 	0.052702
36.75 	0.064927 	4944 	0.063861
36.77 	0.059565 	4919 	0.058374
36.79 	0.057712 	4921 	0.056521
36.81 	0.065907 	4916 	0.064120
36.83 	0.059817 	4915 	0.058983
36.85 	0.058391 	4898 	0.057076
36.87 	0.060073 	4944 	0.058513
36.89 	0.057364 	4916 	0.056291
36.91 	0.060514 	4941 	0.059091
36.93 	0.056795 	4930 	0.055963
36.95 	0.058788 	4933 	0.057719
36.97 	0.054722 	4934 	0.053891
36.99 	0.056332 	4935 	0.055501
37.01 	0.061829 	4933 	0.060641
37.03 	0.054021 	4924 	0.053188
37.05 	0.058859 	4927 	0.058027
37.07 	0.065046 	4935 	0.064215
37.09 	0.059862 	4928 	0.059030
37.11 	0.059169 	4935 	0.057863
37.13 	0.055646 	4924 	0.055051
37.15 	0.057038 	4909 	0.056203
37.17 	0.063032 	4934 	0.062082
37.19 	0.064162 	4925 	0.062854
37.21 	0.059793 	4917 	0.058839
37.23 	0.059577 	4918 	0.058228
37.25 	0.053757 	4911 	0.052564
37.27 	0.050470 	4894 	0.049871
37.29 	0.058418 	4930 	0.057943
37.31 	0.056940 	4935 	0.056584
37.33 	0.058859 	4927 	0.057789
37.35 	0.053463 	4938 	0.052514
37.37 	0.059671 	4927 	0.058482
37.39 	0.057595 	4931 	0.056288
37.41 	0.053944 	4931 	0.053113
37.43 	0.057178 	4932 	0.056465
37.45 	0.063769 	4924 	0.062580
37.47 	0.053155 	4929 	0.052204
37.49 	0.054845 	4923 	0.054111
37.51 	0.062031 	4933 	0.060844
37.53 	0.060988 	4919 	0.059678
37.55 	0.056592 	4930 	0.056117
37.57 	0.059898 	4925 	0.058709
37.59 	0.064496 	4915 	0.063166
37.61 	0.061967 	4922 	0.060300
37.63 	0.056312 	4919 	0.055598
37.65 	0.061204 	4918 	0.060013
37.67 	0.053630 	4904 	0.052913
37.69 	0.059820 	4898 	0.058844
37.71 	0.061676 	4929 	0.060606
37.73 	0.057010 	4929 	0.055940
37.75 	0.051822 	4940 	0.051110
37.77 	0.053049 	4920 	0.052215
37.79 	0.053550 	4930 	0.052956
37.81 	0.053517 	4933 	0.052330
37.83 	0.053049 	4920 	0.052334
37.85 	0.053637 	4922 	0.052685
37.87 	0.055882 	4939 	0.055526
37.89 	0.059492 	4925 	0.058303
37.91 	0.056795 	4930 	0.056082
37.93 	0.056516 	4919 	0.056039
37.95 	0.061370 	4921 	0.060179
37.97 	0.053561 	4929 	0.052372
37.99 	0.056596 	4912 	0.055642
38.01 	0.055398 	4928 	0.054209
38.03 	0.051334 	4909 	0.050499
38.05 	0.058883 	4925 	0.057694
38.07 	0.055408 	4909 	0.054573
38.09 	0.051046 	4878 	0.050565
38.11 	0.058764 	4935 	0.057696
38.13 	0.064209 	4937 	0.062548
38.15 	0.059780 	4918 	0.058589
38.17 	0.064300 	4930 	0.063211
38.19 	0.061866 	4930 	0.061391
38.21 	0.068251 	4923 	0.067299
38.23 	0.062981 	4938 	0.062388
38.25 	0.069351 	4917 	0.067545
38.27 	0.069168 	4930 	0.067980
38.29 	0.073721 	4924 	0.072035
38.31 	0.070834 	4927 	0.069170
38.33 	0.076158 	4924 	0.074096
38.35 	0.084213 	4928 	0.081479
38.37 	0.079813 	4924 	0.077533
38.39 	0.077001 	4909 	0.075092
38.41 	0.075361 	4923 	0.074171
38.43 	0.088893 	4916 	0.087344
38.45 	0.083367 	4918 	0.081342
38.47 	0.089260 	4907 	0.086456
38.49 	0.084068 	4877 	0.082146
38.51 	0.091241 	4932 	0.088846
38.53 	0.082370 	4929 	0.080468
38.55 	0.082253 	4936 	0.080334
38.57 	0.071704 	4923 	0.070752
38.59 	0.070471 	4924 	0.069163
38.61 	0.077593 	4936 	0.076406
38.63 	0.070065 	4924 	0.068162
38.65 	0.065067 	4918 	0.063618
38.67 	0.058943 	4937 	0.057519
38.69 	0.071312 	4922 	0.070003
38.71 	0.066613 	4924 	0.065423
38.73 	0.061407 	4918 	0.060435
38.75 	0.061295 	4927 	0.059968
38.77 	0.058501 	4923 	0.057549
38.79 	0.057965 	4934 	0.057015
38.81 	0.051507 	4912 	0.051029
38.83 	0.054076 	4919 	0.053600
38.85 	0.055578 	4912 	0.054863
38.87 	0.049277 	4911 	0.048919
38.89 	0.054115 	4897 	0.053158
38.91 	0.052417 	4903 	0.051083
38.93 	0.048603 	4938 	0.047891
38.95 	0.053477 	4918 	0.052881
38.97 	0.045021 	4931 	0.044665
38.99 	0.047600 	4937 	0.047125
39.01 	0.053274 	4918 	0.052797
39.03 	0.046818 	4934 	0.046462
39.05 	0.048934 	4925 	0.047626
39.07 	0.043664 	4924 	0.043188
39.09 	0.050376 	4923 	0.049900
39.11 	0.049280 	4931 	0.048310
39.13 	0.048954 	4923 	0.048359
39.15 	0.050458 	4915 	0.050100
39.17 	0.051448 	4937 	0.050380
39.19 	0.044336 	4917 	0.043979
39.21 	0.043992 	4910 	0.043276
39.23 	0.048325 	4925 	0.047254
39.25 	0.044697 	4922 	0.044102
39.27 	0.037882 	4910 	0.037524
39.29 	0.043461 	4901 	0.042743
39.31 	0.042179 	4884 	0.041939
39.33 	0.049280 	4931 	0.048924
39.35 	0.046201 	4935 	0.045251
39.37 	0.048894 	4929 	0.048419
39.39 	0.050314 	4929 	0.049720
39.41 	0.050700 	4931 	0.049730
39.43 	0.045611 	4933 	0.044899
39.45 	0.038376 	4925 	0.037900
39.47 	0.048751 	4923 	0.047779
39.49 	0.049260 	4933 	0.048785
39.51 	0.041024 	4924 	0.040548
39.53 	0.044079 	4923 	0.043484
39.55 	0.045538 	4919 	0.045061
39.57 	0.045206 	4933 	0.045087
39.59 	0.044788 	4912 	0.043834
39.61 	0.039204 	4923 	0.038847
39.63 	0.047135 	4922 	0.046064
39.65 	0.050142 	4926 	0.049666
39.67 	0.043761 	4913 	0.043046
39.69 	0.048617 	4916 	0.048021
39.71 	0.050868 	4895 	0.049911
39.73 	0.048492 	4908 	0.047895
39.75 	0.046266 	4928 	0.045791
39.77 	0.048227 	4935 	0.047495
39.79 	0.041616 	4926 	0.041497
39.81 	0.045667 	4927 	0.044953
39.83 	0.045197 	4934 	0.044484
39.85 	0.043434 	4927 	0.042721
39.87 	0.047107 	4925 	0.046512
39.89 	0.042764 	4934 	0.042052
39.91 	0.048151 	4922 	0.047556
39.93 	0.039093 	4937 	0.038855
39.95 	0.042523 	4915 	0.041927
39.97 	0.039773 	4928 	0.039535
39.99 	0.045418 	4932 	0.045299
40.01 	0.045750 	4918 	0.045155
40.03 	0.040787 	4928 	0.040173
40.05 	0.043319 	4917 	0.042723
40.07 	0.042657 	4923 	0.041824
40.09 	0.041294 	4916 	0.040579
40.11 	0.040887 	4916 	0.040768
40.13 	0.049020 	4896 	0.048521
40.15 	0.040505 	4913 	0.040266
40.17 	0.044643 	4928 	0.044286
40.19 	0.040576 	4929 	0.040101
40.21 	0.037893 	4935 	0.037418
40.23 	0.046634 	4932 	0.045922
40.25 	0.042886 	4920 	0.042291
40.27 	0.045777 	4937 	0.045065
40.29 	0.043028 	4927 	0.042434
40.31 	0.047580 	4939 	0.046987
40.33 	0.042376 	4932 	0.042020
40.35 	0.045334 	4919 	0.044858
40.37 	0.040373 	4929 	0.039660
40.39 	0.042182 	4931 	0.041469
40.41 	0.041827 	4925 	0.041114
40.43 	0.046323 	4922 	0.045609
40.45 	0.043787 	4933 	0.042956
40.47 	0.041684 	4918 	0.041207
40.49 	0.046894 	4926 	0.046656
40.51 	0.041243 	4922 	0.040291
40.53 	0.041294 	4916 	0.040340
40.55 	0.046251 	4908 	0.045654
40.57 	0.043558 	4890 	0.042720
40.59 	0.045777 	4937 	0.045065
40.61 	0.042148 	4935 	0.041554
40.63 	0.038337 	4930 	0.038099
40.65 	0.042739 	4937 	0.042383
40.67 	0.039335 	4932 	0.039097
40.69 	0.042536 	4937 	0.042042
40.71 	0.045823 	4932 	0.045348
40.73 	0.042022 	4926 	0.041784
40.75 	0.040965 	4931 	0.040253
40.77 	0.043329 	4939 	0.042736
40.79 	0.045085 	4924 	0.044847
40.81 	0.041085 	4941 	0.040611
40.83 	0.040381 	4928 	0.039906
40.85 	0.039805 	4924 	0.039329
40.87 	0.039773 	4928 	0.039297
40.89 	0.039343 	4931 	0.038987
40.91 	0.040829 	4923 	0.040353
40.93 	0.048642 	4934 	0.046980
40.95 	0.041930 	4913 	0.041095
40.97 	0.039602 	4924 	0.039483
40.99 	0.044476 	4924 	0.043524
41.01 	0.043974 	4912 	0.043139
41.03 	0.038124 	4905 	0.037886
41.05 	0.037885 	4936 	0.037529
41.07 	0.037323 	4930 	0.036471
41.09 	0.040696 	4939 	0.039866
41.11 	0.040729 	4935 	0.040017
41.13 	0.040519 	4936 	0.040044
41.15 	0.038251 	4941 	0.037777
41.17 	0.043170 	4934 	0.042339
41.19 	0.045233 	4930 	0.044402
41.21 	0.044561 	4937 	0.044067
41.23 	0.046973 	4939 	0.045985
41.25 	0.038516 	4933 	0.038160
41.27 	0.040560 	4931 	0.039847
41.29 	0.043019 	4928 	0.042544
41.31 	0.038111 	4933 	0.037754
41.33 	0.047600 	4937 	0.046888
41.35 	0.040907 	4938 	0.040314
41.37 	0.040820 	4924 	0.039968
41.39 	0.042976 	4933 	0.042501
41.41 	0.039586 	4926 	0.039348
41.43 	0.043011 	4929 	0.042535
41.45 	0.039683 	4914 	0.039206
41.47 	0.037556 	4926 	0.037199
41.49 	0.048242 	4892 	0.047045
41.51 	0.043117 	4940 	0.042406
41.53 	0.043083 	4944 	0.042727
41.55 	0.041337 	4935 	0.041100
41.57 	0.040680 	4941 	0.040680
41.59 	0.038516 	4933 	0.038041
41.61 	0.044216 	4953 	0.043624
41.63 	0.045160 	4938 	0.044685
41.65 	0.039359 	4929 	0.039002
41.67 	0.045547 	4940 	0.044954
41.69 	0.039216 	4947 	0.038860
41.71 	0.043575 	4934 	0.042625
41.73 	0.039911 	4936 	0.039674
41.75 	0.040576 	4929 	0.040338
41.77 	0.043109 	4941 	0.042872
41.79 	0.039644 	4944 	0.039170
41.81 	0.037480 	4936 	0.037124
41.83 	0.037744 	4928 	0.037387
41.85 	0.038672 	4939 	0.038079
41.87 	0.039919 	4935 	0.039563
41.89 	0.041760 	4933 	0.041166
41.91 	0.040519 	4936 	0.039569
41.93 	0.044809 	4932 	0.044334
41.95 	0.036504 	4931 	0.036266
41.97 	0.044770 	4914 	0.044055
41.99 	0.037105 	4905 	0.036508
42.01 	0.038648 	4942 	0.038174
42.03 	0.038469 	4939 	0.037995
42.05 	0.036349 	4952 	0.036112
42.07 	0.038080 	4937 	0.037605
42.09 	0.038601 	4948 	0.038128
42.11 	0.039838 	4945 	0.039246
42.13 	0.036198 	4945 	0.035724
42.15 	0.042122 	4938 	0.041292
42.17 	0.042294 	4918 	0.041579
42.19 	0.037490 	4908 	0.036774
42.21 	0.043869 	4901 	0.043032
42.23 	0.041496 	4892 	0.041377
42.25 	0.038863 	4889 	0.038383
42.27 	0.037957 	4874 	0.037596
42.29 	0.040716 	4863 	0.040234
42.31 	0.036251 	4855 	0.035889
42.33 	0.040960 	4834 	0.040596
42.35 	0.033485 	4838 	0.033364
42.37 	0.036439 	4830 	0.035954
42.39 	0.038301 	4804 	0.038058
42.41 	0.040591 	4804 	0.040225
42.43 	0.036102 	4792 	0.035491
42.45 	0.040829 	4776 	0.040216
42.47 	0.035467 	4765 	0.035221
42.49 	0.038405 	4765 	0.037544
42.51 	0.033523 	4743 	0.033523
42.53 	0.040821 	4728 	0.040449
42.55 	0.041206 	4708 	0.040958
42.57 	0.038055 	4730 	0.037807
42.59 	0.039332 	4729 	0.038217
42.61 	0.034197 	4708 	0.033575
42.63 	0.043534 	4709 	0.043140
42.65 	0.040128 	4685 	0.039378
42.67 	0.037788 	4684 	0.037288
42.69 	0.038725 	4674 	0.037973
42.71 	0.038602 	4663 	0.037953
42.73 	0.038362 	4640 	0.037605
42.75 	0.045484 	4617 	0.045103
42.77 	0.040000 	4600 	0.039363
42.79 	0.037538 	4582 	0.037155
42.81 	0.040991 	4562 	0.040862
42.83 	0.036596 	4536 	0.036209
42.85 	0.037765 	4528 	0.037377
42.87 	0.041343 	4499 	0.041082
42.89 	0.038616 	4480 	0.037962
42.91 	0.040844 	4456 	0.040449
42.93 	0.038462 	4446 	0.038462
42.95 	0.039629 	4416 	0.039629
42.97 	0.037264 	4401 	0.036732
42.99 	0.031471 	4385 	0.031471
43.01 	0.034380 	4363 	0.034111
43.03 	0.038311 	4333 	0.038040
43.05 	0.039306 	4325 	0.038765
43.07 	0.037942 	4296 	0.037806
43.09 	0.040859 	4283 	0.040449
43.11 	0.035018 	4255 	0.034054
43.13 	0.037999 	4237 	0.037584
43.15 	0.041369 	4206 	0.040952
43.17 	0.040919 	4179 	0.040218
43.19 	0.039103 	4194 	0.038265
43.21 	0.037152 	4172 	0.036872
43.23 	0.041406 	4154 	0.040419
43.25 	0.039661 	4135 	0.039520
43.27 	0.035810 	4105 	0.035667
43.29 	0.032927 	4100 	0.032355
43.31 	0.038245 	4079 	0.037383
43.33 	0.038262 	4051 	0.038262
43.35 	0.035962 	4032 	0.035962
43.37 	0.037858 	4015 	0.037129
43.39 	0.039230 	4002 	0.038352
43.41 	0.041793 	3972 	0.041203
43.43 	0.034343 	3960 	0.033604
43.45 	0.034562 	3935 	0.033966
43.47 	0.036215 	3921 	0.035916
43.49 	0.039518 	3897 	0.039067
43.51 	0.037400 	3877 	0.036645
43.53 	0.036241 	3863 	0.035938
43.55 	0.033738 	2964 	0.033738
43.57 	0.037534 	2238 	0.036748
43.59 	0.036082 	1746 	0.035076
43.61 	0.034049 	1351 	0.033615
43.63 	0.040959 	1001 	0.040959
43.65 	0.042213 	687 	0.042213
43.67 	0.031873 	502 	0.030706
43.69 	0.040872 	367 	0.037680
43.71 	0.041841 	239 	0.039390
43.73 	0.075000 	120 	0.070118
43.75 	0.062500 	16 	0.062500