File: Example_Data/25SC_s1_0004.003.dat
#F C:\frames\spec\25SC_s1_0004.003
#C title =s:4 frm:3 25SC_s1
#C wavelength =0.15406

#S 1  fr_average C:\frames\spec\25SC_s1_0004.003 C:\win32app\speccom\mask.axs chi 0 180 0 360 0.02
#C 2 theta =0.000000 to 180 deg
#C   q   =0.000000 to 81.568 nm^-1
#C  chi  =0.000000 to 360 deg
#C collumns:
#C  1 position (2theta or chi in degrees)
#C  2 average intensity (sum of all counts in the region divided with number of pixels)
#C  3 Number of pixels in region)
#C  4 error (sum of sqrt(intensity) for all pixels divided by number)
#N 4
#L TTh  Int  N_pix  Err
32.99 	0.065574 	61 	0.065574
33.01 	0.056128 	873 	0.055457
33.03 	0.071891 	1391 	0.070627
33.05 	0.066591 	1757 	0.066257
33.07 	0.057561 	2050 	0.056418
33.09 	0.063485 	2347 	0.061988
33.11 	0.069019 	2579 	0.067202
33.13 	0.053706 	2793 	0.052447
33.15 	0.063021 	2999 	0.061458
33.17 	0.053733 	3201 	0.052269
33.19 	0.057451 	3342 	0.056048
33.21 	0.059953 	3436 	0.058419
33.23 	0.056486 	3523 	0.054823
33.25 	0.065061 	3612 	0.063926
33.27 	0.053444 	3630 	0.051830
33.29 	0.060307 	3648 	0.059665
33.31 	0.062295 	3660 	0.060535
33.33 	0.058871 	3686 	0.058236
33.35 	0.058473 	3694 	0.056887
33.37 	0.060043 	3714 	0.058939
33.39 	0.060338 	3729 	0.059081
33.41 	0.053743 	3740 	0.052621
33.43 	0.062217 	3761 	0.061283
33.45 	0.059634 	3773 	0.058638
33.47 	0.061875 	3798 	0.060641
33.49 	0.055920 	3809 	0.055305
33.51 	0.056619 	3815 	0.055979
33.53 	0.051289 	3841 	0.050349
33.55 	0.059589 	3843 	0.057887
33.57 	0.055197 	3877 	0.053989
33.59 	0.063918 	3880 	0.062710
33.61 	0.059862 	3909 	0.058813
33.63 	0.060985 	3919 	0.060088
33.65 	0.055965 	3931 	0.054624
33.67 	0.058169 	3954 	0.056515
33.69 	0.059954 	3953 	0.058769
33.71 	0.060377 	3975 	0.059493
33.73 	0.055694 	4004 	0.054670
33.75 	0.056514 	3999 	0.055049
33.77 	0.055155 	4025 	0.054428
33.79 	0.061371 	4041 	0.060211
33.81 	0.059435 	4038 	0.058565
33.83 	0.059259 	4050 	0.057234
33.85 	0.062210 	4099 	0.060924
33.87 	0.067623 	4111 	0.065629
33.89 	0.059937 	4121 	0.059084
33.91 	0.057845 	4149 	0.057139
33.93 	0.062876 	4151 	0.061689
33.95 	0.061947 	4181 	0.061246
33.97 	0.059905 	4190 	0.058506
33.99 	0.067143 	4200 	0.065888
34.01 	0.063138 	4213 	0.062721
34.03 	0.062677 	4244 	0.061849
34.05 	0.060442 	4252 	0.059202
34.07 	0.052249 	4268 	0.050854
34.09 	0.053896 	4286 	0.053213
34.11 	0.061832 	4302 	0.061015
34.13 	0.058728 	4308 	0.057912
34.15 	0.061187 	4331 	0.060105
34.17 	0.059770 	4350 	0.058693
34.19 	0.059835 	4362 	0.059029
34.21 	0.053535 	4371 	0.053267
34.23 	0.054860 	4393 	0.053527
34.25 	0.053134 	4404 	0.052335
34.27 	0.066938 	4422 	0.065481
34.29 	0.064713 	4435 	0.063106
34.31 	0.052939 	4458 	0.052282
34.33 	0.061060 	4471 	0.059881
34.35 	0.057315 	4484 	0.056792
34.37 	0.060343 	4491 	0.058756
34.39 	0.055975 	4502 	0.055194
34.41 	0.057667 	4526 	0.056631
34.43 	0.065433 	4539 	0.064121
34.45 	0.065491 	4535 	0.064845
34.47 	0.060105 	4592 	0.058553
34.49 	0.063955 	4597 	0.063063
34.51 	0.058619 	4606 	0.057983
34.53 	0.062029 	4643 	0.060389
34.55 	0.059014 	4643 	0.057247
34.57 	0.058584 	4660 	0.057955
34.59 	0.053904 	4675 	0.053027
34.61 	0.057696 	4697 	0.057073
34.63 	0.061359 	4710 	0.060115
34.65 	0.059945 	4721 	0.059304
34.67 	0.064543 	4741 	0.063555
34.69 	0.053639 	4754 	0.052037
34.71 	0.053714 	4766 	0.052853
34.73 	0.054105 	4787 	0.053106
34.75 	0.055116 	4808 	0.054385
34.77 	0.061021 	4818 	0.060535
34.79 	0.059701 	4824 	0.058366
34.81 	0.063983 	4845 	0.063258
34.83 	0.062320 	4862 	0.061356
34.85 	0.058534 	4869 	0.056469
34.87 	0.056286 	4868 	0.055564
34.89 	0.055510 	4882 	0.054430
34.91 	0.059402 	4882 	0.058082
34.93 	0.068381 	4899 	0.066588
34.95 	0.058078 	4890 	0.057119
34.97 	0.067523 	4902 	0.066328
34.99 	0.062896 	4897 	0.061819
35.01 	0.062767 	4923 	0.062053
35.03 	0.051993 	4943 	0.050808
35.05 	0.058015 	4947 	0.057186
35.07 	0.054453 	4940 	0.053742
35.09 	0.060771 	4953 	0.059707
35.11 	0.063675 	4947 	0.062846
35.13 	0.057886 	4958 	0.057177
35.15 	0.057322 	4937 	0.056373
35.17 	0.060655 	4946 	0.060063
35.19 	0.063132 	4942 	0.062184
35.21 	0.058241 	4945 	0.057767
35.23 	0.058443 	4945 	0.057239
35.25 	0.061097 	4943 	0.060148
35.27 	0.058407 	4948 	0.058052
35.29 	0.055207 	4945 	0.054378
35.31 	0.055747 	4933 	0.054421
35.33 	0.059478 	4943 	0.058510
35.35 	0.060299 	4942 	0.059707
35.37 	0.059526 	4939 	0.058459
35.39 	0.055410 	4945 	0.054343
35.41 	0.064149 	4926 	0.062841
35.43 	0.061423 	4933 	0.060592
35.45 	0.059550 	4937 	0.059313
35.47 	0.059420 	4931 	0.058588
35.49 	0.058656 	4910 	0.057821
35.51 	0.060698 	4926 	0.059271
35.53 	0.059002 	4949 	0.058055
35.55 	0.059050 	4945 	0.057628
35.57 	0.062639 	4933 	0.062164
35.59 	0.057027 	4945 	0.055606
35.61 	0.058478 	4942 	0.057649
35.63 	0.061703 	4943 	0.061111
35.65 	0.062487 	4945 	0.061303
35.67 	0.057871 	4942 	0.056923
35.69 	0.060049 	4946 	0.058746
35.71 	0.058335 	4937 	0.056793
35.73 	0.067464 	4936 	0.066277
35.75 	0.063273 	4931 	0.061966
35.77 	0.055544 	4951 	0.054716
35.79 	0.055353 	4932 	0.054521
35.81 	0.063450 	4933 	0.061788
35.83 	0.061059 	4946 	0.059638
35.85 	0.060182 	4935 	0.059589
35.87 	0.058704 	4923 	0.057495
35.89 	0.059181 	4934 	0.058231
35.91 	0.064136 	4927 	0.062829
35.93 	0.063528 	4927 	0.062933
35.95 	0.060403 	4917 	0.059569
35.97 	0.054560 	4912 	0.053725
35.99 	0.057299 	4939 	0.056350
36.01 	0.063489 	4930 	0.062182
36.03 	0.055230 	4943 	0.054163
36.05 	0.062285 	4945 	0.060627
36.07 	0.057906 	4939 	0.056820
36.09 	0.064372 	4940 	0.063187
36.11 	0.058024 	4929 	0.056835
36.13 	0.059895 	4942 	0.058571
36.15 	0.059729 	4939 	0.059017
36.17 	0.060711 	4925 	0.059997
36.19 	0.063563 	4940 	0.062614
36.21 	0.050923 	4929 	0.049972
36.23 	0.067072 	4935 	0.065747
36.25 	0.061526 	4941 	0.060459
36.27 	0.062132 	4925 	0.060943
36.29 	0.059623 	4931 	0.058316
36.31 	0.063312 	4928 	0.062242
36.33 	0.065883 	4933 	0.064577
36.35 	0.063096 	4929 	0.062858
36.37 	0.056267 	4923 	0.055553
36.39 	0.054664 	4921 	0.053592
36.41 	0.061683 	4896 	0.060367
36.43 	0.058644 	4928 	0.058169
36.45 	0.061866 	4930 	0.060658
36.47 	0.058549 	4936 	0.057363
36.49 	0.057669 	4942 	0.056721
36.51 	0.055950 	4933 	0.055593
36.53 	0.065143 	4943 	0.063839
36.55 	0.059265 	4927 	0.058314
36.57 	0.056344 	4934 	0.055513
36.59 	0.059121 	4939 	0.058291
36.61 	0.055770 	4931 	0.054819
36.63 	0.058000 	4931 	0.056812
36.65 	0.058597 	4932 	0.057409
36.67 	0.061258 	4930 	0.060169
36.69 	0.055589 	4929 	0.054876
36.71 	0.052428 	4921 	0.051476
36.73 	0.053401 	4925 	0.052806
36.75 	0.058657 	4944 	0.057828
36.77 	0.056922 	4919 	0.056089
36.79 	0.057102 	4921 	0.056388
36.81 	0.065297 	4916 	0.063867
36.83 	0.059613 	4915 	0.058422
36.85 	0.059412 	4898 	0.058694
36.87 	0.061893 	4944 	0.061419
36.89 	0.049430 	4916 	0.048458
36.91 	0.061526 	4941 	0.060815
36.93 	0.061258 	4930 	0.059238
36.95 	0.055139 	4933 	0.054308
36.97 	0.055330 	4934 	0.054262
36.99 	0.060790 	4935 	0.059722
37.01 	0.057977 	4933 	0.057264
37.03 	0.059301 	4924 	0.058469
37.05 	0.061092 	4927 	0.060379
37.07 	0.050861 	4935 	0.050386
37.09 	0.059253 	4928 	0.057926
37.11 	0.051064 	4935 	0.050708
37.13 	0.059301 	4924 	0.058469
37.15 	0.062946 	4909 	0.062349
37.17 	0.055533 	4934 	0.054465
37.19 	0.055431 	4925 	0.054361
37.21 	0.055725 	4917 	0.054653
37.23 	0.054697 	4918 	0.053625
37.25 	0.054571 	4911 	0.053021
37.27 	0.056600 	4894 	0.055383
37.29 	0.056389 	4930 	0.055201
37.31 	0.060790 	4935 	0.059959
37.33 	0.053379 	4927 	0.052904
37.35 	0.054678 	4938 	0.053966
37.37 	0.048305 	4927 	0.047235
37.39 	0.050902 	4931 	0.050308
37.41 	0.058203 	4931 	0.057015
37.43 	0.059813 	4932 	0.058863
37.45 	0.055646 	4924 	0.055408
37.47 	0.056198 	4929 	0.054772
37.49 	0.054032 	4923 	0.053556
37.51 	0.047233 	4933 	0.046402
37.53 	0.049400 	4919 	0.048567
37.55 	0.049290 	4930 	0.048201
37.57 	0.052386 	4925 	0.051553
37.59 	0.060427 	4915 	0.059474
37.61 	0.050386 	4922 	0.049791
37.63 	0.049400 	4919 	0.048805
37.65 	0.054900 	4918 	0.053947
37.67 	0.053018 	4904 	0.052540
37.69 	0.048591 	4898 	0.047874
37.71 	0.057212 	4929 	0.056262
37.73 	0.051735 	4929 	0.051140
37.75 	0.053239 	4940 	0.053002
37.77 	0.049797 	4920 	0.048963
37.79 	0.045233 	4930 	0.044758
37.81 	0.052504 	4933 	0.051791
37.83 	0.048577 	4920 	0.048339
37.85 	0.056278 	4922 	0.055187
37.87 	0.053047 	4939 	0.052454
37.89 	0.046497 	4925 	0.045427
37.91 	0.059026 	4930 	0.058076
37.93 	0.052653 	4919 	0.052177
37.95 	0.055070 	4921 	0.054118
37.97 	0.047474 	4929 	0.047118
37.99 	0.051507 	4912 	0.050910
38.01 	0.055804 	4928 	0.054833
38.03 	0.057242 	4909 	0.056406
38.05 	0.049137 	4925 	0.047829
38.07 	0.058668 	4909 	0.057952
38.09 	0.051046 	4878 	0.050565
38.11 	0.053901 	4935 	0.052813
38.13 	0.058538 	4937 	0.057707
38.15 	0.054290 	4918 	0.053179
38.17 	0.049696 	4930 	0.048983
38.19 	0.051724 	4930 	0.051110
38.21 	0.048141 	4923 	0.047546
38.23 	0.058526 	4938 	0.057063
38.25 	0.053488 	4917 	0.052892
38.27 	0.054970 	4930 	0.054019
38.29 	0.059098 	4924 	0.058385
38.31 	0.054597 	4927 	0.054003
38.33 	0.063769 	4924 	0.062699
38.35 	0.058847 	4928 	0.057421
38.37 	0.057677 	4924 	0.056606
38.39 	0.054797 	4909 	0.054201
38.41 	0.062157 	4923 	0.060967
38.43 	0.060618 	4916 	0.059427
38.45 	0.065067 	4918 	0.064352
38.47 	0.064602 	4907 	0.063885
38.49 	0.059873 	4877 	0.059513
38.51 	0.060219 	4932 	0.059269
38.53 	0.064313 	4929 	0.062412
38.55 	0.065640 	4936 	0.064453
38.57 	0.066017 	4923 	0.065184
38.59 	0.056052 	4924 	0.054862
38.61 	0.063006 	4936 	0.061682
38.63 	0.066003 	4924 	0.064695
38.65 	0.060390 	4918 	0.058822
38.67 	0.053879 	4937 	0.053048
38.69 	0.056684 	4922 	0.055375
38.71 	0.065800 	4924 	0.064492
38.73 	0.054087 	4918 	0.053253
38.75 	0.060077 	4927 	0.059483
38.77 	0.054032 	4923 	0.053556
38.79 	0.056546 	4934 	0.055478
38.81 	0.054153 	4912 	0.053318
38.83 	0.050417 	4919 	0.050059
38.85 	0.050692 	4912 	0.049957
38.87 	0.050906 	4911 	0.050052
38.89 	0.048193 	4897 	0.047236
38.91 	0.050581 	4903 	0.049506
38.93 	0.052248 	4938 	0.051299
38.95 	0.046157 	4918 	0.045561
38.97 	0.054147 	4931 	0.053296
38.99 	0.049625 	4937 	0.048795
39.01 	0.052664 	4918 	0.051711
39.03 	0.051277 	4934 	0.050446
39.05 	0.045482 	4925 	0.045006
39.07 	0.048538 	4924 	0.047705
39.09 	0.051798 	4923 	0.051084
39.11 	0.047658 	4931 	0.047182
39.13 	0.053423 	4923 	0.052471
39.15 	0.052289 	4915 	0.051812
39.17 	0.053676 	4937 	0.052252
39.19 	0.051251 	4917 	0.050516
39.21 	0.049898 	4910 	0.049421
39.23 	0.049137 	4925 	0.048542
39.25 	0.045307 	4922 	0.044593
39.27 	0.052953 	4910 	0.052357
39.29 	0.046113 	4901 	0.045515
39.31 	0.045250 	4884 	0.044650
39.33 	0.053539 	4931 	0.052707
39.35 	0.045390 	4935 	0.044797
39.37 	0.050517 	4929 	0.049567
39.39 	0.048083 	4929 	0.046894
39.41 	0.052119 	4931 	0.051525
39.43 	0.045814 	4933 	0.045220
39.45 	0.053198 	4925 	0.052365
39.47 	0.046923 	4923 	0.046566
39.49 	0.044192 	4933 	0.043598
39.51 	0.051381 	4924 	0.050667
39.53 	0.048141 	4923 	0.047308
39.55 	0.047367 	4919 	0.046534
39.57 	0.049868 	4933 	0.049156
39.59 	0.047638 	4912 	0.047161
39.61 	0.043266 	4923 	0.042909
39.63 	0.049167 	4922 	0.048929
39.65 	0.047706 	4926 	0.047111
39.67 	0.050885 	4913 	0.050289
39.69 	0.050854 	4916 	0.050259
39.71 	0.047395 	4895 	0.046677
39.73 	0.049715 	4908 	0.048402
39.75 	0.046063 	4928 	0.045469
39.77 	0.047011 	4935 	0.046892
39.79 	0.050345 	4926 	0.049751
39.81 	0.041202 	4927 	0.041083
39.83 	0.048642 	4934 	0.047930
39.85 	0.047493 	4927 	0.046899
39.87 	0.051168 	4925 	0.050811
39.89 	0.048034 	4934 	0.047440
39.91 	0.049980 	4922 	0.049623
39.93 	0.053676 	4937 	0.052727
39.95 	0.045371 	4915 	0.044895
39.97 	0.052760 	4928 	0.052522
39.99 	0.047648 	4932 	0.046104
40.01 	0.047377 	4918 	0.046781
40.03 	0.048295 	4928 	0.048058
40.05 	0.046166 	4917 	0.045928
40.07 	0.053220 	4923 	0.052506
40.09 	0.046989 	4916 	0.046274
40.11 	0.051465 	4916 	0.051345
40.13 	0.049837 	4896 	0.049119
40.15 	0.051089 	4913 	0.049897
40.17 	0.047890 	4928 	0.047652
40.19 	0.045648 	4929 	0.045292
40.21 	0.044580 	4935 	0.043986
40.23 	0.044201 	4932 	0.043607
40.25 	0.039837 	4920 	0.039004
40.27 	0.051448 	4937 	0.050450
40.29 	0.048508 	4927 	0.048152
40.31 	0.043936 	4939 	0.043106
40.33 	0.051095 	4932 	0.050382
40.35 	0.049197 	4919 	0.048602
40.37 	0.041793 	4929 	0.041199
40.39 	0.040965 	4931 	0.040371
40.41 	0.045482 	4925 	0.044769
40.43 	0.045713 	4922 	0.045356
40.45 	0.045003 	4933 	0.044409
40.47 	0.049410 	4918 	0.048934
40.49 	0.049736 	4926 	0.049260
40.51 	0.043275 	4922 	0.043037
40.53 	0.043124 	4916 	0.042886
40.55 	0.042584 	4908 	0.041629
40.57 	0.046421 	4890 	0.045942
40.59 	0.046992 	4937 	0.046517
40.61 	0.049443 	4935 	0.048493
40.63 	0.051927 	4930 	0.050581
40.65 	0.048613 	4937 	0.048019
40.67 	0.051703 	4932 	0.050397
40.69 	0.050435 	4937 	0.049605
40.71 	0.048662 	4932 	0.047949
40.73 	0.048112 	4926 	0.047280
40.75 	0.041979 	4931 	0.041742
40.77 	0.044746 	4939 	0.044153
40.79 	0.051584 	4924 	0.051108
40.81 	0.044728 	4941 	0.044372
40.83 	0.047890 	4928 	0.047176
40.85 	0.046913 	4924 	0.046556
40.87 	0.048701 	4928 	0.048345
40.89 	0.046238 	4931 	0.045149
40.91 	0.048141 	4923 	0.046832
40.93 	0.046615 	4934 	0.046259
40.95 	0.046000 	4913 	0.045762
40.97 	0.048538 	4924 	0.047824
40.99 	0.046507 	4924 	0.046269
41.01 	0.038681 	4912 	0.038204
41.03 	0.046687 	4905 	0.045951
41.05 	0.050041 	4936 	0.049447
41.07 	0.045639 	4930 	0.045045
41.09 	0.045353 	4939 	0.044523
41.11 	0.048632 	4935 	0.048157
41.13 	0.044368 	4936 	0.043537
41.15 	0.044525 	4941 	0.044051
41.17 	0.043170 	4934 	0.042557
41.19 	0.046045 	4930 	0.045451
41.21 	0.047600 	4937 	0.046651
41.23 	0.042721 	4939 	0.042247
41.25 	0.045206 	4933 	0.044731
41.27 	0.044818 	4931 	0.044343
41.29 	0.043222 	4928 	0.042747
41.31 	0.047638 	4933 	0.047401
41.33 	0.045777 	4937 	0.045164
41.35 	0.040907 	4938 	0.040195
41.37 	0.042039 	4924 	0.040968
41.39 	0.042976 	4933 	0.041907
41.41 	0.052781 	4926 	0.052305
41.43 	0.044837 	4929 	0.044361
41.45 	0.050061 	4914 	0.048869
41.47 	0.043240 	4926 	0.043002
41.49 	0.047424 	4892 	0.046347
41.51 	0.045344 	4940 	0.044633
41.53 	0.042476 	4944 	0.042002
41.55 	0.048430 	4935 	0.048073
41.57 	0.045942 	4941 	0.045468
41.59 	0.048044 	4933 	0.047688
41.61 	0.041591 	4953 	0.040881
41.63 	0.045768 	4938 	0.045174
41.65 	0.042402 	4929 	0.041808
41.67 	0.039069 	4940 	0.038832
41.69 	0.044471 	4947 	0.043761
41.71 	0.042764 	4934 	0.042408
41.73 	0.045381 	4936 	0.044531
41.75 	0.044837 	4929 	0.043886
41.77 	0.045335 	4941 	0.044979
41.79 	0.047532 	4944 	0.047295
41.81 	0.041734 	4936 	0.041022
41.83 	0.045657 	4928 	0.044469
41.85 	0.045353 	4939 	0.044286
41.87 	0.045998 	4935 	0.045761
41.89 	0.045814 	4933 	0.045101
41.91 	0.046596 	4936 	0.045884
41.93 	0.043593 	4932 	0.042643
41.95 	0.041371 	4931 	0.041252
41.97 	0.039683 	4914 	0.039206
41.99 	0.039551 	4905 	0.039432
42.01 	0.046135 	4942 	0.045543
42.03 	0.044746 	4939 	0.044371
42.05 	0.043013 	4952 	0.042776
42.07 	0.044359 	4937 	0.044122
42.09 	0.044867 	4948 	0.044275
42.11 	0.044085 	4945 	0.043374
42.13 	0.042265 	4945 	0.041791
42.15 	0.041717 	4938 	0.041480
42.17 	0.047377 	4918 	0.046285
42.19 	0.044214 	4908 	0.043497
42.21 	0.043665 	4901 	0.043286
42.23 	0.047629 	4892 	0.047030
42.25 	0.045408 	4889 	0.044689
42.27 	0.043701 	4874 	0.042860
42.29 	0.044828 	4863 	0.043985
42.31 	0.045108 	4855 	0.044384
42.33 	0.040546 	4834 	0.040546
42.35 	0.041753 	4838 	0.041147
42.37 	0.046377 	4830 	0.045528
42.39 	0.047877 	4804 	0.047145
42.41 	0.044963 	4804 	0.044353
42.43 	0.041528 	4792 	0.041039
42.45 	0.042504 	4776 	0.041891
42.47 	0.043652 	4765 	0.043529
42.49 	0.043022 	4765 	0.042407
42.51 	0.041957 	4743 	0.041216
42.53 	0.043147 	4728 	0.042404
42.55 	0.043118 	4708 	0.042620
42.57 	0.036786 	4730 	0.036663
42.59 	0.042504 	4729 	0.042132
42.61 	0.040569 	4708 	0.040072
42.63 	0.041410 	4709 	0.041037
42.65 	0.045678 	4685 	0.044907
42.67 	0.039069 	4684 	0.038694
42.69 	0.039795 	4674 	0.039293
42.71 	0.042891 	4663 	0.042765
42.73 	0.043534 	4640 	0.042651
42.75 	0.041585 	4617 	0.041332
42.77 	0.038478 	4600 	0.038096
42.79 	0.044959 	4582 	0.044319
42.81 	0.046690 	4562 	0.046048
42.83 	0.042549 	4536 	0.042161
42.85 	0.044390 	4528 	0.043873
42.87 	0.035786 	4499 	0.035265
42.89 	0.044420 	4480 	0.043897
42.91 	0.046679 	4456 	0.046284
42.93 	0.043860 	4446 	0.043596
42.95 	0.038270 	4416 	0.037739
42.97 	0.044308 	4401 	0.043643
42.99 	0.042873 	4385 	0.042339
43.01 	0.044923 	4363 	0.044252
43.03 	0.044542 	4333 	0.043596
43.05 	0.044393 	4325 	0.043716
43.07 	0.045391 	4296 	0.044982
43.09 	0.048798 	4283 	0.048228
43.11 	0.042068 	4255 	0.041380
43.13 	0.039179 	4237 	0.038902
43.15 	0.041845 	4206 	0.041566
43.17 	0.040680 	4179 	0.040119
43.19 	0.047449 	4194 	0.046448
43.21 	0.038351 	4172 	0.037649
43.23 	0.042610 	4154 	0.042327
43.25 	0.036034 	4135 	0.035751
43.27 	0.037515 	4105 	0.036659
43.29 	0.044878 	4100 	0.044449
43.31 	0.038735 	4079 	0.038304
43.33 	0.045174 	4051 	0.044740
43.35 	0.038442 	4032 	0.038297
43.37 	0.040349 	4015 	0.039619
43.39 	0.038231 	4002 	0.037499
43.41 	0.043303 	3972 	0.042566
43.43 	0.044697 	3960 	0.044105
43.45 	0.037865 	3935 	0.037270
43.47 	0.043101 	3921 	0.042504
43.49 	0.037208 	3897 	0.036907
43.51 	0.042301 	3877 	0.042301
43.53 	0.045819 	3863 	0.045516
43.55 	0.034750 	2964 	0.034750
43.57 	0.043342 	2238 	0.042295
43.59 	0.045246 	1746 	0.045246
43.61 	0.045892 	1351 	0.045458
43.63 	0.040959 	1001 	0.040959
43.65 	0.034934 	687 	0.034082
43.67 	0.049801 	502 	0.049801
43.69 	0.038147 	367 	0.038147
43.71 	0.029289 	239 	0.026838
43.73 	0.058333 	120 	0.058333
43.75 	0.000000 	16 	0.000000