File: Example_Data/25SC_s1_0039.000.dat
#F C:\frames\spec\25SC_s1_0039.000
#C title =s:39 frm:0 25SC_s1
#C wavelength =0.15406

#S 1  fr_average C:\frames\spec\25SC_s1_0039.000 C:\win32app\speccom\mask.axs chi 0 180 0 360 0.02
#C 2 theta =0.000000 to 180 deg
#C   q   =0.000000 to 81.568 nm^-1
#C  chi  =0.000000 to 360 deg
#C collumns:
#C  1 position (2theta or chi in degrees)
#C  2 average intensity (sum of all counts in the region divided with number of pixels)
#C  3 Number of pixels in region)
#C  4 error (sum of sqrt(intensity) for all pixels divided by number)
#N 4
#L TTh  Int  N_pix  Err
32.99 	0.000000 	61 	0.000000
33.01 	0.059565 	873 	0.058894
33.03 	0.055356 	1391 	0.053671
33.05 	0.061468 	1757 	0.061135
33.07 	0.059512 	2050 	0.058655
33.09 	0.060503 	2347 	0.060253
33.11 	0.061264 	2579 	0.060583
33.13 	0.067311 	2793 	0.065389
33.15 	0.060687 	2999 	0.059678
33.17 	0.062168 	3201 	0.061436
33.19 	0.053262 	3342 	0.052736
33.21 	0.055879 	3436 	0.055538
33.23 	0.063014 	3523 	0.061989
33.25 	0.063953 	3612 	0.061981
33.27 	0.060331 	3630 	0.058852
33.29 	0.058662 	3648 	0.057538
33.31 	0.063934 	3660 	0.062308
33.33 	0.062127 	3686 	0.060697
33.35 	0.067136 	3694 	0.065709
33.37 	0.059235 	3714 	0.058131
33.39 	0.053366 	3729 	0.052423
33.41 	0.063369 	3740 	0.062899
33.43 	0.061154 	3761 	0.059752
33.45 	0.059899 	3773 	0.059434
33.47 	0.058189 	3798 	0.057263
33.49 	0.058808 	3809 	0.058039
33.51 	0.061075 	3815 	0.059693
33.53 	0.058839 	3841 	0.057161
33.55 	0.066094 	3843 	0.064113
33.57 	0.062161 	3877 	0.060499
33.59 	0.058247 	3880 	0.057493
33.61 	0.060118 	3909 	0.059368
33.63 	0.055371 	3919 	0.054923
33.65 	0.058509 	3931 	0.057317
33.67 	0.060445 	3954 	0.059408
33.69 	0.058690 	3953 	0.057652
33.71 	0.059371 	3975 	0.057750
33.73 	0.059441 	4004 	0.058563
33.75 	0.062766 	3999 	0.061277
33.77 	0.055155 	4025 	0.054573
33.79 	0.064341 	4041 	0.062746
33.81 	0.061664 	4038 	0.060794
33.83 	0.059506 	4050 	0.058638
33.85 	0.058795 	4099 	0.058080
33.87 	0.060326 	4111 	0.059756
33.89 	0.055812 	4121 	0.055243
33.91 	0.053989 	4149 	0.053989
33.93 	0.058781 	4151 	0.058075
33.95 	0.060512 	4181 	0.059811
33.97 	0.057279 	4190 	0.056580
33.99 	0.053571 	4200 	0.052595
34.01 	0.060527 	4213 	0.058858
34.03 	0.055137 	4244 	0.054585
34.05 	0.059972 	4252 	0.058870
34.07 	0.057873 	4268 	0.056363
34.09 	0.061829 	4286 	0.060872
34.11 	0.060669 	4302 	0.058763
34.13 	0.062906 	4308 	0.061818
34.15 	0.060263 	4331 	0.058775
34.17 	0.054713 	4350 	0.054174
34.19 	0.060293 	4362 	0.057966
34.21 	0.058339 	4371 	0.057267
34.23 	0.055543 	4393 	0.054343
34.25 	0.063124 	4404 	0.062592
34.27 	0.051334 	4422 	0.050672
34.29 	0.058399 	4435 	0.057210
34.31 	0.050920 	4458 	0.049453
34.33 	0.058600 	4471 	0.057945
34.35 	0.058653 	4484 	0.057608
34.37 	0.054776 	4491 	0.053733
34.39 	0.054198 	4502 	0.052876
34.41 	0.052585 	4526 	0.051270
34.43 	0.057722 	4539 	0.056819
34.45 	0.056009 	4535 	0.055234
34.47 	0.057927 	4592 	0.056651
34.49 	0.057646 	4597 	0.057009
34.51 	0.060356 	4606 	0.059318
34.53 	0.054275 	4643 	0.053644
34.55 	0.057075 	4643 	0.055435
34.57 	0.056009 	4660 	0.054752
34.59 	0.060749 	4675 	0.059997
34.61 	0.054290 	4697 	0.053292
34.63 	0.059448 	4710 	0.058702
34.65 	0.058886 	4721 	0.058017
34.67 	0.052942 	4741 	0.052201
34.69 	0.053639 	4754 	0.052777
34.71 	0.054133 	4766 	0.053273
34.73 	0.060372 	4787 	0.059148
34.75 	0.058860 	4808 	0.057886
34.77 	0.054587 	4818 	0.053979
34.79 	0.053483 	4824 	0.052875
34.81 	0.059030 	4845 	0.058788
34.83 	0.055121 	4862 	0.054639
34.85 	0.058534 	4869 	0.057571
34.87 	0.056697 	4868 	0.055975
34.89 	0.055305 	4882 	0.054705
34.91 	0.054896 	4882 	0.054416
34.93 	0.056950 	4899 	0.056233
34.95 	0.064008 	4890 	0.062930
34.97 	0.056712 	4902 	0.055517
34.99 	0.061466 	4897 	0.060250
35.01 	0.052813 	4923 	0.052218
35.03 	0.052600 	4943 	0.052007
35.05 	0.058621 	4947 	0.057437
35.07 	0.059717 	4940 	0.058768
35.09 	0.050273 	4953 	0.049681
35.11 	0.055994 	4947 	0.055165
35.13 	0.061920 	4958 	0.061211
35.15 	0.059348 	4937 	0.057667
35.17 	0.057016 	4946 	0.056779
35.19 	0.056657 	4942 	0.055946
35.21 	0.057432 	4945 	0.056839
35.23 	0.059858 	4945 	0.059029
35.25 	0.055230 	4943 	0.054045
35.27 	0.053355 	4948 	0.052763
35.29 	0.055005 	4945 	0.054413
35.31 	0.060815 	4933 	0.059746
35.33 	0.061703 	4943 	0.060262
35.35 	0.060704 	4942 	0.059637
35.37 	0.057097 	4939 	0.056385
35.39 	0.057432 	4945 	0.057076
35.41 	0.058871 	4926 	0.058039
35.43 	0.051287 	4933 	0.050199
35.45 	0.059955 	4937 	0.058393
35.47 	0.056581 	4931 	0.055987
35.49 	0.056619 	4910 	0.056381
35.51 	0.056029 	4926 	0.055554
35.53 	0.064053 	4949 	0.062850
35.55 	0.054601 	4945 	0.054008
35.57 	0.057977 	4933 	0.057264
35.59 	0.059656 	4945 	0.058472
35.61 	0.057264 	4942 	0.056197
35.63 	0.058264 	4943 	0.057553
35.65 	0.052174 	4945 	0.051819
35.67 	0.057871 	4942 	0.056923
35.69 	0.055600 	4946 	0.055008
35.71 	0.055499 	4937 	0.054412
35.73 	0.054700 	4936 	0.053751
35.75 	0.059217 	4931 	0.058148
35.77 	0.057968 	4951 	0.056312
35.79 	0.052311 	4932 	0.051005
35.81 	0.061423 	4933 	0.060829
35.83 	0.048928 	4946 	0.048099
35.85 	0.054914 	4935 	0.054320
35.87 	0.058298 	4923 	0.057703
35.89 	0.058979 	4934 	0.057435
35.91 	0.058250 	4927 	0.057062
35.93 	0.059874 	4927 	0.057972
35.95 	0.053691 	4917 	0.053215
35.97 	0.058632 	4912 	0.057916
35.99 	0.063981 	4939 	0.063032
36.01 	0.058621 	4930 	0.057908
36.03 	0.054623 	4943 	0.053675
36.05 	0.054398 	4945 	0.053806
36.07 	0.057704 	4939 	0.056992
36.09 	0.060324 	4940 	0.058664
36.11 	0.055589 	4929 	0.054757
36.13 	0.052003 	4942 	0.051174
36.15 	0.063778 	4939 	0.061861
36.17 	0.058274 	4925 	0.056966
36.19 	0.053441 	4940 	0.052848
36.21 	0.051938 	4929 	0.051581
36.23 	0.056738 	4935 	0.055907
36.25 	0.055252 	4941 	0.054896
36.27 	0.051980 	4925 	0.051385
36.29 	0.058609 	4931 	0.057658
36.31 	0.058442 	4928 	0.057491
36.33 	0.060207 	4933 	0.058663
36.35 	0.055589 	4929 	0.054025
36.37 	0.058095 	4923 	0.057024
36.39 	0.060963 	4921 	0.059515
36.41 	0.054330 	4896 	0.053851
36.43 	0.057833 	4928 	0.056268
36.45 	0.055984 	4930 	0.055746
36.47 	0.059360 	4936 	0.057936
36.49 	0.057871 	4942 	0.056923
36.51 	0.054936 	4933 	0.054224
36.53 	0.058264 	4943 	0.057553
36.55 	0.052973 	4927 	0.052141
36.57 	0.057965 	4934 	0.057015
36.59 	0.057097 	4939 	0.055911
36.61 	0.057189 	4931 	0.056476
36.63 	0.058609 	4931 	0.058015
36.65 	0.055353 	4932 	0.054996
36.67 	0.058215 	4930 	0.057383
36.69 	0.062690 	4929 	0.061858
36.71 	0.064215 	4921 	0.063143
36.73 	0.055228 	4925 	0.054277
36.75 	0.056634 	4944 	0.055449
36.77 	0.050823 	4919 	0.050228
36.79 	0.053648 	4921 	0.052457
36.81 	0.059194 	4916 	0.057884
36.83 	0.057375 	4915 	0.056660
36.85 	0.060841 	4898 	0.059984
36.87 	0.055016 	4944 	0.054661
36.89 	0.058788 	4916 	0.057715
36.91 	0.055050 	4941 	0.054457
36.93 	0.056592 	4930 	0.055503
36.95 	0.055342 	4933 	0.054372
36.97 	0.061816 	4934 	0.060985
36.99 	0.053901 	4935 	0.052595
37.01 	0.069329 	4933 	0.067884
37.03 	0.061738 	4924 	0.060648
37.05 	0.053379 	4927 	0.052428
37.07 	0.052077 	4935 	0.051365
37.09 	0.057224 	4928 	0.056511
37.11 	0.059980 	4935 	0.058180
37.13 	0.060723 	4924 	0.059295
37.15 	0.053779 	4909 	0.052705
37.17 	0.060397 	4934 	0.059804
37.19 	0.052792 	4925 	0.051840
37.21 	0.058369 	4917 	0.056920
37.23 	0.055917 	4918 	0.055202
37.25 	0.055793 	4911 	0.055077
37.27 	0.057213 	4894 	0.056495
37.29 	0.057404 	4930 	0.056196
37.31 	0.058156 	4935 	0.056356
37.33 	0.058250 	4927 	0.056943
37.35 	0.059133 	4938 	0.057828
37.37 	0.052770 	4927 	0.051819
37.39 	0.050091 	4931 	0.049378
37.41 	0.053944 	4931 	0.052994
37.43 	0.053528 	4932 	0.053053
37.45 	0.057880 	4924 	0.056333
37.47 	0.054169 	4929 	0.054050
37.49 	0.056673 	4923 	0.055840
37.51 	0.057166 	4933 	0.056572
37.53 	0.058548 	4919 	0.057834
37.55 	0.060243 	4930 	0.059887
37.57 	0.058071 	4925 	0.057219
37.59 	0.058596 	4915 	0.057027
37.61 	0.059732 	4922 	0.058760
37.63 	0.058142 	4919 	0.056832
37.65 	0.059374 	4918 	0.058421
37.67 	0.057708 	4904 	0.056991
37.69 	0.057779 	4898 	0.056702
37.71 	0.052952 	4929 	0.052100
37.73 	0.057010 	4929 	0.055802
37.75 	0.050202 	4940 	0.049965
37.77 	0.056707 	4920 	0.055993
37.79 	0.050710 	4930 	0.050235
37.81 	0.055747 	4933 	0.055035
37.83 	0.050000 	4920 	0.049286
37.85 	0.049777 	4922 	0.048943
37.87 	0.060336 	4939 	0.059269
37.89 	0.056853 	4925 	0.055663
37.91 	0.058012 	4930 	0.057180
37.93 	0.052450 	4919 	0.051735
37.95 	0.055680 	4921 	0.055085
37.97 	0.051938 	4929 	0.050155
37.99 	0.057207 	4912 	0.055776
38.01 	0.063515 	4928 	0.062326
38.03 	0.056631 	4909 	0.055915
38.05 	0.061929 	4925 	0.061215
38.07 	0.055408 	4909 	0.054454
38.09 	0.052891 	4878 	0.052410
38.11 	0.063222 	4935 	0.062628
38.13 	0.057930 	4937 	0.056981
38.15 	0.061407 	4918 	0.059839
38.17 	0.066329 	4930 	0.064646
38.19 	0.057809 	4930 	0.057453
38.21 	0.058501 	4923 	0.057410
38.23 	0.064196 	4938 	0.063010
38.25 	0.056742 	4917 	0.056265
38.27 	0.068763 	4930 	0.067693
38.29 	0.077579 	4924 	0.076251
38.31 	0.067790 	4927 	0.066601
38.33 	0.076361 	4924 	0.074338
38.35 	0.071429 	4928 	0.069131
38.37 	0.077173 	4924 	0.074874
38.39 	0.079853 	4909 	0.077347
38.41 	0.079626 	4923 	0.078317
38.43 	0.077502 	4916 	0.075715
38.45 	0.079097 	4918 	0.077787
38.47 	0.082128 	4907 	0.080456
38.49 	0.080992 	4877 	0.079411
38.51 	0.078670 	4932 	0.077482
38.53 	0.085007 	4929 	0.082630
38.55 	0.074959 	4936 	0.073397
38.57 	0.081251 	4923 	0.079347
38.59 	0.079204 	4924 	0.078252
38.61 	0.073947 	4936 	0.072760
38.63 	0.075751 	4924 	0.074324
38.65 	0.076047 	4918 	0.074717
38.67 	0.072109 	4937 	0.071041
38.69 	0.067452 	4922 	0.066024
38.71 	0.072299 	4924 	0.070633
38.73 	0.061814 	4918 	0.060603
38.75 	0.058453 	4927 	0.057502
38.77 	0.060329 	4923 	0.059496
38.79 	0.059789 	4934 	0.058602
38.81 	0.064739 	4912 	0.064024
38.83 	0.055702 	4919 	0.054750
38.85 	0.053950 	4912 	0.053353
38.87 	0.060680 	4911 	0.060084
38.89 	0.052685 	4897 	0.051968
38.91 	0.056700 	4903 	0.055983
38.93 	0.052045 	4938 	0.051096
38.95 	0.050630 	4918 	0.050154
38.97 	0.049888 	4931 	0.049176
38.99 	0.046182 	4937 	0.045332
39.01 	0.050630 	4918 	0.049558
39.03 	0.048237 	4934 	0.047881
39.05 	0.050355 	4925 	0.049880
39.07 	0.055849 	4924 	0.054421
39.09 	0.054235 	4923 	0.053164
39.11 	0.046035 	4931 	0.045916
39.13 	0.048751 	4923 	0.048156
39.15 	0.045982 	4915 	0.045863
39.17 	0.051246 	4937 	0.050396
39.19 	0.044539 	4917 	0.043705
39.21 	0.047658 	4910 	0.046942
39.23 	0.044467 	4925 	0.043753
39.25 	0.048557 	4922 	0.047843
39.27 	0.045010 	4910 	0.044772
39.29 	0.043665 	4901 	0.043067
39.31 	0.051802 	4884 	0.051202
39.33 	0.048266 	4931 	0.047553
39.35 	0.043972 	4935 	0.043497
39.37 	0.049503 	4929 	0.049146
39.39 	0.040373 	4929 	0.039779
39.41 	0.050700 	4931 	0.050106
39.43 	0.045814 	4933 	0.045339
39.45 	0.045685 	4925 	0.045447
39.47 	0.041844 	4923 	0.041487
39.49 	0.043989 	4933 	0.043277
39.51 	0.047116 	4924 	0.046521
39.53 	0.043266 	4923 	0.042671
39.55 	0.045538 	4919 	0.045300
39.57 	0.048652 	4933 	0.047939
39.59 	0.044585 	4912 	0.044108
39.61 	0.044282 	4923 	0.043806
39.63 	0.048964 	4922 	0.047774
39.65 	0.042022 	4926 	0.041784
39.67 	0.040912 	4913 	0.040793
39.69 	0.043531 	4916 	0.042936
39.71 	0.048212 	4895 	0.047494
39.73 	0.051548 	4908 	0.050952
39.75 	0.045657 	4928 	0.044687
39.77 	0.047011 	4935 	0.046418
39.79 	0.044052 	4926 	0.043220
39.81 	0.043231 	4927 	0.042993
39.83 	0.042562 	4934 	0.042206
39.85 	0.041607 	4927 	0.041370
39.87 	0.046294 	4925 	0.045918
39.89 	0.043778 	4934 	0.043184
39.91 	0.042462 	4922 	0.041867
39.93 	0.040916 	4937 	0.040441
39.95 	0.046592 	4915 	0.045877
39.97 	0.044237 	4928 	0.043524
39.99 	0.041160 	4932 	0.040685
40.01 	0.038430 	4918 	0.037835
40.03 	0.041802 	4928 	0.041326
40.05 	0.040065 	4917 	0.039708
40.07 	0.042860 	4923 	0.042384
40.09 	0.043124 	4916 	0.042479
40.11 	0.041294 	4916 	0.040698
40.13 	0.041462 	4896 	0.040984
40.15 	0.043965 	4913 	0.043250
40.17 	0.039570 	4928 	0.039332
40.19 	0.041388 	4929 	0.040556
40.21 	0.042148 	4935 	0.041554
40.23 	0.043593 	4932 	0.042999
40.25 	0.036382 	4920 	0.035906
40.27 	0.043954 	4937 	0.043005
40.29 	0.049523 	4927 	0.048810
40.31 	0.047378 	4939 	0.046073
40.33 	0.041565 	4932 	0.040853
40.35 	0.048587 	4919 	0.047754
40.37 	0.045851 	4929 	0.044881
40.39 	0.043602 	4931 	0.043245
40.41 	0.041015 	4925 	0.040421
40.43 	0.042462 	4922 	0.042224
40.45 	0.039732 	4933 	0.039732
40.47 	0.044734 	4918 	0.044138
40.49 	0.043646 	4926 	0.043051
40.51 	0.043072 	4922 	0.042596
40.53 	0.044142 	4916 	0.043427
40.55 	0.045029 	4908 	0.044173
40.57 	0.035583 	4890 	0.034744
40.59 	0.040713 	4937 	0.039764
40.61 	0.038703 	4935 	0.038584
40.63 	0.046247 	4930 	0.046129
40.65 	0.040916 	4937 	0.040322
40.67 	0.035685 	4932 	0.034735
40.69 	0.045169 	4937 	0.044576
40.71 	0.043998 	4932 	0.042929
40.73 	0.039180 	4926 	0.038804
40.75 	0.040357 	4931 	0.040001
40.77 	0.040696 	4939 	0.040459
40.79 	0.040008 	4924 	0.039651
40.81 	0.042704 	4941 	0.042467
40.83 	0.041802 	4928 	0.041564
40.85 	0.040820 	4924 	0.040345
40.87 	0.041396 	4928 	0.040921
40.89 	0.040763 	4931 	0.039693
40.91 	0.043876 	4923 	0.043519
40.93 	0.044589 	4934 	0.043639
40.95 	0.040505 	4913 	0.040266
40.97 	0.037977 	4924 	0.037858
40.99 	0.038587 	4924 	0.038230
41.01 	0.038884 	4912 	0.038407
41.03 	0.041998 	4905 	0.041281
41.05 	0.041532 	4936 	0.040820
41.07 	0.044625 	4930 	0.044031
41.09 	0.043126 	4939 	0.042415
41.11 	0.038501 	4935 	0.037907
41.13 	0.044165 	4936 	0.043691
41.15 	0.040478 	4941 	0.040241
41.17 	0.036482 	4934 	0.036007
41.19 	0.040162 	4930 	0.039568
41.21 	0.043346 	4937 	0.043109
41.23 	0.044341 	4939 	0.043728
41.25 	0.038922 	4933 	0.038447
41.27 	0.043602 	4931 	0.043127
41.29 	0.043019 	4928 	0.042643
41.31 	0.039530 	4933 	0.038936
41.33 	0.041118 	4937 	0.040881
41.35 	0.035237 	4938 	0.035118
41.37 	0.040820 	4924 	0.040583
41.39 	0.043787 	4933 	0.043430
41.41 	0.039180 	4926 	0.038566
41.43 	0.042605 	4929 	0.042130
41.45 	0.041311 	4914 	0.040715
41.47 	0.040195 	4926 	0.039600
41.49 	0.039452 	4892 	0.038973
41.51 	0.043725 	4940 	0.042776
41.53 	0.038633 	4944 	0.038277
41.55 	0.041337 	4935 	0.040744
41.57 	0.041287 	4941 	0.040694
41.59 	0.040341 	4933 	0.039984
41.61 	0.046437 	4953 	0.045845
41.63 	0.040705 	4938 	0.040349
41.65 	0.038142 	4929 	0.038142
41.67 	0.046761 	4940 	0.046168
41.69 	0.040631 	4947 	0.039920
41.71 	0.044994 	4934 	0.044638
41.73 	0.037682 	4936 	0.037445
41.75 	0.036924 	4929 	0.036449
41.77 	0.034608 	4941 	0.034371
41.79 	0.033374 	4944 	0.032781
41.81 	0.038088 	4936 	0.037613
41.83 	0.040787 	4928 	0.040550
41.85 	0.034825 	4939 	0.034588
41.87 	0.041540 	4935 	0.040828
41.89 	0.044395 	4933 	0.044039
41.91 	0.039911 	4936 	0.039792
41.93 	0.038118 	4932 	0.037525
41.95 	0.046035 	4931 	0.045798
41.97 	0.041514 	4914 	0.041395
41.99 	0.039551 	4905 	0.038715
42.01 	0.034601 	4942 	0.033890
42.03 	0.044341 	4939 	0.044104
42.05 	0.036551 	4952 	0.035723
42.07 	0.037472 	4937 	0.037472
42.09 	0.036176 	4948 	0.035584
42.11 	0.041658 	4945 	0.040573
42.13 	0.039636 	4945 	0.039281
42.15 	0.039490 	4938 	0.039015
42.17 	0.041277 	4918 	0.040562
42.19 	0.041565 	4908 	0.041207
42.21 	0.032238 	4901 	0.031999
42.23 	0.039248 	4892 	0.038769
42.25 	0.040090 	4889 	0.039611
42.27 	0.042265 	4874 	0.041784
42.29 	0.039893 	4863 	0.039532
42.31 	0.034604 	4855 	0.034000
42.33 	0.033099 	4834 	0.032735
42.35 	0.037205 	4838 	0.036842
42.37 	0.045135 	4830 	0.044407
42.39 	0.036012 	4804 	0.035260
42.41 	0.039967 	4804 	0.039357
42.43 	0.040067 	4792 	0.039822
42.45 	0.039782 	4776 	0.039169
42.47 	0.037356 	4765 	0.036864
42.49 	0.033158 	4765 	0.032913
42.51 	0.037318 	4743 	0.036927
42.53 	0.039552 	4728 	0.039180
42.55 	0.036746 	4708 	0.036746
42.57 	0.038689 	4730 	0.037946
42.59 	0.037217 	4729 	0.036969
42.61 	0.035896 	4708 	0.035772
42.63 	0.034402 	4709 	0.033780
42.65 	0.036926 	4685 	0.036801
42.67 	0.039496 	4684 	0.039121
42.69 	0.039367 	4674 	0.038740
42.71 	0.044178 	4663 	0.043675
42.73 	0.040302 	4640 	0.039923
42.75 	0.040286 	4617 	0.039905
42.77 	0.035870 	4600 	0.035615
42.79 	0.038193 	4582 	0.038065
42.81 	0.042744 	4562 	0.042231
42.83 	0.042328 	4536 	0.041811
42.85 	0.035777 	4528 	0.035389
42.87 	0.035786 	4499 	0.035374
42.89 	0.033482 	4480 	0.033221
42.91 	0.042639 	4456 	0.041719
42.93 	0.039586 	4446 	0.039059
42.95 	0.037364 	4416 	0.036966
42.97 	0.035901 	4401 	0.035369
42.99 	0.040593 	4385 	0.040593
43.01 	0.035297 	4363 	0.034760
43.03 	0.035772 	4333 	0.035637
43.05 	0.034451 	4325 	0.033909
43.07 	0.037709 	4296 	0.037164
43.09 	0.032921 	4283 	0.032647
43.11 	0.043478 	4255 	0.042790
43.13 	0.035874 	4237 	0.035183
43.15 	0.035663 	4206 	0.035385
43.17 	0.036612 	4179 	0.036191
43.19 	0.044111 	4194 	0.043692
43.21 	0.037872 	4172 	0.037591
43.23 	0.032258 	4154 	0.031976
43.25 	0.037001 	4135 	0.036576
43.27 	0.043605 	4105 	0.043177
43.29 	0.038537 	4100 	0.037965
43.31 	0.039470 	4079 	0.039470
43.33 	0.039003 	4051 	0.038858
43.35 	0.037450 	4032 	0.037450
43.37 	0.033624 	4015 	0.033332
43.39 	0.034983 	4002 	0.034543
43.41 	0.040282 	3972 	0.039840
43.43 	0.039394 	3960 	0.038950
43.45 	0.034816 	3935 	0.034369
43.47 	0.031370 	3921 	0.031071
43.49 	0.045420 	3897 	0.044818
43.51 	0.036110 	3877 	0.035959
43.53 	0.039607 	3863 	0.039152
43.55 	0.035425 	2964 	0.035227
43.57 	0.037980 	2238 	0.037719
43.59 	0.038946 	1746 	0.038275
43.61 	0.038490 	1351 	0.037623
43.63 	0.029970 	1001 	0.029970
43.65 	0.042213 	687 	0.041360
43.67 	0.025896 	502 	0.024730
43.69 	0.038147 	367 	0.038147
43.71 	0.029289 	239 	0.029289
43.73 	0.083333 	120 	0.083333
43.75 	0.000000 	16 	0.000000