File: Example_Data/25SC_s1_0019.003.dat
#F C:\frames\spec\25SC_s1_0019.003
#C title =s:19 frm:3 25SC_s1
#C wavelength =0.15406

#S 1  fr_average C:\frames\spec\25SC_s1_0019.003 C:\win32app\speccom\mask.axs chi 0 180 0 360 0.02
#C 2 theta =0.000000 to 180 deg
#C   q   =0.000000 to 81.568 nm^-1
#C  chi  =0.000000 to 360 deg
#C collumns:
#C  1 position (2theta or chi in degrees)
#C  2 average intensity (sum of all counts in the region divided with number of pixels)
#C  3 Number of pixels in region)
#C  4 error (sum of sqrt(intensity) for all pixels divided by number)
#N 4
#L TTh  Int  N_pix  Err
32.99 	0.049180 	61 	0.049180
33.01 	0.071019 	873 	0.070348
33.03 	0.061826 	1391 	0.059720
33.05 	0.063745 	1757 	0.062078
33.07 	0.055610 	2050 	0.054181
33.09 	0.056668 	2347 	0.055919
33.11 	0.061652 	2579 	0.060743
33.13 	0.058718 	2793 	0.058089
33.15 	0.067689 	2999 	0.065736
33.17 	0.053733 	3201 	0.052269
33.19 	0.061939 	3342 	0.061238
33.21 	0.058498 	3436 	0.057816
33.23 	0.060176 	3523 	0.059317
33.25 	0.054540 	3612 	0.053730
33.27 	0.062259 	3630 	0.061291
33.29 	0.062226 	3648 	0.061102
33.31 	0.053005 	3660 	0.052205
33.33 	0.063755 	3686 	0.062139
33.35 	0.063075 	3694 	0.062441
33.37 	0.058158 	3714 	0.057054
33.39 	0.061142 	3729 	0.060043
33.41 	0.063369 	3740 	0.061959
33.43 	0.063547 	3761 	0.062301
33.45 	0.055394 	3773 	0.054307
33.47 	0.062138 	3798 	0.061058
33.49 	0.054608 	3809 	0.053377
33.51 	0.067104 	3815 	0.065568
33.53 	0.061703 	3841 	0.060915
33.55 	0.053864 	3843 	0.053254
33.57 	0.061130 	3877 	0.060676
33.59 	0.061856 	3880 	0.060623
33.61 	0.064722 	3909 	0.063224
33.63 	0.057157 	3919 	0.056087
33.65 	0.068176 	3931 	0.067133
33.67 	0.060445 	3954 	0.059087
33.69 	0.059449 	3953 	0.058856
33.71 	0.057610 	3975 	0.056578
33.73 	0.057942 	4004 	0.056625
33.75 	0.060265 	3999 	0.059240
33.77 	0.059876 	4025 	0.058857
33.79 	0.056669 	4041 	0.055944
33.81 	0.063645 	4038 	0.062775
33.83 	0.058519 	4050 	0.057940
33.85 	0.058307 	4099 	0.057592
33.87 	0.057650 	4111 	0.057223
33.89 	0.053628 	4121 	0.053343
33.91 	0.059532 	4149 	0.058685
33.93 	0.061913 	4151 	0.060337
33.95 	0.058120 	4181 	0.057279
33.97 	0.058950 	4190 	0.058111
33.99 	0.058810 	4200 	0.057950
34.01 	0.065986 	4213 	0.065013
34.03 	0.057493 	4244 	0.056251
34.05 	0.061618 	4252 	0.060654
34.07 	0.050609 	4268 	0.049923
34.09 	0.055763 	4286 	0.054670
34.11 	0.060437 	4302 	0.060165
34.13 	0.062210 	4308 	0.061394
34.15 	0.064419 	4331 	0.063473
34.17 	0.058391 	4350 	0.056910
34.19 	0.062127 	4362 	0.060785
34.21 	0.060169 	4371 	0.059767
34.23 	0.064648 	4393 	0.063182
34.25 	0.059491 	4404 	0.058161
34.27 	0.052013 	4422 	0.051085
34.29 	0.055693 	4435 	0.054637
34.31 	0.060565 	4458 	0.059514
34.33 	0.056363 	4471 	0.055577
34.35 	0.057761 	4484 	0.056716
34.37 	0.059452 	4491 	0.058539
34.39 	0.059973 	4502 	0.058802
34.41 	0.062970 	4526 	0.061675
34.43 	0.055959 	4539 	0.054540
34.45 	0.059096 	4535 	0.058041
34.47 	0.051394 	4592 	0.050501
34.49 	0.059387 	4597 	0.058495
34.51 	0.069909 	4606 	0.068637
34.53 	0.062890 	4643 	0.062007
34.55 	0.059875 	4643 	0.058992
34.57 	0.062876 	4660 	0.061241
34.59 	0.059037 	4675 	0.058411
34.61 	0.063445 	4697 	0.062198
34.63 	0.058386 	4710 	0.057143
34.65 	0.057191 	4721 	0.056199
34.67 	0.058637 	4741 	0.057649
34.69 	0.060791 	4754 	0.059312
34.71 	0.060218 	4766 	0.059235
34.73 	0.064132 	4787 	0.063275
34.75 	0.064060 	4808 	0.062598
34.77 	0.060606 	4818 	0.059147
34.79 	0.055556 	4824 	0.054948
34.81 	0.062126 	4845 	0.061038
34.83 	0.060263 	4862 	0.059661
34.85 	0.061204 	4869 	0.060221
34.87 	0.057313 	4868 	0.056711
34.89 	0.058173 	4882 	0.057573
34.91 	0.058173 	4882 	0.057453
34.93 	0.058583 	4899 	0.058105
34.95 	0.059305 	4890 	0.058107
34.97 	0.056100 	4902 	0.054885
34.99 	0.062487 	4897 	0.061291
35.01 	0.053626 	4923 	0.053150
35.03 	0.062917 	4943 	0.061476
35.05 	0.063271 	4947 	0.062205
35.07 	0.056883 	4940 	0.056053
35.09 	0.066021 	4953 	0.064838
35.11 	0.055589 	4947 	0.054504
35.13 	0.057079 	4958 	0.056115
35.15 	0.059550 	4937 	0.058838
35.17 	0.064699 	4946 	0.063514
35.19 	0.057062 	4942 	0.056232
35.21 	0.053185 	4945 	0.052356
35.23 	0.063498 	4945 	0.062669
35.25 	0.058871 	4943 	0.058397
35.27 	0.052951 	4948 	0.052122
35.29 	0.059656 	4945 	0.059301
35.31 	0.067707 	4933 	0.065788
35.33 	0.057860 	4943 	0.056793
35.35 	0.060704 	4942 	0.060112
35.37 	0.059121 	4939 	0.057441
35.39 	0.055814 	4945 	0.055340
35.41 	0.062728 	4926 	0.061896
35.43 	0.063248 	4933 	0.061941
35.45 	0.061171 	4937 	0.059747
35.47 	0.063070 	4931 	0.061506
35.49 	0.063951 	4910 	0.062470
35.51 	0.059683 	4926 	0.058613
35.53 	0.050313 	4949 	0.050076
35.55 	0.056218 	4945 	0.055626
35.57 	0.062031 	4933 	0.060606
35.59 	0.062285 	4945 	0.061456
35.61 	0.061311 	4942 	0.060244
35.63 	0.056848 	4943 	0.055900
35.65 	0.062487 	4945 	0.061421
35.67 	0.063335 	4942 	0.062386
35.69 	0.054185 	4946 	0.053593
35.71 	0.060563 	4937 	0.059851
35.73 	0.055105 	4936 	0.054275
35.75 	0.061245 	4931 	0.060414
35.77 	0.062614 	4951 	0.061549
35.79 	0.056569 	4932 	0.055975
35.81 	0.055342 	4933 	0.054372
35.83 	0.061666 	4946 	0.060719
35.85 	0.059574 	4935 	0.058625
35.87 	0.058298 	4923 	0.057227
35.89 	0.062829 	4934 	0.061880
35.91 	0.057439 	4927 	0.056844
35.93 	0.052567 	4927 	0.051973
35.95 	0.055725 	4917 	0.055129
35.97 	0.053339 	4912 	0.052265
35.99 	0.048593 	4939 	0.048118
36.01 	0.055172 	4930 	0.054103
36.03 	0.056241 	4943 	0.055767
36.05 	0.059454 	4945 	0.058368
36.07 	0.058109 	4939 	0.057635
36.09 	0.054049 	4940 	0.052863
36.11 	0.062082 	4929 	0.060992
36.13 	0.058478 	4942 	0.057886
36.15 	0.061551 	4939 	0.060365
36.17 	0.058477 	4925 	0.057764
36.19 	0.056883 	4940 	0.055815
36.21 	0.055386 	4929 	0.054555
36.23 	0.059574 	4935 	0.058862
36.25 	0.055454 	4941 	0.054842
36.27 	0.052386 	4925 	0.051534
36.29 	0.058203 	4931 	0.057134
36.31 	0.058036 	4928 	0.056689
36.33 	0.057774 	4933 	0.056824
36.35 	0.055184 	4929 	0.053757
36.37 	0.060126 	4923 	0.058698
36.39 	0.059541 	4921 	0.058827
36.41 	0.055964 	4896 	0.055485
36.43 	0.055601 	4928 	0.054650
36.45 	0.058215 	4930 	0.057502
36.47 	0.060575 	4936 	0.059270
36.49 	0.054229 	4942 	0.053399
36.51 	0.058382 	4933 	0.057551
36.53 	0.055837 	4943 	0.054770
36.55 	0.059265 	4927 	0.058314
36.57 	0.059384 	4934 	0.058434
36.59 	0.058109 	4939 	0.057635
36.61 	0.062868 	4931 	0.061086
36.63 	0.060637 	4931 	0.059805
36.65 	0.059611 	4932 	0.058661
36.67 	0.055984 	4930 	0.055033
36.69 	0.053763 	4929 	0.053407
36.71 	0.056086 	4921 	0.054995
36.73 	0.055228 	4925 	0.054515
36.75 	0.058252 	4944 	0.057186
36.77 	0.062411 	4919 	0.061101
36.79 	0.054054 	4921 	0.053459
36.81 	0.051465 	4916 	0.050392
36.83 	0.053713 	4915 	0.052402
36.85 	0.053491 	4898 	0.052893
36.87 	0.055623 	4944 	0.054201
36.89 	0.057771 	4916 	0.056817
36.91 	0.055050 	4941 	0.053963
36.93 	0.058012 	4930 	0.057537
36.95 	0.056355 	4933 	0.055880
36.97 	0.051480 	4934 	0.050767
36.99 	0.057953 	4935 	0.057004
37.01 	0.053720 	4933 	0.052651
37.03 	0.053818 	4924 	0.052866
37.05 	0.051756 	4927 	0.051756
37.07 	0.053293 	4935 	0.052343
37.09 	0.054383 	4928 	0.053194
37.11 	0.052077 	4935 	0.051127
37.13 	0.050772 	4924 	0.049582
37.15 	0.057242 	4909 	0.055671
37.17 	0.051885 	4934 	0.051291
37.19 	0.055838 	4925 	0.054985
37.21 	0.053691 	4917 	0.052976
37.23 	0.053070 	4918 	0.052475
37.25 	0.057015 	4911 	0.056299
37.27 	0.059256 	4894 	0.058538
37.29 	0.054564 	4930 	0.053356
37.31 	0.061398 	4935 	0.060092
37.33 	0.053988 	4927 	0.053037
37.35 	0.062171 	4938 	0.060214
37.37 	0.054191 	4927 	0.053597
37.39 	0.059623 	4931 	0.058672
37.41 	0.052119 	4931 	0.051882
37.43 	0.050284 	4932 	0.049690
37.45 	0.057474 	4924 	0.056641
37.47 	0.051735 	4929 	0.050903
37.49 	0.057282 	4923 	0.055973
37.51 	0.050882 	4933 	0.050150
37.53 	0.052856 	4919 	0.052261
37.55 	0.054158 	4930 	0.052832
37.57 	0.057259 	4925 	0.056069
37.59 	0.051679 	4915 	0.050348
37.61 	0.048354 	4922 	0.047997
37.63 	0.051840 	4919 	0.051006
37.65 	0.053274 	4918 	0.052440
37.67 	0.052202 	4904 	0.051366
37.69 	0.058800 	4898 	0.057345
37.71 	0.051126 	4929 	0.050294
37.73 	0.053763 	4929 	0.052813
37.75 	0.055061 	4940 	0.054231
37.77 	0.055894 	4920 	0.054942
37.79 	0.051927 	4930 	0.050739
37.81 	0.052909 	4933 	0.052078
37.83 	0.048984 	4920 	0.048507
37.85 	0.057091 	4922 	0.056377
37.87 	0.046366 	4939 	0.045635
37.89 	0.061320 	4925 	0.060249
37.91 	0.053550 	4930 	0.052599
37.93 	0.049807 	4919 	0.049211
37.95 	0.055477 	4921 	0.054762
37.97 	0.050517 	4929 	0.049567
37.99 	0.053135 	4912 	0.052658
38.01 	0.055195 	4928 	0.054482
38.03 	0.053168 	4909 	0.052213
38.05 	0.048325 	4925 	0.047492
38.07 	0.053168 	4909 	0.052571
38.09 	0.049610 	4878 	0.048870
38.11 	0.053698 	4935 	0.052630
38.13 	0.054081 	4937 	0.052895
38.15 	0.049817 	4918 	0.048983
38.17 	0.052333 	4930 	0.051620
38.19 	0.059635 	4930 	0.058566
38.21 	0.049563 	4923 	0.049087
38.23 	0.053463 	4938 	0.052988
38.25 	0.051454 	4917 	0.050144
38.27 	0.054970 	4930 	0.053306
38.29 	0.062348 	4924 	0.061396
38.31 	0.063528 	4927 	0.062457
38.33 	0.056864 	4924 	0.056032
38.35 	0.058036 	4928 	0.056590
38.37 	0.056864 	4924 	0.055913
38.39 	0.060501 	4909 	0.059069
38.41 	0.061751 	4923 	0.061275
38.43 	0.056957 	4916 	0.055765
38.45 	0.063847 	4918 	0.062656
38.47 	0.061545 	4907 	0.060948
38.49 	0.060283 	4877 	0.059442
38.51 	0.063666 	4932 	0.063072
38.53 	0.058430 	4929 	0.057004
38.55 	0.057131 	4936 	0.056301
38.57 	0.063376 	4923 	0.060719
38.59 	0.062551 	4924 	0.061480
38.61 	0.052269 	4936 	0.051181
38.63 	0.062145 	4924 	0.060836
38.65 	0.060390 	4918 	0.059676
38.67 	0.055904 	4937 	0.054342
38.69 	0.058919 	4922 	0.058086
38.71 	0.054427 	4924 	0.053476
38.73 	0.053477 	4918 	0.053001
38.75 	0.059874 	4927 	0.059161
38.77 	0.055657 	4923 	0.054705
38.79 	0.051885 	4934 	0.051054
38.81 	0.052524 	4912 	0.051332
38.83 	0.050620 	4919 	0.049667
38.85 	0.048453 	4912 	0.047499
38.87 	0.047241 	4911 	0.046764
38.89 	0.047376 	4897 	0.046299
38.91 	0.050581 	4903 	0.049864
38.93 	0.053260 	4938 	0.052430
38.95 	0.046360 	4918 	0.045765
38.97 	0.048874 	4931 	0.048043
38.99 	0.054689 	4937 	0.053740
39.01 	0.046970 	4918 	0.046375
39.03 	0.053101 	4934 	0.051676
39.05 	0.050558 	4925 	0.049845
39.07 	0.046507 	4924 	0.046031
39.09 	0.046719 	4923 	0.045768
39.11 	0.042182 	4931 	0.041707
39.13 	0.045704 	4923 	0.044752
39.15 	0.046389 	4915 	0.046150
39.17 	0.050841 	4937 	0.049654
39.19 	0.047183 	4917 	0.045634
39.21 	0.048065 	4910 	0.047588
39.23 	0.046497 	4925 	0.045903
39.25 	0.049777 	4922 	0.049300
39.27 	0.047658 	4910 	0.046703
39.29 	0.047541 	4901 	0.046944
39.31 	0.052416 	4884 	0.051317
39.33 	0.046238 	4931 	0.045763
39.35 	0.044580 	4935 	0.043749
39.37 	0.050314 	4929 	0.048988
39.39 	0.049300 	4929 	0.048825
39.41 	0.047049 	4931 	0.046455
39.43 	0.046017 	4933 	0.045185
39.45 	0.049746 	4925 	0.048557
39.47 	0.049563 	4923 	0.048849
39.49 	0.045206 	4933 	0.044731
39.51 	0.053412 	4924 	0.052817
39.53 	0.047329 	4923 	0.046496
39.55 	0.047367 	4919 	0.046653
39.57 	0.050071 	4933 	0.049477
39.59 	0.053135 	4912 	0.052758
39.61 	0.044485 	4923 	0.044009
39.63 	0.050996 	4922 	0.049924
39.65 	0.044052 	4926 	0.043576
39.67 	0.046407 	4913 	0.045811
39.69 	0.050448 	4916 	0.049971
39.71 	0.048621 	4895 	0.048023
39.73 	0.040546 	4908 	0.039949
39.75 	0.052963 	4928 	0.052012
39.77 	0.056535 	4935 	0.055704
39.79 	0.051563 	4926 	0.050850
39.81 	0.048305 	4927 	0.047572
39.83 	0.053506 	4934 	0.052675
39.85 	0.046885 	4927 	0.046528
39.87 	0.050761 	4925 	0.049691
39.89 	0.046413 	4934 	0.045819
39.91 	0.047745 	4922 	0.047031
39.93 	0.045979 	4937 	0.045267
39.95 	0.049034 	4915 	0.048438
39.97 	0.050731 	4928 	0.049542
39.99 	0.052717 	4932 	0.052004
40.01 	0.043514 	4918 	0.043156
40.03 	0.045252 	4928 	0.044776
40.05 	0.051251 	4917 	0.050655
40.07 	0.046923 	4923 	0.045971
40.09 	0.044345 	4916 	0.043749
40.11 	0.042107 	4916 	0.041273
40.13 	0.046364 	4896 	0.046125
40.15 	0.049461 	4913 	0.048984
40.17 	0.045049 	4928 	0.044573
40.19 	0.049706 	4929 	0.049230
40.21 	0.048632 	4935 	0.048157
40.23 	0.044607 	4932 	0.043894
40.25 	0.048780 	4920 	0.047828
40.27 	0.048005 	4937 	0.047174
40.29 	0.047493 	4927 	0.046780
40.31 	0.048998 	4939 	0.048049
40.33 	0.049676 	4932 	0.049200
40.35 	0.048790 	4919 	0.048076
40.37 	0.040373 	4929 	0.039898
40.39 	0.046846 	4931 	0.045758
40.41 	0.048122 	4925 	0.047170
40.43 	0.041447 	4922 	0.040971
40.45 	0.049868 	4933 	0.049156
40.47 	0.044530 	4918 	0.043816
40.49 	0.049533 	4926 	0.048701
40.51 	0.038196 	4922 	0.037720
40.53 	0.049430 	4916 	0.049073
40.55 	0.047677 	4908 	0.047080
40.57 	0.045399 	4890 	0.044201
40.59 	0.050233 	4937 	0.049521
40.61 	0.045593 	4935 	0.044624
40.63 	0.042799 	4930 	0.042324
40.65 	0.045777 	4937 	0.045065
40.67 	0.045215 	4932 	0.044265
40.69 	0.052461 	4937 	0.051749
40.71 	0.048459 	4932 	0.047746
40.73 	0.041007 	4926 	0.040531
40.75 	0.049686 	4931 	0.048973
40.77 	0.053047 	4939 	0.052454
40.79 	0.049350 	4924 	0.048874
40.81 	0.051002 	4941 	0.050290
40.83 	0.046469 	4928 	0.046350
40.85 	0.042039 	4924 	0.041682
40.87 	0.039773 	4928 	0.038584
40.89 	0.048469 	4931 	0.047499
40.91 	0.047329 	4923 	0.046615
40.93 	0.051277 	4934 	0.050683
40.95 	0.043761 	4913 	0.043404
40.97 	0.043664 	4924 	0.043426
40.99 	0.046304 	4924 	0.045947
41.01 	0.051914 	4912 	0.050840
41.03 	0.043425 	4905 	0.042828
41.05 	0.048015 	4936 	0.046828
41.07 	0.042596 	4930 	0.041983
41.09 	0.044543 	4939 	0.043595
41.11 	0.042553 	4935 	0.041960
41.13 	0.040519 	4936 	0.040281
41.15 	0.047359 	4941 	0.046410
41.17 	0.046007 	4934 	0.045295
41.19 	0.046045 	4930 	0.045688
41.21 	0.042333 	4937 	0.041365
41.23 	0.045556 	4939 	0.044844
41.25 	0.047436 	4933 	0.046604
41.27 	0.046441 	4931 	0.045609
41.29 	0.048093 	4928 	0.047379
41.31 	0.043381 	4933 	0.042768
41.33 	0.042333 	4937 	0.041859
41.35 	0.042527 	4938 	0.041816
41.37 	0.044070 	4924 	0.043951
41.39 	0.042368 	4933 	0.041893
41.41 	0.052375 	4926 	0.051899
41.43 	0.048489 	4929 	0.048132
41.45 	0.046398 	4914 	0.045444
41.47 	0.042428 	4926 	0.041952
41.49 	0.046402 	4892 	0.045923
41.51 	0.050202 	4940 	0.049491
41.53 	0.046926 	4944 	0.046096
41.55 	0.044580 	4935 	0.043986
41.57 	0.042704 	4941 	0.042230
41.59 	0.049260 	4933 	0.048310
41.61 	0.044619 	4953 	0.044028
41.63 	0.045970 	4938 	0.045496
41.65 	0.040779 	4929 	0.040423
41.67 	0.044534 	4940 	0.044060
41.69 	0.047301 	4947 	0.046709
41.71 	0.046210 	4934 	0.045854
41.73 	0.045989 	4936 	0.045277
41.75 	0.043619 	4929 	0.042906
41.77 	0.044323 	4941 	0.043829
41.79 	0.041262 	4944 	0.040551
41.81 	0.038493 	4936 	0.037899
41.83 	0.043831 	4928 	0.043475
41.85 	0.039279 	4939 	0.038449
41.87 	0.041945 	4935 	0.041708
41.89 	0.043584 	4933 	0.042515
41.91 	0.038088 	4936 	0.037969
41.93 	0.047242 	4932 	0.046649
41.95 	0.046035 	4931 	0.045323
41.97 	0.038055 	4914 	0.037697
41.99 	0.042406 	4905 	0.042047
42.01 	0.047552 	4942 	0.047196
42.03 	0.046771 	4939 	0.046296
42.05 	0.047859 	4952 	0.047130
42.07 	0.041726 	4937 	0.041488
42.09 	0.041835 	4948 	0.041480
42.11 	0.045298 	4945 	0.044588
42.13 	0.049949 	4945 	0.049594
42.15 	0.041312 	4938 	0.040956
42.17 	0.041480 	4918 	0.041123
42.19 	0.037897 	4908 	0.037181
42.21 	0.041828 	4901 	0.041111
42.23 	0.042723 	4892 	0.042244
42.25 	0.042135 	4889 	0.041656
42.27 	0.041650 	4874 	0.041529
42.29 	0.045034 	4863 	0.044673
42.31 	0.046550 	4855 	0.046168
42.33 	0.043029 	4834 	0.042665
42.35 	0.042993 	4838 	0.042630
42.37 	0.045963 	4830 	0.045599
42.39 	0.038926 	4804 	0.038438
42.41 	0.043922 	4804 	0.043190
42.43 	0.038606 	4792 	0.038117
42.45 	0.044807 	4776 	0.044439
42.47 	0.040923 	4765 	0.040309
42.49 	0.037146 	4765 	0.036777
42.51 	0.045752 	4743 	0.045381
42.53 	0.042513 	4728 	0.041893
42.55 	0.053526 	4708 	0.052406
42.57 	0.041649 	4730 	0.041030
42.59 	0.043138 	4729 	0.043014
42.61 	0.047579 	4708 	0.046583
42.63 	0.040561 	4709 	0.040063
42.65 	0.042476 	4685 	0.041726
42.67 	0.038429 	4684 	0.037428
42.69 	0.045999 	4674 	0.045122
42.71 	0.034956 	4663 	0.034830
42.73 	0.045905 	4640 	0.044874
42.75 	0.039853 	4617 	0.039218
42.77 	0.041739 	4600 	0.041484
42.79 	0.038848 	4582 	0.038592
42.81 	0.040991 	4562 	0.040734
42.83 	0.033069 	4536 	0.032940
42.85 	0.040415 	4528 	0.040156
42.87 	0.042676 	4499 	0.042286
42.89 	0.040625 	4480 	0.040233
42.91 	0.041517 	4456 	0.041386
42.93 	0.043410 	4446 	0.042883
42.95 	0.038723 	4416 	0.037927
42.97 	0.038855 	4401 	0.037923
42.99 	0.042873 	4385 	0.042339
43.01 	0.047903 	4363 	0.046963
43.03 	0.042003 	4333 	0.041733
43.05 	0.045549 	4325 	0.045143
43.07 	0.046089 	4296 	0.045544
43.09 	0.042727 	4283 	0.042454
43.11 	0.037133 	4255 	0.036720
43.13 	0.048855 	4237 	0.048164
43.15 	0.035426 	4206 	0.035286
43.17 	0.044508 	4179 	0.043527
43.19 	0.042203 	4194 	0.041365
43.21 	0.043624 	4172 	0.043063
43.23 	0.038999 	4154 	0.038717
43.25 	0.047400 	4135 	0.046692
43.27 	0.048234 	4105 	0.047520
43.29 	0.039268 	4100 	0.039268
43.31 	0.043393 	4079 	0.042531
43.33 	0.035300 	4051 	0.034288
43.35 	0.042659 	4032 	0.042223
43.37 	0.040100 	4015 	0.039808
43.39 	0.044728 	4002 	0.044289
43.41 	0.041541 	3972 	0.041098
43.43 	0.036869 	3960 	0.036277
43.45 	0.041169 	3935 	0.040425
43.47 	0.035195 	3921 	0.034896
43.49 	0.038748 	3897 	0.037996
43.51 	0.036626 	3877 	0.036324
43.53 	0.042454 	3863 	0.041999
43.55 	0.043860 	2964 	0.043069
43.57 	0.039321 	2238 	0.038274
43.59 	0.033792 	1746 	0.033456
43.61 	0.048113 	1351 	0.047245
43.63 	0.045954 	1001 	0.043613
43.65 	0.042213 	687 	0.042213
43.67 	0.029880 	502 	0.028714
43.69 	0.035422 	367 	0.033826
43.71 	0.037657 	239 	0.037657
43.73 	0.025000 	120 	0.025000
43.75 	0.062500 	16 	0.062500