File: Example_Data/25SC_s1_0002.001.dat
#F C:\frames\spec\25SC_s1_0002.001
#C title =s:2 frm:1 25SC_s1
#C wavelength =0.15406

#S 1  fr_average C:\frames\spec\25SC_s1_0002.001 C:\win32app\speccom\mask.axs chi 0 180 0 360 0.02
#C 2 theta =0.000000 to 180 deg
#C   q   =0.000000 to 81.568 nm^-1
#C  chi  =0.000000 to 360 deg
#C collumns:
#C  1 position (2theta or chi in degrees)
#C  2 average intensity (sum of all counts in the region divided with number of pixels)
#C  3 Number of pixels in region)
#C  4 error (sum of sqrt(intensity) for all pixels divided by number)
#N 4
#L TTh  Int  N_pix  Err
32.99 	0.098361 	61 	0.098361
33.01 	0.082474 	873 	0.080461
33.03 	0.085550 	1391 	0.083023
33.05 	0.071713 	1757 	0.069991
33.07 	0.068293 	2050 	0.066578
33.09 	0.069450 	2347 	0.068951
33.11 	0.084141 	2579 	0.082324
33.13 	0.073756 	2793 	0.072497
33.15 	0.073024 	2999 	0.071266
33.17 	0.066542 	3201 	0.064895
33.19 	0.069120 	3342 	0.067718
33.21 	0.071886 	3436 	0.070125
33.23 	0.076072 	3523 	0.073910
33.25 	0.070321 	3612 	0.068375
33.27 	0.071901 	3630 	0.070287
33.29 	0.074836 	3648 	0.073551
33.31 	0.074317 	3660 	0.072556
33.33 	0.067824 	3686 	0.066076
33.35 	0.073633 	3694 	0.072206
33.37 	0.078083 	3714 	0.076821
33.39 	0.079378 	3729 	0.076813
33.41 	0.070321 	3740 	0.069381
33.43 	0.065408 	3761 	0.064318
33.45 	0.075007 	3773 	0.072807
33.47 	0.068720 	3798 	0.067178
33.49 	0.073773 	3809 	0.071620
33.51 	0.071822 	3815 	0.069672
33.53 	0.072637 	3841 	0.070502
33.55 	0.062711 	3843 	0.062254
33.57 	0.074800 	3877 	0.072987
33.59 	0.070876 	3880 	0.069668
33.61 	0.074699 	3909 	0.074250
33.63 	0.072212 	3919 	0.070867
33.65 	0.063088 	3931 	0.062021
33.67 	0.068791 	3954 	0.067310
33.69 	0.066532 	3953 	0.065198
33.71 	0.074717 	3975 	0.072801
33.73 	0.076923 	4004 	0.075021
33.75 	0.068267 	3999 	0.066656
33.77 	0.068820 	4025 	0.067947
33.79 	0.066320 	4041 	0.065595
33.81 	0.071570 	4038 	0.070410
33.83 	0.071358 	4050 	0.070032
33.85 	0.069529 	4099 	0.069100
33.87 	0.075407 	4111 	0.074244
33.89 	0.077408 	4121 	0.075134
33.91 	0.074717 	4149 	0.073164
33.93 	0.070826 	4151 	0.069110
33.95 	0.061708 	4181 	0.060867
33.97 	0.071360 	4190 	0.070382
33.99 	0.076429 	4200 	0.073895
34.01 	0.073344 	4213 	0.072371
34.03 	0.069981 	4244 	0.069015
34.05 	0.070555 	4252 	0.069453
34.07 	0.067479 	4268 	0.066106
34.09 	0.071629 	4286 	0.070125
34.11 	0.065551 	4302 	0.064734
34.13 	0.069174 	4308 	0.067905
34.15 	0.069961 	4331 	0.068473
34.17 	0.069425 	4350 	0.067922
34.19 	0.069005 	4362 	0.067506
34.21 	0.070464 	4371 	0.068856
34.23 	0.069656 	4393 	0.068990
34.25 	0.072434 	4404 	0.070838
34.27 	0.075079 	4422 	0.073070
34.29 	0.070575 	4435 	0.068990
34.31 	0.073576 	4458 	0.071320
34.33 	0.069112 	4471 	0.066885
34.35 	0.066682 	4484 	0.065636
34.37 	0.065464 	4491 	0.064160
34.39 	0.071524 	4502 	0.069832
34.41 	0.075563 	4526 	0.073881
34.43 	0.072042 	4539 	0.070601
34.45 	0.061080 	4535 	0.060693
34.47 	0.067073 	4592 	0.065670
34.49 	0.067000 	4597 	0.066236
34.51 	0.079244 	4606 	0.076044
34.53 	0.078613 	4643 	0.076847
34.55 	0.072367 	4643 	0.071358
34.57 	0.068455 	4660 	0.067826
34.59 	0.073369 	4675 	0.071489
34.61 	0.066212 	4697 	0.064591
34.63 	0.070913 	4710 	0.068778
34.65 	0.076255 	4721 	0.074497
34.67 	0.072559 	4741 	0.071323
34.69 	0.071729 	4754 	0.070374
34.71 	0.074696 	4766 	0.073467
34.73 	0.072279 	4787 	0.071300
34.75 	0.078619 	4808 	0.075817
34.77 	0.066210 	4818 	0.064629
34.79 	0.066128 	4824 	0.064913
34.81 	0.071827 	4845 	0.070738
34.83 	0.066845 	4862 	0.065881
34.85 	0.067776 	4869 	0.065851
34.87 	0.069433 	4868 	0.068230
34.89 	0.072102 	4882 	0.071022
34.91 	0.065342 	4882 	0.064262
34.93 	0.073484 	4899 	0.072408
34.95 	0.070552 	4890 	0.069234
34.97 	0.065687 	4902 	0.063975
34.99 	0.076169 	4897 	0.074235
35.01 	0.070485 	4923 	0.069415
35.03 	0.069391 	4943 	0.068305
35.05 	0.069335 	4947 	0.068388
35.07 	0.066802 	4940 	0.065497
35.09 	0.068443 	4953 	0.067261
35.11 	0.072367 	4947 	0.071420
35.13 	0.078459 	4958 	0.076214
35.15 	0.069273 	4937 	0.067968
35.17 	0.071775 	4946 	0.070354
35.19 	0.066977 	4942 	0.066384
35.21 	0.070172 	4945 	0.068731
35.23 	0.068756 	4945 	0.067078
35.25 	0.070403 	4943 	0.068743
35.27 	0.064470 	4948 	0.063622
35.29 	0.074216 	4945 	0.071847
35.31 	0.070951 	4933 	0.068695
35.33 	0.062715 	4943 	0.062004
35.35 	0.073857 	4942 	0.071723
35.37 	0.064588 	4939 	0.063521
35.39 	0.075834 	4945 	0.074038
35.41 	0.072473 	4926 	0.070808
35.43 	0.072978 	4933 	0.071672
35.45 	0.072919 	4937 	0.071614
35.47 	0.068546 	4931 	0.067477
35.49 	0.064358 	4910 	0.062927
35.51 	0.072473 	4926 	0.071026
35.53 	0.070115 	4949 	0.068458
35.55 	0.070172 	4945 	0.068869
35.57 	0.069937 	4933 	0.068868
35.59 	0.068554 	4945 	0.066303
35.61 	0.071631 	4942 	0.070683
35.63 	0.070403 	4943 	0.069218
35.65 	0.061072 	4945 	0.059137
35.67 	0.067584 	4942 	0.066280
35.69 	0.065507 	4946 	0.063731
35.71 	0.070488 	4937 	0.068708
35.73 	0.069692 	4936 	0.068387
35.75 	0.069763 	4931 	0.068100
35.77 	0.070289 	4951 	0.068987
35.79 	0.075629 	4932 	0.073847
35.81 	0.065883 	4933 	0.064695
35.83 	0.074808 	4946 	0.073012
35.85 	0.072138 	4935 	0.070694
35.87 	0.067235 	4923 	0.065689
35.89 	0.076003 	4934 	0.074222
35.91 	0.075502 	4927 	0.074432
35.93 	0.074690 	4927 	0.072669
35.95 	0.077080 	4917 	0.075749
35.97 	0.076954 	4912 	0.074927
35.99 	0.069852 	4939 	0.068073
36.01 	0.074442 	4930 	0.073016
36.03 	0.077079 	4943 	0.075163
36.05 	0.077452 	4945 	0.075557
36.07 	0.067827 	4939 	0.065930
36.09 	0.073279 	4940 	0.071263
36.11 	0.071617 	4929 	0.070310
36.13 	0.071833 	4942 	0.070055
36.15 	0.071877 	4939 	0.070572
36.17 	0.070254 	4925 	0.068807
36.19 	0.069838 	4940 	0.069008
36.21 	0.070805 	4929 	0.069578
36.23 	0.072746 	4935 	0.071321
36.25 	0.067395 	4941 	0.064768
36.27 	0.080609 	4925 	0.079519
36.29 	0.073819 	4931 	0.072156
36.31 	0.068182 	4928 	0.066993
36.33 	0.072370 	4933 	0.070826
36.35 	0.071211 	4929 	0.069904
36.37 	0.072923 	4923 	0.072090
36.39 	0.077626 	4921 	0.076555
36.41 	0.070261 	4896 	0.068806
36.43 	0.072240 	4928 	0.070675
36.45 	0.080933 	4930 	0.079626
36.47 	0.075365 	4936 	0.074297
36.49 	0.071833 	4942 	0.070055
36.51 	0.077032 	4933 	0.074657
36.53 	0.074449 	4943 	0.073264
36.55 	0.077126 	4927 	0.075343
36.57 	0.073368 	4934 	0.072181
36.59 	0.071269 	4939 	0.070183
36.61 	0.065910 	4931 	0.064722
36.63 	0.072399 	4931 	0.070222
36.65 	0.075223 	4932 	0.073917
36.67 	0.077282 	4930 	0.075618
36.69 	0.068168 	4929 	0.066366
36.71 	0.078439 	4921 	0.076535
36.73 	0.071269 	4925 	0.070318
36.75 	0.076254 	4944 	0.074339
36.77 	0.071763 	4919 	0.070433
36.79 	0.076814 	4921 	0.075504
36.81 	0.065907 	4916 	0.064954
36.83 	0.068159 	4915 	0.066471
36.85 	0.068804 	4898 	0.067368
36.87 	0.084142 	4944 	0.082128
36.89 	0.072213 	4916 	0.070525
36.91 	0.068002 	4941 	0.066106
36.93 	0.070994 	4930 	0.069568
36.95 	0.071153 	4933 	0.068621
36.97 	0.067896 	4934 	0.066946
36.99 	0.078217 	4935 	0.076535
37.01 	0.079870 	4933 	0.077020
37.03 	0.067831 	4924 	0.066641
37.05 	0.071443 	4927 	0.070016
37.07 	0.073556 	4935 	0.071894
37.09 	0.071834 	4928 	0.070289
37.11 	0.078217 	4935 	0.076179
37.13 	0.074736 	4924 	0.073427
37.15 	0.068242 	4909 	0.067049
37.17 	0.067086 	4934 	0.064711
37.19 	0.070254 	4925 	0.068470
37.21 	0.072198 	4917 	0.070531
37.23 	0.075234 	4918 	0.073209
37.25 	0.069029 	4911 	0.067597
37.27 	0.067838 	4894 	0.066262
37.29 	0.064097 	4930 	0.063028
37.31 	0.070314 	4935 	0.069364
37.33 	0.073067 	4927 	0.071759
37.35 	0.077157 	4938 	0.075377
37.37 	0.062716 	4927 	0.061646
37.39 	0.075847 	4931 	0.074302
37.41 	0.066112 	4931 	0.064687
37.43 	0.067518 	4932 	0.066212
37.45 	0.072908 	4924 	0.071956
37.47 	0.067762 	4929 	0.065148
37.49 	0.069470 	4923 	0.067685
37.51 	0.065072 	4933 	0.064122
37.53 	0.071153 	4919 	0.069843
37.55 	0.065923 	4930 	0.064854
37.57 	0.065178 	4925 	0.064088
37.59 	0.066531 	4915 	0.064962
37.61 	0.069484 	4922 	0.067699
37.63 	0.065257 	4919 	0.064543
37.65 	0.072590 	4918 	0.071757
37.67 	0.063214 	4904 	0.061641
37.69 	0.061862 	4898 	0.061144
37.71 	0.067559 	4929 	0.066133
37.73 	0.066139 	4929 	0.064951
37.75 	0.074696 	4940 	0.073273
37.77 	0.066260 	4920 	0.063978
37.79 	0.065517 	4930 	0.064309
37.81 	0.068721 	4933 	0.067533
37.83 	0.065041 	4920 	0.064683
37.85 	0.066640 	4922 	0.065192
37.87 	0.072079 	4939 	0.070399
37.89 	0.073096 	4925 	0.071788
37.91 	0.065314 	4930 	0.064126
37.93 	0.071763 	4919 	0.070453
37.95 	0.070311 	4921 	0.068763
37.97 	0.066342 	4929 	0.064659
37.99 	0.066368 	4912 	0.065653
38.01 	0.058036 	4928 	0.057323
38.03 	0.068242 	4909 	0.066910
38.05 	0.069848 	4925 	0.067707
38.07 	0.061112 	4909 	0.060158
38.09 	0.063961 	4878 	0.062880
38.11 	0.068490 	4935 	0.067403
38.13 	0.073121 	4937 	0.071540
38.15 	0.070557 	4918 	0.068354
38.17 	0.074037 	4930 	0.073086
38.19 	0.070385 	4930 	0.069078
38.21 	0.068860 	4923 	0.066719
38.23 	0.082422 	4938 	0.080643
38.25 	0.079317 	4917 	0.076438
38.27 	0.074442 	4930 	0.072898
38.29 	0.075751 	4924 	0.074423
38.31 	0.077126 	4927 	0.074848
38.33 	0.073111 	4924 	0.071446
38.35 	0.083807 	4928 	0.080915
38.37 	0.086312 	4924 	0.085360
38.39 	0.088613 	4909 	0.086107
38.41 	0.098720 	4923 	0.096321
38.43 	0.095810 	4916 	0.093407
38.45 	0.097804 	4918 	0.096017
38.47 	0.095985 	4907 	0.093956
38.49 	0.096166 	4877 	0.094844
38.51 	0.093877 	4932 	0.091976
38.53 	0.097789 	4929 	0.094817
38.55 	0.093598 	4936 	0.091581
38.57 	0.097095 	4923 	0.094200
38.59 	0.090780 	4924 	0.089590
38.61 	0.094206 	4936 	0.091595
38.63 	0.095451 	4924 	0.093072
38.65 	0.083977 	4918 	0.081456
38.67 	0.088515 	4937 	0.086498
38.69 	0.083096 	4922 	0.081311
38.71 	0.084078 	4924 	0.082412
38.73 	0.085604 	4918 	0.084055
38.75 	0.073067 	4927 	0.072116
38.77 	0.077392 	4923 	0.074854
38.79 	0.063640 	4934 	0.062334
38.81 	0.067997 	4912 	0.066923
38.83 	0.070543 	4919 	0.068518
38.85 	0.062500 	4912 	0.061188
38.87 	0.062513 	4911 	0.060704
38.89 	0.064938 	4897 	0.063981
38.91 	0.062615 	4903 	0.061420
38.93 	0.061968 	4938 	0.061019
38.95 	0.065067 	4918 	0.063519
38.97 	0.062056 	4931 	0.061106
38.99 	0.060361 	4937 	0.058699
39.01 	0.056120 	4918 	0.055048
39.03 	0.054722 	4934 	0.053773
39.05 	0.056041 	4925 	0.054832
39.07 	0.057067 	4924 	0.056235
39.09 	0.058704 	4923 	0.057514
39.11 	0.052322 	4931 	0.051847
39.13 	0.062970 	4923 	0.061661
39.15 	0.060020 	4915 	0.059424
39.17 	0.062994 	4937 	0.061650
39.19 	0.052878 	4917 	0.051806
39.21 	0.055397 	4910 	0.054801
39.23 	0.049543 	4925 	0.049067
39.25 	0.054043 	4922 	0.052853
39.27 	0.057230 	4910 	0.056395
39.29 	0.053050 	4901 	0.052811
39.31 	0.052621 	4884 	0.051781
39.33 	0.048063 	4931 	0.047826
39.35 	0.065248 	4935 	0.063923
39.37 	0.051938 	4929 	0.051343
39.39 	0.056604 	4929 	0.056010
39.41 	0.054147 	4931 	0.053910
39.43 	0.054936 	4933 	0.054342
39.45 	0.050152 	4925 	0.049439
39.47 	0.050173 	4923 	0.048983
39.49 	0.054328 	4933 	0.053240
39.51 	0.062551 	4924 	0.061361
39.53 	0.057079 	4923 	0.056127
39.55 	0.054686 	4919 	0.054090
39.57 	0.054936 	4933 	0.054323
39.59 	0.056189 	4912 	0.055116
39.61 	0.056063 	4923 	0.054636
39.63 	0.054246 	4922 	0.053413
39.65 	0.053999 	4926 	0.053167
39.67 	0.054753 	4913 	0.054276
39.69 	0.054516 	4916 	0.054039
39.71 	0.055363 	4895 	0.054645
39.73 	0.052363 	4908 	0.051767
39.75 	0.053774 	4928 	0.052823
39.77 	0.057953 	4935 	0.056885
39.79 	0.055623 	4926 	0.054434
39.81 	0.054800 	4927 	0.054087
39.83 	0.046818 	4934 	0.046106
39.85 	0.046276 	4927 	0.045681
39.87 	0.049746 	4925 	0.049389
39.89 	0.057357 	4934 	0.056388
39.91 	0.054043 	4922 	0.053091
39.93 	0.048410 	4937 	0.047935
39.95 	0.044151 	4915 	0.044031
39.97 	0.057021 	4928 	0.055832
39.99 	0.052920 	4932 	0.051970
40.01 	0.058560 	4918 	0.057727
40.03 	0.054180 	4928 	0.053467
40.05 	0.053488 	4917 	0.052416
40.07 	0.052610 	4923 	0.052015
40.09 	0.052482 	4916 	0.051390
40.11 	0.060008 	4916 	0.059016
40.13 	0.046977 	4896 	0.046379
40.15 	0.055567 	4913 	0.054732
40.17 	0.056818 	4928 	0.056343
40.19 	0.045445 	4929 	0.044970
40.21 	0.051672 	4935 	0.051197
40.23 	0.057178 	4932 	0.055871
40.25 	0.052033 	4920 	0.051199
40.27 	0.061171 	4937 	0.059628
40.29 	0.046682 	4927 	0.046087
40.31 	0.052035 	4939 	0.051066
40.33 	0.049676 	4932 	0.048725
40.35 	0.050620 	4919 	0.050025
40.37 	0.054778 	4929 	0.053431
40.39 	0.051308 	4931 	0.050001
40.41 	0.055838 	4925 	0.054410
40.43 	0.050386 	4922 	0.049672
40.45 	0.049868 	4933 	0.048562
40.47 	0.054494 	4918 	0.054136
40.49 	0.047503 	4926 	0.046671
40.51 	0.059122 	4922 	0.058170
40.53 	0.053499 	4916 	0.052784
40.55 	0.052567 	4908 	0.052090
40.57 	0.050102 	4890 	0.049623
40.59 	0.050638 	4937 	0.049452
40.61 	0.049037 	4935 	0.048444
40.63 	0.047465 	4930 	0.047108
40.65 	0.055904 	4937 	0.055548
40.67 	0.049878 	4932 	0.049284
40.69 	0.048815 	4937 	0.048578
40.71 	0.045823 	4932 	0.045586
40.73 	0.057044 	4926 	0.055974
40.75 	0.045832 	4931 	0.045595
40.77 	0.053047 	4939 	0.052454
40.79 	0.050975 	4924 	0.050618
40.81 	0.048371 	4941 	0.047778
40.83 	0.051745 	4928 	0.051151
40.85 	0.048944 	4924 	0.047992
40.87 	0.048093 	4928 	0.047023
40.89 	0.056378 	4931 	0.055408
40.91 	0.052407 	4923 	0.051535
40.93 	0.052898 	4934 	0.051830
40.95 	0.051496 	4913 	0.050781
40.97 	0.057880 	4924 	0.056809
40.99 	0.050569 	4924 	0.049597
41.01 	0.045399 	4912 	0.044922
41.03 	0.050561 	4905 	0.050083
41.05 	0.043963 	4936 	0.043607
41.07 	0.048276 	4930 	0.047801
41.09 	0.061146 	4939 	0.059604
41.11 	0.049443 	4935 	0.048731
41.13 	0.047609 	4936 	0.047016
41.15 	0.048978 	4941 	0.048029
41.17 	0.047426 	4934 	0.046714
41.19 	0.053550 	4930 	0.053074
41.21 	0.050638 	4937 	0.050045
41.23 	0.055882 	4939 	0.055170
41.25 	0.046422 	4933 	0.045472
41.27 	0.052728 	4931 	0.052015
41.29 	0.046266 	4928 	0.045791
41.31 	0.058382 	4933 	0.056720
41.33 	0.055904 	4937 	0.054837
41.35 	0.052045 	4938 	0.051334
41.37 	0.050366 	4924 	0.050009
41.39 	0.055139 	4933 	0.054070
41.41 	0.050548 	4926 	0.049954
41.43 	0.049909 	4929 	0.049552
41.45 	0.049654 	4914 	0.049058
41.47 	0.045676 	4926 	0.045300
41.49 	0.045380 	4892 	0.044901
41.51 	0.050202 	4940 	0.049728
41.53 	0.049757 	4944 	0.049165
41.55 	0.046403 	4935 	0.045928
41.57 	0.046347 	4941 	0.045754
41.59 	0.053314 	4933 	0.052364
41.61 	0.049667 	4953 	0.049194
41.63 	0.050830 	4938 	0.049644
41.65 	0.048286 	4929 	0.047810
41.67 	0.049393 	4940 	0.048918
41.69 	0.053972 	4947 	0.053262
41.71 	0.054317 	4934 	0.053842
41.73 	0.045381 	4936 	0.044431
41.75 	0.049503 	4929 	0.048314
41.77 	0.050799 	4941 	0.050088
41.79 	0.051780 	4944 	0.051543
41.81 	0.048420 	4936 	0.047945
41.83 	0.047687 	4928 	0.046973
41.85 	0.048998 	4939 	0.048286
41.87 	0.055724 	4935 	0.054894
41.89 	0.049868 	4933 	0.049037
41.91 	0.044773 	4936 	0.044180
41.93 	0.052311 	4932 	0.051599
41.95 	0.048469 	4931 	0.048112
41.97 	0.050265 	4914 	0.049669
41.99 	0.046687 	4905 	0.046090
42.01 	0.046742 	4942 	0.046387
42.03 	0.047783 	4939 	0.047546
42.05 	0.043417 	4952 	0.043062
42.07 	0.049828 	4937 	0.048760
42.09 	0.044058 	4948 	0.043229
42.11 	0.046916 	4945 	0.046442
42.13 	0.039838 	4945 	0.039364
42.15 	0.049413 	4938 	0.049057
42.17 	0.053070 	4918 	0.051879
42.19 	0.044621 	4908 	0.044144
42.21 	0.046317 	4901 	0.045480
42.23 	0.051513 	4892 	0.051034
42.25 	0.047863 	4889 	0.047383
42.27 	0.042675 	4874 	0.042195
42.29 	0.046268 	4863 	0.044923
42.31 	0.050875 	4855 	0.050151
42.33 	0.050269 	4834 	0.049542
42.35 	0.044647 	4838 	0.043678
42.37 	0.049896 	4830 	0.049169
42.39 	0.049542 	4804 	0.049054
42.41 	0.044963 	4804 	0.044109
42.43 	0.053214 	4792 	0.052236
42.45 	0.052764 	4776 	0.051905
42.47 	0.056034 	4765 	0.055296
42.49 	0.056034 	4765 	0.054927
42.51 	0.043854 	4743 	0.043360
42.53 	0.048435 	4728 	0.047444
42.55 	0.044605 	4708 	0.043610
42.57 	0.048414 	4730 	0.047671
42.59 	0.045464 	4729 	0.044597
42.61 	0.040357 	4708 	0.039735
42.63 	0.045445 	4709 	0.044823
42.65 	0.042263 	4685 	0.041887
42.67 	0.045474 	4684 	0.044828
42.69 	0.048567 	4674 	0.048191
42.71 	0.041819 	4663 	0.041567
42.73 	0.044181 	4640 	0.043802
42.75 	0.043318 	4617 	0.042938
42.77 	0.050217 	4600 	0.049071
42.79 	0.051724 	4582 	0.050446
42.81 	0.046032 	4562 	0.045776
42.83 	0.046076 	4536 	0.045947
42.85 	0.045936 	4528 	0.045290
42.87 	0.046455 	4499 	0.045934
42.89 	0.049107 	4480 	0.048584
42.91 	0.044434 	4456 	0.043777
42.93 	0.049033 	4446 	0.048638
42.95 	0.049366 	4416 	0.048305
42.97 	0.049307 	4401 	0.048375
42.99 	0.046978 	4385 	0.045910
43.01 	0.042860 	4363 	0.042592
43.03 	0.048696 	4333 	0.047885
43.05 	0.048786 	4325 	0.047409
43.07 	0.050512 	4296 	0.050103
43.09 	0.047397 	4283 	0.046166
43.11 	0.046298 	4255 	0.045748
43.13 	0.045079 	4237 	0.044526
43.15 	0.044936 	4206 	0.044657
43.17 	0.044030 	4179 	0.043609
43.19 	0.044588 	4194 	0.043889
43.21 	0.041707 	4172 	0.041566
43.23 	0.045017 	4154 	0.044453
43.25 	0.040629 	4135 	0.040629
43.27 	0.047016 	4105 	0.046302
43.29 	0.044878 	4100 	0.044449
43.31 	0.046580 	4079 	0.046149
43.33 	0.044927 	4051 	0.044638
43.35 	0.046379 	4032 	0.045507
43.37 	0.049315 	4015 	0.048731
43.39 	0.045477 	4002 	0.045038
43.41 	0.040030 	3972 	0.039735
43.43 	0.046970 	3960 	0.045786
43.45 	0.047014 	3935 	0.046245
43.47 	0.052538 	3921 	0.051940
43.49 	0.047729 	3897 	0.046827
43.51 	0.049007 	3877 	0.048252
43.53 	0.047631 	3863 	0.046848
43.55 	0.048920 	2964 	0.047735
43.57 	0.039321 	2238 	0.038536
43.59 	0.046964 	1746 	0.046293
43.61 	0.039230 	1351 	0.037929
43.63 	0.041958 	1001 	0.040788
43.65 	0.045124 	687 	0.045124
43.67 	0.047809 	502 	0.047809
43.69 	0.051771 	367 	0.050175
43.71 	0.046025 	239 	0.046025
43.73 	0.058333 	120 	0.058333
43.75 	0.000000 	16 	0.000000