File: Example_Data/25SC_s1_0050.002.dat
#F C:\frames\spec\25SC_s1_0050.002
#C title =s:50 frm:2 25SC_s1
#C wavelength =0.15406

#S 1  fr_average C:\frames\spec\25SC_s1_0050.002 C:\win32app\speccom\mask.axs chi 0 180 0 360 0.02
#C 2 theta =0.000000 to 180 deg
#C   q   =0.000000 to 81.568 nm^-1
#C  chi  =0.000000 to 360 deg
#C collumns:
#C  1 position (2theta or chi in degrees)
#C  2 average intensity (sum of all counts in the region divided with number of pixels)
#C  3 Number of pixels in region)
#C  4 error (sum of sqrt(intensity) for all pixels divided by number)
#N 4
#L TTh  Int  N_pix  Err
32.99 	0.065574 	61 	0.065574
33.01 	0.056128 	873 	0.056128
33.03 	0.062545 	1391 	0.060860
33.05 	0.057484 	1757 	0.056484
33.07 	0.066341 	2050 	0.065484
33.09 	0.069876 	2347 	0.068878
33.11 	0.063203 	2579 	0.061840
33.13 	0.059076 	2793 	0.058447
33.15 	0.062688 	2999 	0.061906
33.17 	0.064355 	3201 	0.063440
33.19 	0.056254 	3342 	0.054852
33.21 	0.059662 	3436 	0.058469
33.23 	0.061879 	3523 	0.060050
33.25 	0.059524 	3612 	0.058551
33.27 	0.054545 	3630 	0.053577
33.29 	0.056743 	3648 	0.055941
33.31 	0.056557 	3660 	0.054797
33.33 	0.058871 	3686 	0.057441
33.35 	0.055766 	3694 	0.054656
33.37 	0.062736 	3714 	0.061632
33.39 	0.057924 	3729 	0.056982
33.41 	0.064438 	3740 	0.062377
33.43 	0.061686 	3761 	0.061063
33.45 	0.060429 	3773 	0.059653
33.47 	0.056609 	3798 	0.055529
33.49 	0.052245 	3809 	0.051168
33.51 	0.055832 	3815 	0.054757
33.53 	0.056756 	3841 	0.055841
33.55 	0.062451 	3843 	0.061384
33.57 	0.053650 	3877 	0.052894
33.59 	0.060052 	3880 	0.058844
33.61 	0.061397 	3909 	0.060198
33.63 	0.060985 	3919 	0.059789
33.65 	0.059527 	3931 	0.058633
33.67 	0.060192 	3954 	0.058711
33.69 	0.064508 	3953 	0.062433
33.71 	0.064906 	3975 	0.063579
33.73 	0.057443 	4004 	0.056126
33.75 	0.053763 	3999 	0.053031
33.77 	0.068323 	4025 	0.067741
33.79 	0.058896 	4041 	0.058316
33.81 	0.048291 	4038 	0.047711
33.83 	0.056049 	4050 	0.055326
33.85 	0.048061 	4099 	0.047346
33.87 	0.059110 	4111 	0.058255
33.89 	0.052172 	4121 	0.051319
33.91 	0.064353 	4149 	0.063200
33.93 	0.055890 	4151 	0.055185
33.95 	0.059555 	4181 	0.058714
33.97 	0.059427 	4190 	0.058588
33.99 	0.058571 	4200 	0.058292
34.01 	0.057916 	4213 	0.057082
34.03 	0.059142 	4244 	0.057624
34.05 	0.064675 	4252 	0.063160
34.07 	0.061621 	4268 	0.060386
34.09 	0.061129 	4286 	0.060309
34.11 	0.061134 	4302 	0.060045
34.13 	0.055942 	4308 	0.054583
34.15 	0.056800 	4331 	0.056259
34.17 	0.057011 	4350 	0.056047
34.19 	0.063274 	4362 	0.061349
34.21 	0.064745 	4371 	0.063673
34.23 	0.053722 	4393 	0.053055
34.25 	0.059946 	4404 	0.059546
34.27 	0.059928 	4422 	0.058051
34.29 	0.060203 	4435 	0.059278
34.31 	0.057649 	4458 	0.056861
34.33 	0.054574 	4471 	0.053526
34.35 	0.055754 	4484 	0.055231
34.37 	0.058784 	4491 	0.057741
34.39 	0.055753 	4502 	0.055102
34.41 	0.056341 	4526 	0.055176
34.43 	0.054417 	4539 	0.053772
34.45 	0.050717 	4535 	0.050071
34.47 	0.057491 	4592 	0.056322
34.49 	0.060909 	4597 	0.059890
34.51 	0.062093 	4606 	0.060546
34.53 	0.050829 	4643 	0.050198
34.55 	0.055352 	4643 	0.055100
34.57 	0.054077 	4660 	0.053323
34.59 	0.057540 	4675 	0.056287
34.61 	0.061529 	4697 	0.060656
34.63 	0.059448 	4710 	0.058433
34.65 	0.055073 	4721 	0.054205
34.67 	0.056950 	4741 	0.055962
34.69 	0.056163 	4754 	0.055301
34.71 	0.056022 	4766 	0.055284
34.73 	0.048882 	4787 	0.047639
34.75 	0.055324 	4808 	0.053984
34.77 	0.059361 	4818 	0.058388
34.79 	0.057214 	4824 	0.055514
34.81 	0.061300 	4845 	0.059950
34.83 	0.053065 	4862 	0.052221
34.85 	0.064490 	4869 	0.063768
34.87 	0.056286 	4868 	0.055444
34.89 	0.057149 	4882 	0.056069
34.91 	0.049775 	4882 	0.048935
34.93 	0.056950 	4899 	0.055874
34.95 	0.053170 	4890 	0.052451
34.97 	0.061608 	4902 	0.060771
34.99 	0.062691 	4897 	0.061256
35.01 	0.059720 	4923 	0.059125
35.03 	0.052802 	4943 	0.051716
35.05 	0.058824 	4947 	0.057758
35.07 	0.055870 	4940 	0.055396
35.09 	0.061175 	4953 	0.059992
35.11 	0.057813 	4947 	0.056984
35.13 	0.055668 	4958 	0.055313
35.15 	0.058335 	4937 	0.057149
35.17 	0.050950 	4946 	0.049647
35.19 	0.060097 	4942 	0.059149
35.21 	0.054398 	4945 	0.053668
35.23 	0.054601 	4945 	0.053278
35.25 	0.055027 	4943 	0.053961
35.27 	0.056589 	4948 	0.055641
35.29 	0.054803 	4945 	0.053500
35.31 	0.064464 	4933 	0.062920
35.33 	0.051993 	4943 	0.051045
35.35 	0.062728 	4942 	0.061641
35.37 	0.055072 	4939 	0.054242
35.39 	0.057027 	4945 	0.056080
35.41 	0.060698 	4926 	0.059866
35.43 	0.058382 	4933 	0.057413
35.45 	0.057322 	4937 	0.056492
35.47 	0.057595 	4931 	0.057120
35.49 	0.056008 	4910 	0.055173
35.51 	0.055623 	4926 	0.054672
35.53 	0.057385 	4949 	0.056656
35.55 	0.055612 	4945 	0.054783
35.57 	0.060815 	4933 	0.059964
35.59 	0.055410 	4945 	0.054936
35.61 	0.051801 	4942 	0.050853
35.63 	0.057253 	4943 	0.056423
35.65 	0.059454 	4945 	0.058269
35.67 	0.055241 	4942 	0.053937
35.69 	0.059644 	4946 	0.058440
35.71 	0.057525 	4937 	0.056813
35.73 	0.060170 	4936 	0.058608
35.75 	0.051916 	4931 	0.050947
35.77 	0.059180 	4951 	0.058214
35.79 	0.054339 	4932 	0.053508
35.81 	0.058788 	4933 	0.057937
35.83 	0.055600 	4946 	0.054771
35.85 	0.062006 	4935 	0.060700
35.87 	0.054235 	4923 	0.053164
35.89 	0.061411 	4934 	0.060342
35.91 	0.059062 	4927 	0.058468
35.93 	0.059874 	4927 	0.059280
35.95 	0.059386 	4917 	0.058433
35.97 	0.058428 	4912 	0.057594
35.99 	0.055882 	4939 	0.055170
36.01 	0.052130 	4930 	0.051417
36.03 	0.057860 	4943 	0.056774
36.05 	0.062083 	4945 	0.061254
36.07 	0.056894 	4939 	0.055214
36.09 	0.054049 	4940 	0.052843
36.11 	0.056604 	4929 	0.055158
36.13 	0.056455 	4942 	0.055625
36.15 	0.058919 	4939 	0.057120
36.17 	0.057259 	4925 	0.056307
36.19 	0.052227 	4940 	0.051278
36.21 	0.053155 	4929 	0.052085
36.23 	0.062817 	4935 	0.061491
36.25 	0.047764 	4941 	0.047408
36.27 	0.053401 	4925 	0.052093
36.29 	0.055972 	4931 	0.055378
36.31 	0.056615 	4928 	0.055902
36.33 	0.052909 	4933 	0.052315
36.35 	0.058835 	4929 	0.057409
36.37 	0.063579 	4923 	0.062865
36.39 	0.055883 	4921 	0.054693
36.41 	0.051879 	4896 	0.051759
36.43 	0.057021 	4928 	0.056189
36.45 	0.061055 	4930 	0.059748
36.47 	0.057131 	4936 	0.056301
36.49 	0.052408 	4942 	0.051460
36.51 	0.059801 	4933 	0.058832
36.53 	0.060692 	4943 	0.059744
36.55 	0.057642 	4927 	0.056690
36.57 	0.062019 	4934 	0.060713
36.59 	0.057906 	4939 	0.056720
36.61 	0.048672 	4931 	0.048196
36.63 	0.056581 	4931 	0.055393
36.65 	0.054339 	4932 	0.053626
36.67 	0.054970 	4930 	0.054375
36.69 	0.060661 	4929 	0.059335
36.71 	0.050599 	4921 	0.049885
36.73 	0.055431 	4925 	0.054599
36.75 	0.061084 	4944 	0.060373
36.77 	0.057125 	4919 	0.056173
36.79 	0.058525 	4921 	0.057930
36.81 	0.060212 	4916 	0.059139
36.83 	0.055341 	4915 	0.054626
36.85 	0.055329 	4898 	0.054372
36.87 	0.051982 	4944 	0.050916
36.89 	0.061229 	4916 	0.059799
36.91 	0.062740 	4941 	0.061792
36.93 	0.055984 	4930 	0.055014
36.95 	0.049868 	4933 	0.048780
36.97 	0.055736 	4934 	0.055023
36.99 	0.058359 	4935 	0.057646
37.01 	0.050679 	4933 	0.049967
37.03 	0.047725 	4924 	0.047487
37.05 	0.058047 	4927 	0.056720
37.07 	0.055522 	4935 	0.054216
37.09 	0.060471 	4928 	0.058925
37.11 	0.056738 	4935 	0.055788
37.13 	0.060926 	4924 	0.059617
37.15 	0.055205 	4909 	0.054369
37.17 	0.052696 	4934 	0.052102
37.19 	0.060305 	4925 	0.059472
37.21 	0.057352 	4917 	0.055803
37.23 	0.052054 	4918 	0.051339
37.25 	0.058847 	4911 	0.057178
37.27 	0.053739 	4894 	0.053500
37.29 	0.059432 	4930 	0.058481
37.31 	0.051672 	4935 	0.050722
37.33 	0.060686 	4927 	0.059378
37.35 	0.056906 	4938 	0.056312
37.37 	0.052162 	4927 	0.051329
37.39 	0.054147 	4931 	0.053316
37.41 	0.054553 	4931 	0.053959
37.43 	0.052920 	4932 	0.052207
37.45 	0.053818 	4924 	0.052866
37.47 	0.055995 	4929 	0.055401
37.49 	0.060329 	4923 	0.059496
37.51 	0.057571 	4933 	0.056265
37.53 	0.049807 	4919 	0.049211
37.55 	0.053550 	4930 	0.052480
37.57 	0.058071 	4925 	0.057714
37.59 	0.052085 	4915 	0.051728
37.61 	0.047338 	4922 	0.046624
37.63 	0.051637 	4919 	0.051517
37.65 	0.057747 	4918 	0.056913
37.67 	0.051183 	4904 	0.050705
37.69 	0.058800 	4898 	0.057723
37.71 	0.053561 	4929 	0.052610
37.73 	0.053561 	4929 	0.052966
37.75 	0.058300 	4940 	0.056976
37.77 	0.048984 	4920 	0.048150
37.79 	0.048276 	4930 	0.047325
37.81 	0.056761 	4933 	0.055435
37.83 	0.055894 	4920 	0.055180
37.85 	0.053027 	4922 	0.052551
37.87 	0.056084 	4939 	0.055491
37.89 	0.054213 	4925 	0.053737
37.91 	0.052941 	4930 	0.052585
37.93 	0.050823 	4919 	0.049871
37.95 	0.055070 	4921 	0.054356
37.97 	0.056604 	4929 	0.055534
37.99 	0.050692 	4912 	0.050215
38.01 	0.055601 	4928 	0.055006
38.03 	0.047464 	4909 	0.047106
38.05 	0.055228 	4925 	0.054158
38.07 	0.055205 	4909 	0.054011
38.09 	0.059451 	4878 	0.058850
38.11 	0.053293 	4935 	0.052442
38.13 	0.050841 	4937 	0.049891
38.15 	0.052664 	4918 	0.052425
38.17 	0.061055 	4930 	0.059748
38.19 	0.055578 	4930 	0.054865
38.21 	0.050985 	4923 	0.050509
38.23 	0.054678 	4938 	0.054203
38.25 	0.062233 	4917 	0.061399
38.27 	0.059838 	4930 	0.059006
38.29 	0.061942 	4924 	0.060038
38.31 	0.059671 	4927 	0.058720
38.33 	0.065394 	4924 	0.063728
38.35 	0.057427 	4928 	0.056357
38.37 	0.066613 	4924 	0.065304
38.39 	0.066409 	4909 	0.065215
38.41 	0.066017 	4923 	0.064589
38.43 	0.061635 	4916 	0.061040
38.45 	0.066694 	4918 	0.065145
38.47 	0.062971 	4907 	0.061658
38.49 	0.063359 	4877 	0.062258
38.51 	0.066707 	4932 	0.064649
38.53 	0.068168 	4929 	0.066623
38.55 	0.061994 	4936 	0.060925
38.57 	0.068048 	4923 	0.066363
38.59 	0.051990 	4924 	0.051376
38.61 	0.065032 	4936 	0.063846
38.63 	0.066206 	4924 	0.064898
38.65 	0.056934 	4918 	0.056100
38.67 	0.055702 	4937 	0.054871
38.69 	0.063186 	4922 	0.061400
38.71 	0.056255 	4924 	0.055303
38.73 	0.059374 	4918 	0.058540
38.75 	0.052567 	4927 	0.051854
38.77 	0.048954 	4923 	0.048597
38.79 	0.054520 	4934 	0.053451
38.81 	0.053135 	4912 	0.052777
38.83 	0.048587 	4919 	0.047992
38.85 	0.047842 	4912 	0.047365
38.87 	0.051517 	4911 	0.051398
38.89 	0.050235 	4897 	0.049158
38.91 	0.046502 	4903 	0.046263
38.93 	0.050425 	4938 	0.049595
38.95 	0.046360 	4918 	0.045646
38.97 	0.048266 	4931 	0.047910
38.99 	0.048410 	4937 	0.047560
39.01 	0.048800 	4918 	0.048205
39.03 	0.052493 	4934 	0.051543
39.05 	0.050152 	4925 	0.049558
39.07 	0.050975 	4924 	0.050142
39.09 	0.054032 	4923 	0.053318
39.11 	0.049686 	4931 	0.048973
39.13 	0.043469 	4923 	0.042993
39.15 	0.047406 	4915 	0.047168
39.17 	0.048410 	4937 	0.048291
39.19 	0.048200 	4917 	0.047466
39.21 	0.046640 	4910 	0.045685
39.23 	0.044467 	4925 	0.044110
39.25 	0.050183 	4922 	0.049469
39.27 	0.049898 	4910 	0.049063
39.29 	0.044889 	4901 	0.044172
39.31 	0.044636 	4884 	0.044276
39.33 	0.042791 	4931 	0.042434
39.35 	0.045390 	4935 	0.044797
39.37 	0.045851 	4929 	0.044900
39.39 	0.042605 	4929 	0.041991
39.41 	0.044413 	4931 	0.043799
39.43 	0.041962 	4933 	0.041487
39.45 	0.046701 	4925 	0.045967
39.47 	0.043469 	4923 	0.042755
39.49 	0.044598 	4933 	0.043648
39.51 	0.046507 	4924 	0.045555
39.53 	0.041032 	4923 	0.040675
39.55 	0.043911 	4919 	0.043296
39.57 	0.045206 	4933 	0.044731
39.59 	0.046621 	4912 	0.046501
39.61 	0.047532 	4923 	0.046342
39.63 	0.049370 	4922 	0.048894
39.65 	0.047503 	4926 	0.046908
39.67 	0.047425 	4913 	0.046352
39.69 	0.049837 	4916 	0.049122
39.71 	0.042288 	4895 	0.041690
39.73 	0.041157 	4908 	0.040680
39.75 	0.043425 	4928 	0.043069
39.77 	0.043769 	4935 	0.043175
39.79 	0.046691 	4926 	0.046572
39.81 	0.042419 	4927 	0.041825
39.83 	0.044183 	4934 	0.043590
39.85 	0.044652 	4927 	0.044414
39.87 	0.046497 	4925 	0.045546
39.89 	0.044183 	4934 	0.043827
39.91 	0.046526 	4922 	0.045554
39.93 	0.044359 	4937 	0.043766
39.95 	0.050865 	4915 	0.050507
39.97 	0.042614 	4928 	0.041782
39.99 	0.043187 	4932 	0.042712
40.01 	0.043717 	4918 	0.043002
40.03 	0.040381 	4928 	0.040025
40.05 	0.053691 	4917 	0.052976
40.07 	0.039407 	4923 	0.038931
40.09 	0.048413 	4916 	0.047341
40.11 	0.048413 	4916 	0.048056
40.13 	0.047590 	4896 	0.046992
40.15 	0.046000 	4913 	0.044808
40.17 	0.045860 	4928 	0.045385
40.19 	0.044634 	4929 	0.043564
40.21 	0.039919 	4935 	0.039088
40.23 	0.046431 	4932 	0.045838
40.25 	0.043699 	4920 	0.042866
40.27 	0.048613 	4937 	0.047901
40.29 	0.045261 	4927 	0.044785
40.31 	0.041911 	4939 	0.040962
40.33 	0.044607 	4932 	0.043894
40.35 	0.042895 	4919 	0.042657
40.37 	0.042199 	4929 	0.041229
40.39 	0.048469 	4931 	0.047637
40.41 	0.043655 	4925 	0.043179
40.43 	0.044494 	4922 	0.043661
40.45 	0.044598 	4933 	0.043885
40.47 	0.042904 	4918 	0.042427
40.49 	0.047097 	4926 	0.046621
40.51 	0.039618 	4922 	0.039380
40.53 	0.052482 	4916 	0.052005
40.55 	0.044214 	4908 	0.043736
40.57 	0.045603 	4890 	0.045124
40.59 	0.043144 	4937 	0.042669
40.61 	0.043972 	4935 	0.042666
40.63 	0.042191 	4930 	0.041834
40.65 	0.044764 	4937 	0.044052
40.67 	0.039538 	4932 	0.039063
40.69 	0.039093 	4937 	0.038381
40.71 	0.040349 	4932 	0.039992
40.73 	0.041819 	4926 	0.041462
40.75 	0.044818 	4931 	0.044462
40.77 	0.044341 	4939 	0.043748
40.79 	0.042851 	4924 	0.042257
40.81 	0.044930 	4941 	0.043863
40.83 	0.044846 	4928 	0.043776
40.85 	0.048335 	4924 	0.047502
40.87 	0.039570 	4928 	0.038975
40.89 	0.036504 	4931 	0.036266
40.91 	0.044688 	4923 	0.044212
40.93 	0.042562 	4934 	0.042206
40.95 	0.041522 	4913 	0.040807
40.97 	0.050162 	4924 	0.049330
40.99 	0.045085 	4924 	0.044372
41.01 	0.039088 	4912 	0.038849
41.03 	0.045872 	4905 	0.045274
41.05 	0.045583 	4936 	0.045089
41.07 	0.042394 	4930 	0.042037
41.09 	0.040899 	4939 	0.040524
41.11 	0.044174 	4935 	0.043699
41.13 	0.046191 	4936 	0.045123
41.15 	0.038251 	4941 	0.037540
41.17 	0.037900 	4934 	0.037544
41.19 	0.040771 	4930 	0.040296
41.21 	0.041523 	4937 	0.040930
41.23 	0.042114 	4939 	0.041521
41.25 	0.048855 	4933 	0.048498
41.27 	0.040154 	4931 	0.039917
41.29 	0.044034 	4928 	0.043083
41.31 	0.045611 	4933 	0.044998
41.33 	0.038080 	4937 	0.037487
41.35 	0.044552 	4938 	0.043959
41.37 	0.042648 	4924 	0.042291
41.39 	0.042773 	4933 	0.042298
41.41 	0.044052 	4926 	0.043695
41.43 	0.047068 	4929 	0.046712
41.45 	0.038462 	4914 	0.038104
41.47 	0.039992 	4926 	0.039754
41.49 	0.036590 	4892 	0.036471
41.51 	0.038259 	4940 	0.037903
41.53 	0.034587 	4944 	0.034350
41.55 	0.039108 	4935 	0.038871
41.57 	0.041692 	4941 	0.041455
41.59 	0.042773 	4933 	0.042298
41.61 	0.043812 	4953 	0.042984
41.63 	0.038680 	4938 	0.038442
41.65 	0.034693 	4929 	0.034336
41.67 	0.038664 	4940 	0.038190
41.69 	0.041844 	4947 	0.041251
41.71 	0.037495 	4934 	0.037257
41.73 	0.038290 	4936 	0.038053
41.75 	0.039968 	4929 	0.039968
41.77 	0.035216 	4941 	0.034978
41.79 	0.047128 	4944 	0.046298
41.81 	0.043963 	4936 	0.043251
41.83 	0.037744 	4928 	0.037506
41.85 	0.038469 	4939 	0.038114
41.87 	0.039919 	4935 	0.039444
41.89 	0.037097 	4933 	0.036860
41.91 	0.040519 	4936 	0.040044
41.93 	0.041160 	4932 	0.040922
41.95 	0.042385 	4931 	0.041672
41.97 	0.041514 	4914 	0.040918
41.99 	0.041590 	4905 	0.041113
42.01 	0.043302 	4942 	0.042591
42.03 	0.038874 	4939 	0.037925
42.05 	0.040388 	4952 	0.039659
42.07 	0.033219 	4937 	0.032981
42.09 	0.046281 	4948 	0.045689
42.11 	0.038625 	4945 	0.038388
42.13 	0.037816 	4945 	0.037224
42.15 	0.043742 	4938 	0.043387
42.17 	0.034364 	4918 	0.034125
42.19 	0.042584 	4908 	0.042345
42.21 	0.038564 	4901 	0.038325
42.23 	0.034546 	4892 	0.034546
42.25 	0.038863 	4889 	0.038623
42.27 	0.042060 	4874 	0.041820
42.29 	0.040921 	4863 	0.040560
42.31 	0.039753 	4855 	0.039632
42.33 	0.038891 	4834 	0.038043
42.35 	0.037205 	4838 	0.036842
42.37 	0.044099 	4830 	0.043614
42.39 	0.045587 	4804 	0.045099
42.41 	0.036428 	4804 	0.036306
42.43 	0.040484 	4792 	0.040362
42.45 	0.037060 	4776 	0.036815
42.47 	0.035677 	4765 	0.035431
42.49 	0.043652 	4765 	0.042771
42.51 	0.041535 	4743 	0.041041
42.53 	0.037860 	4728 	0.037612
42.55 	0.038870 	4708 	0.038123
42.57 	0.044186 	4730 	0.043815
42.59 	0.036371 	4729 	0.035876
42.61 	0.036958 	4708 	0.036336
42.63 	0.039924 	4709 	0.039550
42.65 	0.037140 	4685 	0.037015
42.67 	0.038856 	4684 	0.038606
42.69 	0.039153 	4674 	0.038777
42.71 	0.037744 	4663 	0.037241
42.73 	0.036638 	4640 	0.036512
42.75 	0.034871 	4617 	0.034617
42.77 	0.038913 	4600 	0.038531
42.79 	0.033828 	4582 	0.033444
42.81 	0.037922 	4562 	0.037023
42.83 	0.033951 	4536 	0.033692
42.85 	0.034673 	4528 	0.034156
42.87 	0.036675 	4499 	0.035872
42.89 	0.035268 	4480 	0.035137
42.91 	0.037253 	4456 	0.036596
42.93 	0.034638 	4446 	0.034638
42.95 	0.038270 	4416 	0.037739
42.97 	0.038173 	4401 	0.037641
42.99 	0.035348 	4385 	0.035081
43.01 	0.036443 	4363 	0.035637
43.03 	0.039465 	4333 	0.039329
43.05 	0.040231 	4325 	0.039960
43.07 	0.039106 	4296 	0.038833
43.09 	0.036190 	4283 	0.035916
43.11 	0.038543 	4255 	0.038543
43.13 	0.042483 	4237 	0.041930
43.15 	0.042320 	4206 	0.042042
43.17 	0.034219 	4179 	0.033658
43.19 	0.041488 	4194 	0.041069
43.21 	0.035954 	4172 	0.035954
43.23 	0.036591 	4154 	0.036309
43.25 	0.036276 	4135 	0.035992
43.27 	0.038733 	4105 	0.038162
43.29 	0.038537 	4100 	0.037822
43.31 	0.040941 	4079 	0.040654
43.33 	0.036287 	4051 	0.035998
43.35 	0.031498 	4032 	0.031353
43.37 	0.034620 	4015 	0.034474
43.39 	0.039730 	4002 	0.038998
43.41 	0.036506 	3972 	0.035916
43.43 	0.041919 	3960 	0.040884
43.45 	0.036595 	3935 	0.035999
43.47 	0.033410 	3921 	0.033260
43.49 	0.034385 	3897 	0.034085
43.51 	0.038432 	3877 	0.037979
43.53 	0.034429 	3863 	0.034126
43.55 	0.028003 	2964 	0.027607
43.57 	0.044683 	2238 	0.044683
43.59 	0.033792 	1746 	0.033121
43.61 	0.030348 	1351 	0.030348
43.63 	0.042957 	1001 	0.042372
43.65 	0.036390 	687 	0.036390
43.67 	0.039841 	502 	0.039841
43.69 	0.029973 	367 	0.029973
43.71 	0.033473 	239 	0.033473
43.73 	0.025000 	120 	0.025000
43.75 	0.062500 	16 	0.062500