File: Example_Data/25SC_s1_0034.004.dat
#F C:\frames\spec\25SC_s1_0034.004
#C title =s:34 frm:4 25SC_s1
#C wavelength =0.15406

#S 1  fr_average C:\frames\spec\25SC_s1_0034.004 C:\win32app\speccom\mask.axs chi 0 180 0 360 0.02
#C 2 theta =0.000000 to 180 deg
#C   q   =0.000000 to 81.568 nm^-1
#C  chi  =0.000000 to 360 deg
#C collumns:
#C  1 position (2theta or chi in degrees)
#C  2 average intensity (sum of all counts in the region divided with number of pixels)
#C  3 Number of pixels in region)
#C  4 error (sum of sqrt(intensity) for all pixels divided by number)
#N 4
#L TTh  Int  N_pix  Err
32.99 	0.016393 	61 	0.016393
33.01 	0.050401 	873 	0.049059
33.03 	0.061107 	1391 	0.060686
33.05 	0.068867 	1757 	0.066867
33.07 	0.052195 	2050 	0.051338
33.09 	0.058372 	2347 	0.057873
33.11 	0.056999 	2579 	0.055409
33.13 	0.051557 	2793 	0.050684
33.15 	0.060353 	2999 	0.059540
33.17 	0.056857 	3201 	0.055942
33.19 	0.054458 	3342 	0.053407
33.21 	0.055297 	3436 	0.054075
33.23 	0.059608 	3523 	0.058611
33.25 	0.062292 	3612 	0.060995
33.27 	0.071350 	3630 	0.069575
33.29 	0.052632 	3648 	0.052150
33.31 	0.048907 	3660 	0.047627
33.33 	0.059414 	3686 	0.058143
33.35 	0.063617 	3694 	0.061397
33.37 	0.058158 	3714 	0.057370
33.39 	0.058729 	3729 	0.057629
33.41 	0.053743 	3740 	0.052960
33.43 	0.059027 	3761 	0.057781
33.45 	0.062020 	3773 	0.060933
33.47 	0.054239 	3798 	0.053443
33.49 	0.056183 	3809 	0.055568
33.51 	0.060813 	3815 	0.059891
33.53 	0.061703 	3841 	0.061245
33.55 	0.059329 	3843 	0.058871
33.57 	0.061646 	3877 	0.060739
33.59 	0.064691 	3880 	0.063785
33.61 	0.051420 	3909 	0.050371
33.63 	0.068130 	3919 	0.066336
33.65 	0.056983 	3931 	0.056536
33.67 	0.058675 	3954 	0.057934
33.69 	0.064508 	3953 	0.063026
33.71 	0.065912 	3975 	0.065322
33.73 	0.051449 	4004 	0.050400
33.75 	0.059015 	3999 	0.058136
33.77 	0.053416 	4025 	0.052688
33.79 	0.061371 	4041 	0.060501
33.81 	0.063398 	4038 	0.061923
33.83 	0.060247 	4050 	0.059668
33.85 	0.062454 	4099 	0.061311
33.87 	0.055461 	4111 	0.054464
33.89 	0.064305 	4121 	0.063168
33.91 	0.059773 	4149 	0.058785
33.93 	0.061190 	4151 	0.060626
33.95 	0.060512 	4181 	0.059251
33.97 	0.064439 	4190 	0.063181
33.99 	0.051905 	4200 	0.050906
34.01 	0.056254 	4213 	0.055281
34.03 	0.052309 	4244 	0.051895
34.05 	0.057385 	4252 	0.055399
34.07 	0.058107 	4268 	0.056872
34.09 	0.060663 	4286 	0.058886
34.11 	0.059507 	4302 	0.058418
34.13 	0.058264 	4308 	0.056904
34.15 	0.057492 	4331 	0.056140
34.17 	0.061609 	4350 	0.060397
34.19 	0.060752 	4362 	0.059946
34.21 	0.056966 	4371 	0.056028
34.23 	0.056453 	4393 	0.055920
34.25 	0.060400 	4404 	0.059735
34.27 	0.055179 	4422 	0.054251
34.29 	0.053890 	4435 	0.053361
34.31 	0.058995 	4458 	0.057550
34.33 	0.058376 	4471 	0.057590
34.35 	0.062667 	4484 	0.062014
34.37 	0.057894 	4491 	0.056981
34.39 	0.054198 	4502 	0.053287
34.41 	0.053027 	4526 	0.051862
34.43 	0.060806 	4539 	0.060032
34.45 	0.059978 	4535 	0.059074
34.47 	0.059016 	4592 	0.058250
34.49 	0.062432 	4597 	0.061030
34.51 	0.059053 	4606 	0.058672
34.53 	0.054706 	4643 	0.053949
34.55 	0.062675 	4643 	0.061666
34.57 	0.063948 	4660 	0.063320
34.59 	0.056471 	4675 	0.055448
34.61 	0.062593 	4697 	0.061221
34.63 	0.054565 	4710 	0.054067
34.65 	0.053167 	4721 	0.052174
34.67 	0.058637 	4741 	0.058020
34.69 	0.066050 	4754 	0.065187
34.71 	0.056022 	4766 	0.055039
34.73 	0.058074 	4787 	0.057584
34.75 	0.061148 	4808 	0.060173
34.77 	0.063304 	4818 	0.061845
34.79 	0.062189 	4824 	0.060853
34.81 	0.057585 	4845 	0.057102
34.83 	0.060058 	4862 	0.059214
34.85 	0.050524 	4869 	0.049561
34.87 	0.063681 	4868 	0.062358
34.89 	0.057354 	4882 	0.056154
34.91 	0.063908 	4882 	0.062588
34.93 	0.058788 	4899 	0.057711
34.95 	0.056851 	4890 	0.056252
34.97 	0.055692 	4902 	0.055214
34.99 	0.057586 	4897 	0.056390
35.01 	0.057485 	4923 	0.056414
35.03 	0.065547 	4943 	0.063602
35.05 	0.058621 	4947 	0.058029
35.07 	0.059717 	4940 	0.058649
35.09 	0.054512 	4953 	0.053685
35.11 	0.060845 	4947 	0.060253
35.13 	0.059096 	4958 	0.058151
35.15 	0.061171 	4937 	0.058996
35.17 	0.055398 	4946 	0.054806
35.19 	0.054027 	4942 	0.053316
35.21 	0.061881 	4945 	0.061288
35.23 	0.057836 	4945 	0.056889
35.25 	0.054623 	4943 	0.053556
35.27 	0.054770 	4948 	0.054178
35.29 	0.059252 	4945 	0.058423
35.31 	0.058382 	4933 	0.057670
35.33 	0.052802 	4943 	0.052091
35.35 	0.050587 	4942 	0.049639
35.37 	0.063981 	4939 	0.063150
35.39 	0.059858 	4945 	0.059385
35.41 	0.063134 	4926 	0.061588
35.43 	0.057166 	4933 	0.056078
35.45 	0.057525 	4937 	0.056694
35.47 	0.053539 	4931 	0.052351
35.49 	0.059674 	4910 	0.058839
35.51 	0.052375 	4926 	0.051305
35.53 	0.056173 	4949 	0.055581
35.55 	0.060263 	4945 	0.059671
35.57 	0.052098 	4933 	0.051148
35.59 	0.060263 	4945 	0.058329
35.61 	0.057062 	4942 	0.056114
35.63 	0.055837 	4943 	0.055007
35.65 	0.054196 	4945 	0.053722
35.67 	0.059490 	4942 	0.058542
35.69 	0.063486 	4946 	0.062775
35.71 	0.055094 	4937 	0.054007
35.73 	0.065032 	4936 	0.063252
35.75 	0.054553 	4931 	0.054315
35.77 	0.056756 	4951 	0.055810
35.79 	0.062247 	4932 	0.060940
35.81 	0.052098 	4933 	0.051623
35.83 	0.057825 	4946 	0.057114
35.85 	0.054103 	4935 	0.053391
35.87 	0.056673 	4923 	0.055840
35.89 	0.057965 	4934 	0.057253
35.91 	0.060077 	4927 	0.059007
35.93 	0.055409 	4927 	0.054815
35.95 	0.053081 	4917 	0.052605
35.97 	0.057003 	4912 	0.056526
35.99 	0.058109 	4939 	0.057041
36.01 	0.051724 	4930 	0.050536
36.03 	0.057253 	4943 	0.056068
36.05 	0.055814 	4945 	0.054491
36.07 	0.053250 	4939 	0.052182
36.09 	0.062551 	4940 	0.061721
36.11 	0.050112 	4929 	0.049636
36.13 	0.053622 	4942 	0.052792
36.15 	0.058514 	4939 	0.057308
36.17 	0.055838 	4925 	0.054748
36.19 	0.063158 	4940 	0.062328
36.21 	0.053358 	4929 	0.053001
36.23 	0.054711 	4935 	0.053524
36.25 	0.051811 	4941 	0.050981
36.27 	0.055838 	4925 	0.055481
36.29 	0.052119 	4931 	0.051169
36.31 	0.053571 	4928 	0.052739
36.33 	0.059801 	4933 	0.058614
36.35 	0.057821 	4929 	0.057583
36.37 	0.056673 	4923 	0.055364
36.39 	0.055883 	4921 	0.054296
36.41 	0.064134 	4896 	0.062798
36.43 	0.056818 	4928 	0.056105
36.45 	0.057606 	4930 	0.056656
36.47 	0.054295 	4936 	0.053820
36.49 	0.051396 	4942 	0.050092
36.51 	0.056355 	4933 	0.055524
36.53 	0.054420 	4943 	0.053235
36.55 	0.052162 	4927 	0.051805
36.57 	0.059181 	4934 	0.058469
36.59 	0.056287 	4939 	0.055812
36.61 	0.055770 	4931 	0.054700
36.63 	0.054147 	4931 	0.053078
36.65 	0.058597 	4932 	0.057647
36.67 	0.051521 	4930 	0.050808
36.69 	0.054981 	4929 	0.054149
36.71 	0.055477 	4921 	0.054762
36.73 	0.054010 	4925 	0.053653
36.75 	0.058657 	4944 	0.057117
36.77 	0.056516 	4919 	0.055920
36.79 	0.050599 	4921 	0.049766
36.81 	0.049837 	4916 	0.049122
36.83 	0.058596 	4915 	0.058000
36.85 	0.054512 	4898 	0.053196
36.87 	0.054814 	4944 	0.053629
36.89 	0.059398 	4916 	0.058087
36.91 	0.054038 	4941 	0.053326
36.93 	0.056592 	4930 	0.055860
36.95 	0.056152 	4933 	0.055202
36.97 	0.055128 	4934 	0.054297
36.99 	0.050659 	4935 	0.050065
37.01 	0.050071 	4933 	0.049596
37.03 	0.051787 	4924 	0.051430
37.05 	0.058656 	4927 	0.057824
37.07 	0.054711 	4935 	0.053762
37.09 	0.053571 	4928 	0.053215
37.11 	0.051874 	4935 	0.051162
37.13 	0.055240 	4924 	0.054526
37.15 	0.054797 	4909 	0.054320
37.17 	0.056546 	4934 	0.055478
37.19 	0.056244 	4925 	0.055411
37.21 	0.047997 	4917 	0.047520
37.23 	0.061814 	4918 	0.060623
37.25 	0.054368 	4911 	0.053652
37.27 	0.051900 	4894 	0.051302
37.29 	0.059838 	4930 	0.058768
37.31 	0.052685 	4935 	0.051735
37.33 	0.056627 	4927 	0.055180
37.35 	0.057311 	4938 	0.056243
37.37 	0.049117 	4927 	0.048998
37.39 	0.054756 	4931 	0.053449
37.41 	0.061854 	4931 	0.060428
37.43 	0.057989 	4932 	0.057632
37.45 	0.052600 	4924 	0.051509
37.47 	0.052140 	4929 	0.051546
37.49 	0.052001 	4923 	0.051763
37.51 	0.052504 	4933 	0.051791
37.53 	0.052450 	4919 	0.051497
37.55 	0.056592 	4930 	0.055404
37.57 	0.051574 	4925 	0.050860
37.59 	0.051272 	4915 	0.050437
37.61 	0.056075 	4922 	0.054766
37.63 	0.054686 	4919 	0.053376
37.65 	0.053680 	4918 	0.052847
37.67 	0.052610 	4904 	0.052252
37.69 	0.055125 	4898 	0.054168
37.71 	0.053763 	4929 	0.052813
37.73 	0.053358 	4929 	0.052645
37.75 	0.052024 	4940 	0.050838
37.77 	0.048577 	4920 	0.048101
37.79 	0.055781 	4930 	0.054949
37.81 	0.055139 	4933 	0.054426
37.83 	0.053862 	4920 	0.053147
37.85 	0.048151 	4922 	0.047656
37.87 	0.051630 	4939 	0.050800
37.89 	0.057259 	4925 	0.056188
37.91 	0.050507 	4930 	0.050032
37.93 	0.054889 	4919 	0.054175
37.95 	0.050396 	4921 	0.049563
37.97 	0.049706 	4929 	0.049112
37.99 	0.052321 	4912 	0.051725
38.01 	0.054180 	4928 	0.053824
38.03 	0.056223 	4909 	0.055507
38.05 	0.060102 	4925 	0.058536
38.07 	0.057038 	4909 	0.056322
38.09 	0.054326 	4878 	0.053125
38.11 	0.057751 	4935 	0.056682
38.13 	0.056917 	4937 	0.056087
38.15 	0.060187 	4918 	0.059234
38.17 	0.060852 	4930 	0.059783
38.19 	0.057606 	4930 	0.056775
38.21 	0.057079 	4923 	0.056127
38.23 	0.059538 	4938 	0.058451
38.25 	0.058979 	4917 	0.058503
38.27 	0.064300 	4930 	0.063112
38.29 	0.060723 	4924 	0.059514
38.31 	0.065354 	4927 	0.064879
38.33 	0.063363 	4924 	0.062411
38.35 	0.065747 	4928 	0.064677
38.37 	0.061942 	4924 	0.061089
38.39 	0.066612 	4909 	0.065180
38.41 	0.066626 	4923 	0.065198
38.43 	0.068145 	4916 	0.066953
38.45 	0.062017 	4918 	0.060469
38.47 	0.063990 	4907 	0.062796
38.49 	0.065204 	4877 	0.064003
38.51 	0.057380 	4932 	0.056311
38.53 	0.060053 	4929 	0.059102
38.55 	0.065640 	4936 	0.064097
38.57 	0.062157 	4923 	0.061205
38.59 	0.054630 	4924 	0.054273
38.61 	0.064627 	4936 	0.063065
38.63 	0.059301 	4924 	0.058350
38.65 	0.055510 	4918 	0.054677
38.67 	0.054081 	4937 	0.052776
38.69 	0.054246 	4922 	0.053651
38.71 	0.052600 	4924 	0.051886
38.73 	0.051037 	4918 	0.049965
38.75 	0.056018 	4927 	0.055305
38.77 	0.051798 	4923 	0.050965
38.79 	0.053506 	4934 	0.052200
38.81 	0.056393 	4912 	0.055200
38.83 	0.048181 	4919 	0.047347
38.85 	0.052524 	4912 	0.052167
38.87 	0.050092 	4911 	0.049495
38.89 	0.056361 	4897 	0.055404
38.91 	0.052417 	4903 	0.051680
38.93 	0.052855 	4938 	0.052144
38.95 	0.057137 	4918 	0.055708
38.97 	0.050497 	4931 	0.050259
38.99 	0.046992 	4937 	0.046517
39.01 	0.047580 	4918 	0.046985
39.03 	0.057154 	4934 	0.056205
39.05 	0.051777 	4925 	0.050944
39.07 	0.052396 	4924 	0.051564
39.09 	0.052813 	4923 	0.052099
39.11 	0.046846 	4931 	0.046134
39.13 	0.050985 	4923 	0.050628
39.15 	0.052492 	4915 	0.051777
39.17 	0.057120 	4937 	0.056289
39.19 	0.051454 	4917 	0.050978
39.21 	0.056823 	4910 	0.055749
39.23 	0.056447 	4925 	0.055614
39.25 	0.060951 	4922 	0.059761
39.27 	0.052749 	4910 	0.052272
39.29 	0.051826 	4901 	0.051229
39.31 	0.055897 	4884 	0.055057
39.33 	0.057595 	4931 	0.056763
39.35 	0.053293 	4935 	0.052462
39.37 	0.048489 	4929 	0.047657
39.39 	0.046257 	4929 	0.045168
39.41 	0.052119 	4931 	0.050812
39.43 	0.052098 	4933 	0.051267
39.45 	0.049543 	4925 	0.048711
39.47 	0.054845 	4923 	0.054131
39.49 	0.053517 	4933 	0.053042
39.51 	0.055443 	4924 	0.054590
39.53 	0.050579 	4923 	0.049508
39.55 	0.051230 	4919 	0.050258
39.57 	0.051693 	4933 	0.050861
39.59 	0.051507 	4912 	0.050910
39.61 	0.054032 	4923 	0.053556
39.63 	0.049167 	4922 	0.048334
39.65 	0.053999 	4926 	0.052691
39.67 	0.049461 	4913 	0.048864
39.69 	0.058788 	4916 	0.057834
39.71 	0.059448 	4895 	0.058252
39.73 	0.054401 	4908 	0.053327
39.75 	0.056209 	4928 	0.054902
39.77 	0.054103 	4935 	0.053866
39.79 	0.054202 	4926 	0.053251
39.81 	0.052770 	4927 	0.051938
39.83 	0.050061 	4934 	0.049586
39.85 	0.051553 	4927 	0.050602
39.87 	0.054213 	4925 	0.053262
39.89 	0.052493 	4934 	0.051899
39.91 	0.055465 	4922 	0.054394
39.93 	0.052056 	4937 	0.051344
39.95 	0.053306 	4915 	0.052591
39.97 	0.052557 	4928 	0.051606
39.99 	0.051095 	4932 	0.050501
40.01 	0.054087 	4918 	0.052777
40.03 	0.053166 	4928 	0.052195
40.05 	0.053691 	4917 	0.052738
40.07 	0.057079 	4923 	0.056008
40.09 	0.056957 	4916 	0.055765
40.11 	0.054719 	4916 	0.053766
40.13 	0.054126 	4896 	0.053528
40.15 	0.057806 	4913 	0.056494
40.17 	0.050325 	4928 	0.049730
40.19 	0.054169 	4929 	0.053575
40.21 	0.048430 	4935 	0.047480
40.23 	0.051703 	4932 	0.051109
40.25 	0.050407 	4920 	0.049573
40.27 	0.052866 	4937 	0.051917
40.29 	0.049929 	4927 	0.049572
40.31 	0.049403 	4939 	0.048810
40.33 	0.052311 	4932 	0.051361
40.35 	0.054483 	4919 	0.053411
40.37 	0.048691 	4929 	0.047741
40.39 	0.050902 	4931 	0.050071
40.41 	0.048325 	4925 	0.047730
40.43 	0.053434 	4922 	0.052600
40.45 	0.051895 	4933 	0.051183
40.47 	0.058967 	4918 	0.057419
40.49 	0.056841 	4926 	0.055771
40.51 	0.050589 	4922 	0.049994
40.53 	0.054312 	4916 	0.053836
40.55 	0.053993 	4908 	0.052800
40.57 	0.046830 	4890 	0.046112
40.59 	0.053069 	4937 	0.052475
40.61 	0.047822 	4935 	0.046991
40.63 	0.060243 	4930 	0.059036
40.65 	0.054689 	4937 	0.053602
40.67 	0.042985 	4932 	0.042509
40.69 	0.057120 	4937 	0.055933
40.71 	0.050892 	4932 	0.050061
40.73 	0.050548 	4926 	0.049835
40.75 	0.047455 	4931 	0.046861
40.77 	0.054262 	4939 	0.052720
40.79 	0.053615 	4924 	0.052663
40.81 	0.050395 	4941 	0.049802
40.83 	0.047890 	4928 	0.047295
40.85 	0.053209 	4924 	0.052019
40.87 	0.049107 	4928 	0.048751
40.89 	0.047658 	4931 	0.046945
40.91 	0.047532 	4923 	0.047175
40.93 	0.049250 	4934 	0.048894
40.95 	0.049257 	4913 	0.048661
40.97 	0.053412 	4924 	0.052460
40.99 	0.044476 	4924 	0.043881
41.01 	0.055375 	4912 	0.054778
41.03 	0.045464 	4905 	0.044747
41.05 	0.051256 	4936 	0.050425
41.07 	0.052535 	4930 	0.051328
41.09 	0.046973 	4939 	0.046261
41.11 	0.050456 	4935 	0.049625
41.13 	0.047812 	4936 	0.047100
41.15 	0.053430 	4941 	0.052601
41.17 	0.048439 	4934 	0.048202
41.19 	0.054970 	4930 	0.054494
41.21 	0.046182 	4937 	0.045826
41.23 	0.050415 	4939 	0.049466
41.25 	0.054531 	4933 	0.053699
41.27 	0.047860 	4931 	0.047504
41.29 	0.047078 	4928 	0.046721
41.31 	0.052909 	4933 	0.051939
41.33 	0.051246 	4937 	0.050890
41.35 	0.050223 	4938 	0.049511
41.37 	0.051381 	4924 	0.050310
41.39 	0.048652 	4933 	0.047939
41.41 	0.058059 	4926 	0.057207
41.43 	0.046054 	4929 	0.045579
41.45 	0.051282 	4914 	0.050805
41.47 	0.049533 	4926 	0.048820
41.49 	0.050899 	4892 	0.050301
41.51 	0.054049 	4940 	0.052744
41.53 	0.054814 	4944 	0.053629
41.55 	0.048227 	4935 	0.047277
41.57 	0.046347 	4941 	0.045735
41.59 	0.051693 	4933 	0.051099
41.61 	0.051080 	4953 	0.050016
41.63 	0.048805 	4938 	0.048449
41.65 	0.048691 	4929 	0.048454
41.67 	0.048988 	4940 	0.048395
41.69 	0.052355 	4947 	0.052118
41.71 	0.049250 	4934 	0.048656
41.73 	0.048015 	4936 	0.047184
41.75 	0.046663 	4929 	0.046306
41.77 	0.046549 	4941 	0.046075
41.79 	0.047937 	4944 	0.047108
41.81 	0.048825 	4936 	0.048232
41.83 	0.050528 	4928 	0.049696
41.85 	0.044138 	4939 	0.043545
41.87 	0.047619 	4935 	0.046531
41.89 	0.051287 	4933 	0.051050
41.91 	0.049230 	4936 	0.048399
41.93 	0.048459 	4932 	0.047746
41.95 	0.051308 	4931 	0.050932
41.97 	0.042939 	4914 	0.042343
41.99 	0.049745 	4905 	0.049029
42.01 	0.046945 	4942 	0.046233
42.03 	0.045151 	4939 	0.044439
42.05 	0.049475 	4952 	0.048529
42.07 	0.045777 	4937 	0.045184
42.09 	0.050525 	4948 	0.049815
42.11 	0.047523 	4945 	0.046556
42.13 	0.046714 	4945 	0.045529
42.15 	0.043337 	4938 	0.042863
42.17 	0.045954 	4918 	0.045477
42.19 	0.047881 	4908 	0.046787
42.21 	0.045297 	4901 	0.044580
42.23 	0.048446 	4892 	0.047349
42.25 	0.049090 	4889 	0.048611
42.27 	0.039803 	4874 	0.039442
42.29 	0.053259 	4863 	0.052777
42.31 	0.038723 	4855 	0.038120
42.33 	0.048821 	4834 	0.048094
42.35 	0.046093 	4838 	0.045488
42.37 	0.047412 	4830 	0.046199
42.39 	0.043089 	4804 	0.042723
42.41 	0.042048 	4804 	0.041804
42.43 	0.048205 	4792 	0.047594
42.45 	0.046692 	4776 	0.046446
42.47 	0.043232 	4765 	0.042248
42.49 	0.045540 	4765 	0.044803
42.51 	0.039848 	4743 	0.039354
42.53 	0.047589 	4728 	0.046722
42.55 	0.047579 	4708 	0.046956
42.57 	0.043340 	4730 	0.042721
42.59 	0.040389 	4729 	0.040141
42.61 	0.049490 	4708 	0.048599
42.63 	0.045020 	4709 	0.044398
42.65 	0.043970 	4685 	0.043595
42.67 	0.044193 	4684 	0.043568
42.69 	0.046641 	4674 	0.046390
42.71 	0.041604 	4663 	0.040474
42.73 	0.042888 	4640 	0.042509
42.75 	0.047433 	4617 	0.046545
42.77 	0.048261 	4600 	0.047751
42.79 	0.046923 	4582 	0.046028
42.81 	0.048663 	4562 	0.048021
42.83 	0.049162 	4536 	0.048258
42.85 	0.053445 	4528 	0.052648
42.87 	0.046677 	4499 	0.046417
42.89 	0.050446 	4480 	0.049662
42.91 	0.046230 	4456 	0.045835
42.93 	0.044759 	4446 	0.043969
42.95 	0.042346 	4416 	0.041683
42.97 	0.049989 	4401 	0.049722
42.99 	0.043330 	4385 	0.042929
43.01 	0.048820 	4363 	0.048148
43.03 	0.049850 	4333 	0.049309
43.05 	0.044393 	4325 	0.043987
43.07 	0.043063 	4296 	0.041972
43.09 	0.053000 	4283 	0.052316
43.11 	0.047944 	4255 	0.047531
43.13 	0.049327 	4237 	0.048498
43.15 	0.046125 	4206 	0.045428
43.17 	0.044987 	4179 	0.044263
43.19 	0.045780 	4194 	0.045221
43.21 	0.041707 	4172 	0.041005
43.23 	0.045258 	4154 	0.044835
43.25 	0.043289 	4135 	0.042722
43.27 	0.051888 	4105 	0.051174
43.29 	0.043659 	4100 	0.043230
43.31 	0.045354 	4079 	0.045211
43.33 	0.042952 	4051 	0.042229
43.35 	0.048115 	4032 	0.048115
43.37 	0.045579 	4015 	0.045141
43.39 	0.040980 	4002 	0.040540
43.41 	0.049345 	3972 	0.048608
43.43 	0.042424 	3960 	0.041537
43.45 	0.040407 	3935 	0.040109
43.47 	0.043611 	3921 	0.043313
43.49 	0.054144 	3897 	0.053393
43.51 	0.051586 	3877 	0.050529
43.53 	0.049443 	3863 	0.048534
43.55 	0.046221 	2964 	0.046221
43.57 	0.043789 	2238 	0.043266
43.59 	0.036082 	1746 	0.035411
43.61 	0.042931 	1351 	0.042498
43.63 	0.046953 	1001 	0.045783
43.65 	0.036390 	687 	0.035537
43.67 	0.043825 	502 	0.043825
43.69 	0.054496 	367 	0.052900
43.71 	0.066946 	239 	0.066946
43.73 	0.066667 	120 	0.066667
43.75 	0.000000 	16 	0.000000