File: Example_Data/25SC_s1_0040.000.dat
#F C:\frames\spec\25SC_s1_0040.000
#C title =s:40 frm:0 25SC_s1
#C wavelength =0.15406

#S 1  fr_average C:\frames\spec\25SC_s1_0040.000 C:\win32app\speccom\mask.axs chi 0 180 0 360 0.02
#C 2 theta =0.000000 to 180 deg
#C   q   =0.000000 to 81.568 nm^-1
#C  chi  =0.000000 to 360 deg
#C collumns:
#C  1 position (2theta or chi in degrees)
#C  2 average intensity (sum of all counts in the region divided with number of pixels)
#C  3 Number of pixels in region)
#C  4 error (sum of sqrt(intensity) for all pixels divided by number)
#N 4
#L TTh  Int  N_pix  Err
32.99 	0.114754 	61 	0.114754
33.01 	0.058419 	873 	0.058419
33.03 	0.065421 	1391 	0.064157
33.05 	0.054069 	1757 	0.053403
33.07 	0.066829 	2050 	0.066258
33.09 	0.065616 	2347 	0.065366
33.11 	0.061652 	2579 	0.060706
33.13 	0.065879 	2793 	0.063957
33.15 	0.059353 	2999 	0.057368
33.17 	0.054670 	3201 	0.053725
33.19 	0.060144 	3342 	0.058917
33.21 	0.058207 	3436 	0.057014
33.23 	0.059041 	3523 	0.058375
33.25 	0.066722 	3612 	0.065911
33.27 	0.069146 	3630 	0.067694
33.29 	0.058388 	3648 	0.057585
33.31 	0.057104 	3660 	0.056304
33.33 	0.054259 	3686 	0.053465
33.35 	0.059827 	3694 	0.058400
33.37 	0.058158 	3714 	0.057370
33.39 	0.067042 	3729 	0.065785
33.41 	0.062299 	3740 	0.061021
33.43 	0.056102 	3761 	0.055323
33.45 	0.058044 	3773 	0.057268
33.47 	0.065298 	3798 	0.064347
33.49 	0.066947 	3809 	0.066178
33.51 	0.062123 	3815 	0.060434
33.53 	0.059880 	3841 	0.058203
33.55 	0.064012 	3843 	0.062793
33.57 	0.064483 	3877 	0.063576
33.59 	0.061082 	3880 	0.060630
33.61 	0.061397 	3909 	0.060797
33.63 	0.058688 	3919 	0.058240
33.65 	0.057237 	3931 	0.056641
33.67 	0.061457 	3954 	0.059655
33.69 	0.064508 	3953 	0.063471
33.71 	0.063145 	3975 	0.062260
33.73 	0.059441 	4004 	0.058563
33.75 	0.064516 	3999 	0.063491
33.77 	0.061615 	4025 	0.060160
33.79 	0.066815 	4041 	0.065076
33.81 	0.055225 	4038 	0.054935
33.83 	0.062469 	4050 	0.061891
33.85 	0.057087 	4099 	0.054943
33.87 	0.056677 	4111 	0.055822
33.89 	0.063091 	4121 	0.062096
33.91 	0.055676 	4149 	0.053959
33.93 	0.061672 	4151 	0.060402
33.95 	0.062425 	4181 	0.061164
33.97 	0.061575 	4190 	0.060597
33.99 	0.059286 	4200 	0.058588
34.01 	0.054118 	4213 	0.053423
34.03 	0.058435 	4244 	0.056917
34.05 	0.060442 	4252 	0.059340
34.07 	0.056935 	4268 	0.056524
34.09 	0.064162 	4286 	0.063479
34.11 	0.052534 	4302 	0.052261
34.13 	0.062906 	4308 	0.061954
34.15 	0.060725 	4331 	0.059778
34.17 	0.051954 	4350 	0.051146
34.19 	0.054791 	4362 	0.053561
34.21 	0.058797 	4371 	0.057568
34.23 	0.062600 	4393 	0.060844
34.25 	0.057221 	4404 	0.055891
34.27 	0.061737 	4422 	0.061472
34.29 	0.054791 	4435 	0.053603
34.31 	0.054733 	4458 	0.054207
34.33 	0.060389 	4471 	0.059079
34.35 	0.061552 	4484 	0.060899
34.37 	0.057226 	4491 	0.055791
34.39 	0.056197 	4502 	0.055286
34.41 	0.059655 	4526 	0.058232
34.43 	0.053977 	4539 	0.053202
34.45 	0.062845 	4535 	0.062070
34.47 	0.056838 	4592 	0.055690
34.49 	0.053948 	4597 	0.052377
34.51 	0.058185 	4606 	0.057549
34.53 	0.051906 	4643 	0.051023
34.55 	0.060521 	4643 	0.059133
34.57 	0.055794 	4660 	0.054642
34.59 	0.057754 	4675 	0.057128
34.61 	0.057909 	4697 	0.057535
34.63 	0.057325 	4710 	0.056454
34.65 	0.062275 	4721 	0.061530
34.67 	0.055474 	4741 	0.054362
34.69 	0.057636 	4754 	0.056773
34.71 	0.059589 	4766 	0.058728
34.73 	0.047838 	4787 	0.046981
34.75 	0.051581 	4808 	0.050972
34.77 	0.051681 	4818 	0.050587
34.79 	0.062396 	4824 	0.061789
34.81 	0.063364 	4845 	0.062760
34.83 	0.058001 	4862 	0.057398
34.85 	0.061820 	4869 	0.060376
34.87 	0.057518 	4868 	0.056556
34.89 	0.051004 	4882 	0.050044
34.91 	0.057558 	4882 	0.056478
34.93 	0.059604 	4899 	0.058767
34.95 	0.052761 	4890 	0.052282
34.97 	0.056916 	4902 	0.055960
34.99 	0.063712 	4897 	0.062397
35.01 	0.053016 	4923 	0.051827
35.03 	0.052195 	4943 	0.051840
35.05 	0.055387 	4947 	0.054420
35.07 	0.057085 	4940 	0.056018
35.09 	0.063194 	4953 	0.062228
35.11 	0.062260 	4947 	0.061549
35.13 	0.055264 	4958 	0.054555
35.15 	0.053271 	4937 	0.052678
35.17 	0.054994 	4946 	0.054046
35.19 	0.054027 	4942 	0.053434
35.21 	0.057432 	4945 	0.056129
35.23 	0.050961 	4945 	0.050250
35.25 	0.058264 	4943 	0.057909
35.27 	0.064875 	4948 	0.063454
35.29 	0.057634 	4945 	0.057160
35.31 	0.055747 	4933 	0.055272
35.33 	0.064131 	4943 	0.062828
35.35 	0.053420 	4942 	0.052116
35.37 	0.061956 	4939 	0.061244
35.39 	0.062285 	4945 	0.061574
35.41 	0.056232 	4926 	0.055638
35.43 	0.053314 	4933 	0.052364
35.45 	0.059550 	4937 	0.059076
35.47 	0.056378 	4931 	0.055665
35.49 	0.057230 	4910 	0.056395
35.51 	0.054405 	4926 	0.053216
35.53 	0.055769 	4949 	0.054940
35.55 	0.053387 	4945 	0.052657
35.57 	0.053112 	4933 	0.051924
35.59 	0.061274 	4945 	0.060208
35.61 	0.056860 	4942 	0.056504
35.63 	0.055027 	4943 	0.054435
35.65 	0.056825 	4945 	0.055759
35.67 	0.057467 	4942 	0.056637
35.69 	0.061464 	4946 	0.060635
35.71 	0.052461 	4937 	0.051393
35.73 	0.060170 	4936 	0.059577
35.75 	0.058609 	4931 	0.057064
35.77 	0.055746 	4951 	0.054918
35.79 	0.059408 	4932 	0.058458
35.81 	0.053923 	4933 	0.053210
35.83 	0.058229 	4946 	0.057163
35.85 	0.057548 	4935 	0.056955
35.87 	0.065001 	4923 	0.063197
35.89 	0.056546 	4934 	0.055715
35.91 	0.057236 	4927 	0.056166
35.93 	0.055206 	4927 	0.054493
35.95 	0.062233 	4917 	0.061280
35.97 	0.058021 	4912 	0.057186
35.99 	0.062563 	4939 	0.061614
36.01 	0.057809 	4930 	0.057096
36.03 	0.054825 	4943 	0.053758
36.05 	0.059858 	4945 	0.059385
36.07 	0.056084 	4939 	0.055017
36.09 	0.057085 	4940 	0.055781
36.11 	0.060661 	4929 	0.059711
36.13 	0.062323 	4942 	0.060663
36.15 	0.057097 	4939 	0.055535
36.17 	0.053604 	4925 	0.052653
36.19 	0.059919 	4940 	0.058970
36.21 	0.056604 	4929 	0.055772
36.23 	0.055319 	4935 	0.054488
36.25 	0.049990 	4941 	0.049397
36.27 	0.061117 	4925 	0.060403
36.29 	0.056784 	4931 	0.055952
36.31 	0.056412 	4928 	0.055580
36.33 	0.061626 	4933 	0.060320
36.35 	0.054372 	4929 	0.054134
36.37 	0.056470 	4923 	0.055399
36.39 	0.058931 	4921 	0.057483
36.41 	0.055556 	4896 	0.054838
36.43 	0.059253 	4928 	0.058302
36.45 	0.052333 	4930 	0.051976
36.47 	0.064627 	4936 	0.063915
36.49 	0.064144 	4942 	0.063551
36.51 	0.057166 	4933 	0.056572
36.53 	0.058062 	4943 	0.057232
36.55 	0.057439 	4927 	0.056587
36.57 	0.052088 	4934 	0.051000
36.59 	0.055882 	4939 	0.054933
36.61 	0.056378 	4931 	0.055903
36.63 	0.063882 	4931 	0.063050
36.65 	0.056975 	4932 	0.056381
36.67 	0.052941 	4930 	0.052328
36.69 	0.056198 	4929 	0.055128
36.71 	0.056899 	4921 	0.056185
36.73 	0.051777 	4925 	0.050349
36.75 	0.060073 	4944 	0.059599
36.77 	0.057125 	4919 	0.056292
36.79 	0.061979 	4921 	0.061622
36.81 	0.057364 	4916 	0.056291
36.83 	0.054120 	4915 	0.053167
36.85 	0.050633 	4898 	0.049437
36.87 	0.056634 	4944 	0.055923
36.89 	0.058991 	4916 	0.058157
36.91 	0.059502 	4941 	0.058791
36.93 	0.059229 	4930 	0.057922
36.95 	0.055544 	4933 	0.054832
36.97 	0.062829 	4934 	0.061741
36.99 	0.053293 	4935 	0.052818
37.01 	0.057166 	4933 	0.055622
37.03 	0.055849 	4924 	0.054302
37.05 	0.055409 	4927 	0.054577
37.07 	0.053901 	4935 	0.053406
37.09 	0.056209 	4928 	0.055496
37.11 	0.058156 	4935 	0.057681
37.13 	0.057474 	4924 	0.056383
37.15 	0.059075 	4909 	0.058001
37.17 	0.053912 	4934 	0.053437
37.19 	0.057056 	4925 	0.056104
37.21 	0.060809 	4917 	0.059380
37.23 	0.059170 	4918 	0.058317
37.25 	0.059458 	4911 	0.058723
37.27 	0.056600 	4894 	0.055762
37.29 	0.061663 	4930 	0.060950
37.31 	0.059574 	4935 	0.058506
37.33 	0.059671 	4927 	0.058363
37.35 	0.057918 	4938 	0.056475
37.37 	0.054394 	4927 	0.053919
37.39 	0.057189 	4931 	0.055725
37.41 	0.060028 	4931 	0.058959
37.43 	0.055556 	4932 	0.054843
37.45 	0.052803 	4924 	0.052327
37.47 	0.052140 	4929 	0.051527
37.49 	0.055251 	4923 	0.054517
37.51 	0.054936 	4933 	0.053986
37.53 	0.055906 	4919 	0.055429
37.55 	0.055984 	4930 	0.055390
37.57 	0.054213 	4925 	0.053262
37.59 	0.056968 	4915 	0.055657
37.61 	0.056075 	4922 	0.054885
37.63 	0.060785 	4919 	0.059832
37.65 	0.058154 	4918 	0.057300
37.67 	0.063214 	4904 	0.062119
37.69 	0.056350 	4898 	0.055154
37.71 	0.059241 	4929 	0.058409
37.73 	0.062284 	4929 	0.061215
37.75 	0.061538 	4940 	0.060827
37.77 	0.055894 	4920 	0.055180
37.79 	0.058824 	4930 	0.057754
37.81 	0.050274 	4933 	0.049324
37.83 	0.059350 	4920 	0.058754
37.85 	0.056684 	4922 	0.056089
37.87 	0.054667 	4939 	0.052651
37.89 	0.055431 	4925 	0.054599
37.91 	0.053955 	4930 	0.053124
37.93 	0.057329 	4919 	0.056356
37.95 	0.053444 	4921 	0.052849
37.97 	0.054169 	4929 	0.052981
37.99 	0.053746 	4912 	0.052911
38.01 	0.052354 	4928 	0.051760
38.03 	0.055612 	4909 	0.054538
38.05 	0.059695 	4925 	0.058387
38.07 	0.063760 	4909 	0.062806
38.09 	0.058836 	4878 	0.057395
38.11 	0.058156 	4935 	0.057681
38.13 	0.056715 	4937 	0.055409
38.15 	0.058357 	4918 	0.056809
38.17 	0.061055 	4930 	0.059609
38.19 	0.061866 	4930 	0.061510
38.21 	0.066423 	4923 	0.064827
38.23 	0.063994 	4938 	0.062570
38.25 	0.071792 	4917 	0.070243
38.27 	0.071400 	4930 	0.070093
38.29 	0.071690 	4924 	0.069786
38.31 	0.076111 	4927 	0.074685
38.33 	0.069862 	4924 	0.068315
38.35 	0.077719 	4928 	0.075698
38.37 	0.080626 	4924 	0.078445
38.39 	0.078631 	4909 	0.077557
38.41 	0.074345 	4923 	0.072679
38.43 	0.085028 	4916 	0.082864
38.45 	0.075844 	4918 	0.074772
38.47 	0.080293 	4907 	0.078364
38.49 	0.084888 	4877 	0.082446
38.51 	0.083131 	4932 	0.081111
38.53 	0.077298 	4929 	0.075753
38.55 	0.077796 	4936 	0.075640
38.57 	0.081454 	4923 	0.080859
38.59 	0.073314 	4924 	0.072006
38.61 	0.078404 	4936 	0.076386
38.63 	0.075345 	4924 	0.073779
38.65 	0.068320 	4918 	0.067248
38.67 	0.069070 	4937 	0.067646
38.69 	0.060951 	4922 	0.059761
38.71 	0.066816 	4924 	0.066221
38.73 	0.065677 	4918 	0.064486
38.75 	0.067587 	4927 	0.066636
38.77 	0.070892 	4923 	0.069801
38.79 	0.062424 	4934 	0.061474
38.81 	0.067590 	4912 	0.066974
38.83 	0.056312 	4919 	0.055717
38.85 	0.058021 	4912 	0.057306
38.87 	0.054164 	4911 	0.053210
38.89 	0.056769 	4897 	0.056171
38.91 	0.053437 	4903 	0.052361
38.93 	0.052248 	4938 	0.051398
38.95 	0.049004 	4918 	0.048527
38.97 	0.051105 	4931 	0.050630
38.99 	0.055297 	4937 	0.054091
39.01 	0.045547 	4918 	0.044951
39.03 	0.052493 	4934 	0.051405
39.05 	0.048934 	4925 	0.048339
39.07 	0.046507 	4924 	0.046031
39.09 	0.052204 	4923 	0.051232
39.11 	0.049686 	4931 	0.049092
39.13 	0.047938 	4923 	0.047700
39.15 	0.045168 	4915 	0.044572
39.17 	0.046587 	4937 	0.046231
39.19 	0.043116 	4917 	0.042639
39.21 	0.045621 	4910 	0.044905
39.23 	0.044061 	4925 	0.043347
39.25 	0.048151 	4922 	0.047556
39.27 	0.050306 	4910 	0.049093
39.29 	0.047133 	4901 	0.046536
39.31 	0.047093 	4884 	0.046493
39.33 	0.041574 	4931 	0.040980
39.35 	0.047822 	4935 	0.046991
39.37 	0.045242 	4929 	0.044648
39.39 	0.044431 	4929 	0.043718
39.41 	0.042385 	4931 	0.041791
39.43 	0.049463 	4933 	0.048256
39.45 	0.043655 	4925 	0.043179
39.47 	0.042454 	4923 	0.041978
39.49 	0.042773 	4933 	0.042061
39.51 	0.046507 	4924 	0.045793
39.53 	0.044688 	4923 	0.044093
39.55 	0.046961 	4919 	0.046008
39.57 	0.047233 	4933 	0.046639
39.59 	0.046417 	4912 	0.046178
39.61 	0.046516 	4923 	0.046040
39.63 	0.051808 	4922 	0.051213
39.65 	0.041210 	4926 	0.040496
39.67 	0.037859 	4913 	0.037501
39.69 	0.046989 	4916 	0.046274
39.71 	0.046782 	4895 	0.046423
39.73 	0.046455 	4908 	0.046097
39.75 	0.043628 	4928 	0.043153
39.77 	0.041743 	4935 	0.041248
39.79 	0.048112 	4926 	0.047161
39.81 	0.042013 	4927 	0.041657
39.83 	0.047223 	4934 	0.046392
39.85 	0.042622 	4927 	0.041909
39.87 	0.044670 	4925 	0.044194
39.89 	0.049047 	4934 	0.048454
39.91 	0.045510 	4922 	0.045034
39.93 	0.042333 	4937 	0.041621
39.95 	0.050254 	4915 	0.049281
39.97 	0.049310 	4928 	0.048835
39.99 	0.050689 	4932 	0.049977
40.01 	0.040260 	4918 	0.040141
40.03 	0.043019 	4928 	0.042069
40.05 	0.043116 	4917 	0.042381
40.07 	0.043266 	4923 	0.043266
40.09 	0.042311 	4916 	0.042192
40.11 	0.042921 	4916 	0.042444
40.13 	0.049224 	4896 	0.048506
40.15 	0.042947 	4913 	0.042332
40.17 	0.042817 	4928 	0.042698
40.19 	0.047880 	4929 	0.046573
40.21 	0.041135 	4935 	0.040185
40.23 	0.044201 	4932 	0.043845
40.25 	0.046138 	4920 	0.046019
40.27 	0.045574 	4937 	0.044744
40.29 	0.049320 	4927 	0.048607
40.31 	0.050415 	4939 	0.049585
40.33 	0.042376 	4932 	0.042139
40.35 	0.041269 	4919 	0.040673
40.37 	0.044431 	4929 	0.043837
40.39 	0.043805 	4931 	0.043211
40.41 	0.038782 	4925 	0.038425
40.43 	0.042259 	4922 	0.041902
40.45 	0.042976 	4933 	0.042145
40.47 	0.045547 	4918 	0.044951
40.49 	0.043646 	4926 	0.043289
40.51 	0.041447 	4922 	0.041328
40.53 	0.039666 	4916 	0.039547
40.55 	0.042176 	4908 	0.041699
40.57 	0.040491 	4890 	0.040131
40.59 	0.047600 	4937 	0.046987
40.61 	0.040729 	4935 	0.040255
40.63 	0.039757 	4930 	0.039400
40.65 	0.036864 	4937 	0.036390
40.67 	0.043593 	4932 	0.042761
40.69 	0.042941 	4937 	0.042110
40.71 	0.046431 	4932 	0.046075
40.73 	0.046691 	4926 	0.045978
40.75 	0.040560 	4931 	0.039966
40.77 	0.045353 	4939 	0.044642
40.79 	0.042445 	4924 	0.042207
40.81 	0.045133 	4941 	0.044540
40.83 	0.038555 	4928 	0.037723
40.85 	0.040820 	4924 	0.040702
40.87 	0.041599 	4928 	0.041124
40.89 	0.035084 	4931 	0.034728
40.91 	0.043266 	4923 	0.043028
40.93 	0.039116 	4934 	0.038641
40.95 	0.042744 	4913 	0.042028
40.97 	0.043664 	4924 	0.042712
40.99 	0.038790 	4924 	0.038671
41.01 	0.045399 	4912 	0.045041
41.03 	0.042610 	4905 	0.042132
41.05 	0.035656 	4936 	0.034806
41.07 	0.038945 	4930 	0.038470
41.09 	0.039482 	4939 	0.039126
41.11 	0.041135 	4935 	0.041016
41.13 	0.040316 	4936 	0.039485
41.15 	0.039668 	4941 	0.039194
41.17 	0.041548 	4934 	0.041311
41.19 	0.040568 	4930 	0.040093
41.21 	0.042333 	4937 	0.041483
41.23 	0.039684 	4939 	0.039328
41.25 	0.038922 	4933 	0.038684
41.27 	0.046035 	4931 	0.045323
41.29 	0.036932 	4928 	0.036575
41.31 	0.036894 	4933 	0.036894
41.33 	0.033624 	4937 	0.033030
41.35 	0.039490 	4938 	0.039015
41.37 	0.041633 	4924 	0.040681
41.39 	0.039530 	4933 	0.039173
41.41 	0.042834 	4926 	0.042715
41.43 	0.045445 	4929 	0.044613
41.45 	0.038869 	4914 	0.038630
41.47 	0.036338 	4926 	0.035743
41.49 	0.046198 	4892 	0.045719
41.51 	0.042510 	4940 	0.042036
41.53 	0.036408 	4944 	0.036052
41.55 	0.047214 	4935 	0.046383
41.57 	0.043109 	4941 	0.042753
41.59 	0.042773 	4933 	0.042279
41.61 	0.047042 	4953 	0.046451
41.63 	0.038275 	4938 	0.038037
41.65 	0.041591 	4929 	0.041115
41.67 	0.041700 	4940 	0.040752
41.69 	0.042854 	4947 	0.042262
41.71 	0.040332 	4934 	0.039976
41.73 	0.043152 	4936 	0.042559
41.75 	0.037939 	4929 	0.037582
41.77 	0.039870 	4941 	0.038803
41.79 	0.043689 	4944 	0.043334
41.81 	0.042139 	4936 	0.041665
41.83 	0.042208 	4928 	0.041613
41.85 	0.040089 	4939 	0.039377
41.87 	0.034245 	4935 	0.034008
41.89 	0.038922 	4933 	0.038447
41.91 	0.038898 	4936 	0.038186
41.93 	0.038524 	4932 	0.038049
41.95 	0.042182 	4931 	0.041569
41.97 	0.043142 	4914 	0.042784
41.99 	0.033435 	4905 	0.033316
42.01 	0.038851 	4942 	0.038614
42.03 	0.039279 	4939 	0.038686
42.05 	0.042205 	4952 	0.041969
42.07 	0.041523 	4937 	0.041049
42.09 	0.041633 	4948 	0.041159
42.11 	0.034783 	4945 	0.034427
42.13 	0.037209 	4945 	0.036499
42.15 	0.035439 	4938 	0.034965
42.17 	0.037414 	4918 	0.037175
42.19 	0.038916 	4908 	0.038439
42.21 	0.039992 	4901 	0.039514
42.23 	0.040883 	4892 	0.040284
42.25 	0.042340 	4889 	0.042220
42.27 	0.039598 	4874 	0.038997
42.29 	0.039276 	4863 	0.038915
42.31 	0.035427 	4855 	0.034703
42.33 	0.039926 	4834 	0.039683
42.35 	0.038239 	4838 	0.037997
42.37 	0.042443 	4830 	0.042201
42.39 	0.036012 	4804 	0.035768
42.41 	0.040591 	4804 	0.040225
42.43 	0.037145 	4792 	0.037023
42.45 	0.039363 	4776 	0.038996
42.47 	0.040294 	4765 	0.039802
42.49 	0.039244 	4765 	0.038384
42.51 	0.036053 	4743 	0.035683
42.53 	0.034898 	4728 	0.034403
42.55 	0.046092 	4708 	0.045594
42.57 	0.038266 	4730 	0.037751
42.59 	0.039543 	4729 	0.039296
42.61 	0.036958 	4708 	0.036958
42.63 	0.038649 	4709 	0.038027
42.65 	0.041409 	4685 	0.040909
42.67 	0.041418 	4684 	0.041042
42.69 	0.038939 	4674 	0.038688
42.71 	0.039460 	4663 	0.039334
42.73 	0.035776 	4640 	0.035523
42.75 	0.038337 	4617 	0.037702
42.77 	0.036957 	4600 	0.036829
42.79 	0.036447 	4582 	0.036063
42.81 	0.035949 	4562 	0.035821
42.83 	0.043210 	4536 	0.042156
42.85 	0.042182 	4528 	0.041147
42.87 	0.038675 	4499 	0.038154
42.89 	0.030134 	4480 	0.029872
42.91 	0.038600 	4456 	0.038468
42.93 	0.038686 	4446 	0.038423
42.95 	0.037817 	4416 	0.037286
42.97 	0.040673 	4401 	0.040539
42.99 	0.039681 	4385 	0.039280
43.01 	0.041027 	4363 	0.040356
43.03 	0.035772 	4333 	0.035502
43.05 	0.038382 	4325 	0.037975
43.07 	0.031890 	4296 	0.031617
43.09 	0.040392 	4283 	0.039982
43.11 	0.038073 	4255 	0.037522
43.13 	0.037527 	4237 	0.037227
43.15 	0.041132 	4206 	0.040714
43.17 	0.031587 	4179 	0.031446
43.19 	0.038388 	4194 	0.037969
43.21 	0.037632 	4172 	0.037211
43.23 	0.037795 	4154 	0.037513
43.25 	0.038694 	4135 	0.038411
43.27 	0.043362 	4105 	0.043076
43.29 	0.037561 	4100 	0.037275
43.31 	0.033342 	4079 	0.033198
43.33 	0.041471 	4051 	0.040435
43.35 	0.041419 	4032 	0.040838
43.37 	0.038107 	4015 	0.037815
43.39 	0.041729 	4002 	0.041144
43.41 	0.042296 	3972 	0.041411
43.43 	0.041667 	3960 	0.041223
43.45 	0.039644 	3935 	0.039198
43.47 	0.042081 	3921 	0.042081
43.49 	0.033872 	3897 	0.033722
43.51 	0.036368 	3877 	0.035764
43.53 	0.043490 	3863 	0.043035
43.55 	0.031039 	2964 	0.030842
43.57 	0.038427 	2238 	0.037904
43.59 	0.033219 	1746 	0.032212
43.61 	0.031828 	1351 	0.031828
43.63 	0.038961 	1001 	0.038376
43.65 	0.029112 	687 	0.029112
43.67 	0.025896 	502 	0.025896
43.69 	0.046322 	367 	0.046322
43.71 	0.046025 	239 	0.046025
43.73 	0.050000 	120 	0.050000
43.75 	0.000000 	16 	0.000000