File: Example_Data/25SC_s1_0027.003.dat
#F C:\frames\spec\25SC_s1_0027.003
#C title =s:27 frm:3 25SC_s1
#C wavelength =0.15406

#S 1  fr_average C:\frames\spec\25SC_s1_0027.003 C:\win32app\speccom\mask.axs chi 0 180 0 360 0.02
#C 2 theta =0.000000 to 180 deg
#C   q   =0.000000 to 81.568 nm^-1
#C  chi  =0.000000 to 360 deg
#C collumns:
#C  1 position (2theta or chi in degrees)
#C  2 average intensity (sum of all counts in the region divided with number of pixels)
#C  3 Number of pixels in region)
#C  4 error (sum of sqrt(intensity) for all pixels divided by number)
#N 4
#L TTh  Int  N_pix  Err
32.99 	0.081967 	61 	0.081967
33.01 	0.066438 	873 	0.065096
33.03 	0.074047 	1391 	0.071521
33.05 	0.055208 	1757 	0.054874
33.07 	0.068293 	2050 	0.066864
33.09 	0.052407 	2347 	0.052158
33.11 	0.060876 	2579 	0.059513
33.13 	0.050841 	2793 	0.050212
33.15 	0.058353 	2999 	0.057181
33.17 	0.066229 	3201 	0.064033
33.19 	0.059844 	3342 	0.058968
33.21 	0.065192 	3436 	0.063999
33.23 	0.056770 	3523 	0.056604
33.25 	0.054264 	3612 	0.053453
33.27 	0.059504 	3630 	0.058697
33.29 	0.054276 	3648 	0.053795
33.31 	0.065574 	3660 	0.063493
33.33 	0.054531 	3686 	0.053895
33.35 	0.062534 	3694 	0.061424
33.37 	0.060312 	3714 	0.059366
33.39 	0.056315 	3729 	0.054876
33.41 	0.058824 	3740 	0.057571
33.43 	0.060622 	3761 	0.059999
33.45 	0.056984 	3773 	0.056829
33.47 	0.059242 	3798 	0.058008
33.49 	0.061696 	3809 	0.060466
33.51 	0.054784 	3815 	0.053709
33.53 	0.060401 	3841 	0.059028
33.55 	0.052043 	3843 	0.051738
33.57 	0.049781 	3877 	0.048849
33.59 	0.061082 	3880 	0.060177
33.61 	0.056025 	3909 	0.055425
33.63 	0.052820 	3919 	0.052521
33.65 	0.055202 	3931 	0.053265
33.67 	0.063480 	3954 	0.063036
33.69 	0.060460 	3953 	0.059423
33.71 	0.055094 	3975 	0.053915
33.73 	0.054196 	4004 	0.053318
33.75 	0.059515 	3999 	0.057904
33.77 	0.069068 	4025 	0.068050
33.79 	0.059639 	4041 	0.058769
33.81 	0.058197 	4038 	0.057617
33.83 	0.060988 	4050 	0.059807
33.85 	0.065138 	4099 	0.062851
33.87 	0.057893 	4111 	0.057015
33.89 	0.057996 	4121 	0.056716
33.91 	0.057604 	4149 	0.056475
33.93 	0.055167 	4151 	0.053733
33.95 	0.057881 	4181 	0.056900
33.97 	0.057757 	4190 	0.057197
33.99 	0.052143 	4200 	0.051027
34.01 	0.059577 	4213 	0.058882
34.03 	0.063148 	4244 	0.061906
34.05 	0.044920 	4252 	0.044507
34.07 	0.062559 	4268 	0.061186
34.09 	0.062063 	4286 	0.061379
34.11 	0.062994 	4302 	0.062585
34.13 	0.057567 	4308 	0.056751
34.15 	0.053798 	4331 	0.052581
34.17 	0.055172 	4350 	0.054364
34.19 	0.053187 	4362 	0.051978
34.21 	0.058568 	4371 	0.056826
34.23 	0.055998 	4393 	0.054931
34.25 	0.060627 	4404 	0.059541
34.27 	0.060832 	4422 	0.059640
34.29 	0.057497 	4435 	0.056837
34.31 	0.054284 	4458 	0.053627
34.33 	0.063968 	4471 	0.062789
34.35 	0.059768 	4484 	0.058984
34.37 	0.059898 	4491 	0.058593
34.39 	0.057086 	4502 	0.056305
34.41 	0.062307 	4526 	0.060883
34.43 	0.059484 	4539 	0.058065
34.45 	0.061742 	4535 	0.061225
34.47 	0.055314 	4592 	0.054038
34.49 	0.060039 	4597 	0.058892
34.51 	0.052540 	4606 	0.051777
34.53 	0.054706 	4643 	0.053949
34.55 	0.061598 	4643 	0.061093
34.57 	0.060515 	4660 	0.059384
34.59 	0.060749 	4675 	0.060623
34.61 	0.064722 	4697 	0.063849
34.63 	0.067516 	4710 	0.065899
34.65 	0.060157 	4721 	0.058792
34.67 	0.055684 	4741 	0.054449
34.69 	0.052587 	4754 	0.051725
34.71 	0.054763 	4766 	0.054025
34.73 	0.057656 	4787 	0.056310
34.75 	0.055324 	4808 	0.054837
34.77 	0.058323 	4818 	0.057472
34.79 	0.061774 	4824 	0.060317
34.81 	0.056140 	4845 	0.054931
34.83 	0.061086 	4862 	0.059520
34.85 	0.059971 	4869 	0.058387
34.87 	0.063887 	4868 	0.062563
34.89 	0.056329 	4882 	0.054770
34.91 	0.060631 	4882 	0.059791
34.93 	0.055113 	4899 	0.054276
34.95 	0.058691 	4890 	0.057853
34.97 	0.062831 	4902 	0.061278
34.99 	0.057995 	4897 	0.057397
35.01 	0.059313 	4923 	0.058104
35.03 	0.057657 	4943 	0.056946
35.05 	0.058824 	4947 	0.058350
35.07 	0.056478 	4940 	0.055529
35.09 	0.056128 	4953 	0.055063
35.11 	0.057409 	4947 	0.056224
35.13 	0.058491 	4958 	0.057192
35.15 	0.056512 	4937 	0.055681
35.17 	0.056005 	4946 	0.055137
35.19 	0.051396 	4942 	0.050804
35.21 	0.058645 	4945 	0.057579
35.23 	0.059656 	4945 	0.058590
35.25 	0.059680 	4943 	0.058377
35.27 	0.056589 	4948 	0.056115
35.29 	0.058038 	4945 	0.057446
35.31 	0.056761 	4933 	0.055811
35.33 	0.055027 	4943 	0.054553
35.35 	0.050384 	4942 	0.049555
35.37 	0.059121 	4939 	0.058054
35.39 	0.059252 	4945 	0.058541
35.41 	0.057450 	4926 	0.056737
35.43 	0.055950 	4933 	0.054643
35.45 	0.054892 	4937 	0.053666
35.47 	0.058812 	4931 	0.058079
35.49 	0.051731 	4910 	0.050180
35.51 	0.050345 	4926 	0.049156
35.53 	0.053546 	4949 	0.052599
35.55 	0.052578 	4945 	0.051986
35.57 	0.050679 	4933 	0.050204
35.59 	0.055410 	4945 	0.055291
35.61 	0.061311 	4942 	0.060244
35.63 	0.056039 	4943 	0.055209
35.65 	0.062892 	4945 	0.061569
35.67 	0.059692 	4942 	0.058507
35.69 	0.057420 	4946 	0.056117
35.71 	0.053069 	4937 	0.052238
35.73 	0.063006 	4936 	0.061820
35.75 	0.055364 	4931 	0.054651
35.77 	0.057160 	4951 	0.056214
35.79 	0.055758 	4932 	0.054808
35.81 	0.054733 	4933 	0.054021
35.83 	0.050344 	4946 	0.049633
35.85 	0.057548 	4935 	0.056599
35.87 	0.050579 	4923 	0.050222
35.89 	0.058168 	4934 	0.057218
35.91 	0.057236 	4927 	0.056641
35.93 	0.059265 	4927 	0.058671
35.95 	0.056742 	4917 	0.055293
35.97 	0.055171 	4912 	0.054217
35.99 	0.057906 	4939 	0.057076
36.01 	0.053955 	4930 	0.052886
36.03 	0.051183 	4943 	0.049880
36.05 	0.049949 	4945 	0.049476
36.07 	0.055882 	4939 	0.055407
36.09 	0.055466 	4940 	0.054280
36.11 	0.051329 	4929 	0.050002
36.13 	0.053217 	4942 	0.051913
36.15 	0.057502 	4939 	0.056553
36.17 	0.053401 	4925 	0.052668
36.19 	0.056275 	4940 	0.054971
36.21 	0.055792 	4929 	0.054841
36.23 	0.057143 	4935 	0.055956
36.25 	0.055859 	4941 	0.054792
36.27 	0.051980 	4925 	0.051623
36.29 	0.061651 	4931 	0.060324
36.31 	0.055601 	4928 	0.054769
36.33 	0.057369 	4933 	0.057012
36.35 	0.050923 	4929 	0.050329
36.37 	0.057282 	4923 	0.056092
36.39 	0.057305 	4921 	0.056829
36.41 	0.055147 	4896 	0.054410
36.43 	0.055398 	4928 	0.054566
36.45 	0.054361 	4930 	0.053529
36.47 	0.058549 	4936 	0.057837
36.49 	0.049575 	4942 	0.048745
36.51 	0.053720 	4933 	0.052532
36.53 	0.052600 	4943 	0.051770
36.55 	0.048711 	4927 	0.048117
36.57 	0.051885 	4934 	0.051410
36.59 	0.058514 	4939 	0.057684
36.61 	0.049686 	4931 	0.048597
36.63 	0.058000 	4931 	0.056456
36.65 	0.053933 	4932 	0.053102
36.67 	0.048073 	4930 	0.047835
36.69 	0.055386 	4929 	0.054673
36.71 	0.051209 	4921 	0.050733
36.73 	0.050964 	4925 	0.050608
36.75 	0.053196 	4944 	0.052722
36.77 	0.049400 	4919 	0.048428
36.79 	0.052428 	4921 	0.051595
36.81 	0.055126 	4916 	0.053577
36.83 	0.054323 	4915 	0.053489
36.85 	0.053695 	4898 	0.052380
36.87 	0.052589 	4944 	0.051641
36.89 	0.048007 	4916 	0.047530
36.91 	0.056466 	4941 	0.055636
36.93 	0.048682 	4930 	0.048087
36.95 	0.052098 	4933 	0.051386
36.97 	0.057762 	4934 	0.057288
36.99 	0.053495 	4935 	0.053139
37.01 	0.055950 	4933 	0.055000
37.03 	0.057067 	4924 	0.056711
37.05 	0.055003 	4927 	0.054052
37.07 	0.049848 	4935 	0.049492
37.09 	0.049919 	4928 	0.049206
37.11 	0.052077 	4935 	0.051602
37.13 	0.052396 	4924 	0.051564
37.15 	0.054186 	4909 	0.053232
37.17 	0.056344 	4934 	0.054425
37.19 	0.047107 	4925 	0.046155
37.21 	0.054098 	4917 	0.053264
37.23 	0.052257 	4918 	0.051304
37.25 	0.051110 	4911 	0.050394
37.27 	0.046588 	4894 	0.045989
37.29 	0.051724 	4930 	0.051130
37.31 	0.048632 	4935 	0.048157
37.33 	0.053379 	4927 	0.052666
37.35 	0.051033 	4938 	0.050440
37.37 	0.049726 	4927 	0.049132
37.39 	0.050497 	4931 	0.049665
37.41 	0.051916 	4931 	0.051322
37.43 	0.059408 	4932 	0.058577
37.45 	0.046101 	4924 	0.045863
37.47 	0.046257 	4929 	0.046019
37.49 	0.049766 	4923 	0.049409
37.51 	0.055139 	4933 	0.054308
37.53 	0.054686 	4919 	0.053376
37.55 	0.049087 	4930 	0.047879
37.57 	0.043452 	4925 	0.042857
37.59 	0.049644 	4915 	0.048929
37.61 	0.052621 	4922 	0.051907
37.63 	0.047571 	4919 	0.046618
37.65 	0.054900 	4918 	0.053690
37.67 	0.042618 	4904 	0.042140
37.69 	0.053287 	4898 	0.052569
37.71 	0.055995 	4929 	0.055520
37.73 	0.049909 	4929 	0.049433
37.75 	0.049595 	4940 	0.049121
37.77 	0.052033 	4920 	0.051794
37.79 	0.051927 	4930 	0.051076
37.81 	0.054125 	4933 	0.053413
37.83 	0.051829 	4920 	0.051472
37.85 	0.048964 	4922 	0.048488
37.87 	0.054060 	4939 	0.053348
37.89 	0.047716 	4925 	0.047240
37.91 	0.049290 	4930 	0.048577
37.93 	0.048181 	4919 	0.047109
37.95 	0.048364 	4921 	0.046936
37.97 	0.055995 	4929 	0.054094
37.99 	0.049878 	4912 	0.049043
38.01 	0.051542 	4928 	0.051067
38.03 	0.055205 	4909 	0.054369
38.05 	0.054416 	4925 	0.053584
38.07 	0.054186 	4909 	0.053351
38.09 	0.053096 	4878 	0.052735
38.11 	0.052685 	4935 	0.051973
38.13 	0.055904 	4937 	0.054955
38.15 	0.050224 	4918 	0.049370
38.17 	0.053550 	4930 	0.052718
38.19 	0.053550 	4930 	0.052124
38.21 	0.052204 	4923 	0.050776
38.23 	0.056096 	4938 	0.054771
38.25 	0.058979 	4917 	0.058145
38.27 	0.054361 	4930 	0.053054
38.29 	0.057271 	4924 	0.056200
38.31 	0.059062 	4927 	0.058111
38.33 	0.060723 	4924 	0.059533
38.35 	0.058442 	4928 	0.057372
38.37 	0.059708 	4924 	0.058498
38.39 	0.058464 	4909 	0.057390
38.41 	0.059313 	4923 	0.058461
38.43 	0.056957 	4916 	0.056004
38.45 	0.062220 	4918 	0.060771
38.47 	0.060933 	4907 	0.059978
38.49 	0.059053 	4877 	0.058092
38.51 	0.059205 	4932 	0.058849
38.53 	0.060864 	4929 	0.059419
38.55 	0.062601 	4936 	0.061177
38.57 	0.059923 	4923 	0.059090
38.59 	0.054630 	4924 	0.053679
38.61 	0.057942 	4936 	0.056973
38.63 	0.049756 	4924 	0.049043
38.65 	0.052257 	4918 	0.051185
38.67 	0.052866 	4937 	0.052372
38.69 	0.052011 	4922 	0.051416
38.71 	0.050975 	4924 	0.050737
38.73 	0.052257 	4918 	0.051661
38.75 	0.049320 	4927 	0.048488
38.77 	0.043673 	4923 	0.043316
38.79 	0.047223 	4934 	0.046155
38.81 	0.056189 	4912 	0.055712
38.83 	0.054279 	4919 	0.052969
38.85 	0.045603 	4912 	0.045006
38.87 	0.051313 	4911 	0.050717
38.89 	0.045946 	4897 	0.045089
38.91 	0.049358 	4903 	0.048521
38.93 	0.051843 	4938 	0.051112
38.95 	0.048394 	4918 	0.047898
38.97 	0.042182 	4931 	0.041469
38.99 	0.046992 	4937 	0.046636
39.01 	0.045547 	4918 	0.045190
39.03 	0.051885 	4934 	0.051054
39.05 	0.047716 	4925 	0.047002
39.07 	0.047522 	4924 	0.047046
39.09 	0.047938 	4923 	0.047224
39.11 	0.051714 	4931 	0.051357
39.13 	0.049970 	4923 	0.049137
39.15 	0.051475 	4915 	0.050760
39.17 	0.051448 	4937 	0.050855
39.19 	0.049827 	4917 	0.049351
39.21 	0.046436 	4910 	0.045601
39.23 	0.048528 	4925 	0.047914
39.25 	0.048964 	4922 	0.048607
39.27 	0.040326 	4910 	0.040087
39.29 	0.047949 	4901 	0.047232
39.31 	0.046888 	4884 	0.045928
39.33 	0.043805 	4931 	0.043448
39.35 	0.043364 	4935 	0.042889
39.37 	0.051735 	4929 	0.050784
39.39 	0.046054 	4929 	0.045103
39.41 	0.038532 	4931 	0.038057
39.43 	0.044800 	4933 	0.044088
39.45 	0.043249 	4925 	0.042654
39.47 	0.048751 	4923 	0.047660
39.49 	0.048044 	4933 	0.047331
39.51 	0.047522 	4924 	0.046690
39.53 	0.045094 	4923 	0.044341
39.55 	0.042082 	4919 	0.041367
39.57 	0.055747 	4933 	0.055272
39.59 	0.047638 	4912 	0.046923
39.61 	0.045704 	4923 	0.044276
39.63 	0.048354 	4922 	0.047502
39.65 	0.039992 	4926 	0.039516
39.67 	0.050071 	4913 	0.048879
39.69 	0.048413 	4916 	0.047341
39.71 	0.051481 	4895 	0.050883
39.73 	0.050122 	4908 	0.048929
39.75 	0.041396 	4928 	0.040921
39.77 	0.048227 	4935 	0.047396
39.79 	0.050751 	4926 	0.050157
39.81 	0.046682 	4927 	0.046087
39.83 	0.046413 	4934 	0.046056
39.85 	0.048711 	4927 	0.047879
39.87 	0.050761 	4925 	0.049810
39.89 	0.045197 	4934 	0.044366
39.91 	0.050386 	4922 	0.049434
39.93 	0.049828 	4937 	0.049235
39.95 	0.048627 	4915 	0.047912
39.97 	0.048904 	4928 	0.048429
39.99 	0.047648 	4932 	0.046698
40.01 	0.047174 	4918 	0.046340
40.03 	0.043019 	4928 	0.042663
40.05 	0.048607 	4917 	0.048249
40.07 	0.040626 	4923 	0.040269
40.09 	0.045159 	4916 	0.044444
40.11 	0.047803 	4916 	0.047088
40.13 	0.041871 	4896 	0.040914
40.15 	0.046204 	4913 	0.045707
40.17 	0.050731 	4928 	0.049403
40.19 	0.042808 	4929 	0.042332
40.21 	0.042553 	4935 	0.041960
40.23 	0.045215 	4932 	0.044859
40.25 	0.048171 	4920 	0.047694
40.27 	0.049828 	4937 	0.049472
40.29 	0.038766 	4927 	0.038528
40.31 	0.045151 	4939 	0.044914
40.33 	0.049067 	4932 	0.048117
40.35 	0.044521 	4919 	0.044283
40.37 	0.045040 	4929 	0.044188
40.39 	0.046035 	4931 	0.045323
40.41 	0.044873 	4925 	0.043783
40.43 	0.048964 	4922 	0.048488
40.45 	0.042773 	4933 	0.042417
40.47 	0.041887 	4918 	0.041291
40.49 	0.042631 	4926 	0.042393
40.51 	0.040837 	4922 	0.040361
40.53 	0.042107 	4916 	0.041869
40.55 	0.049918 	4908 	0.049083
40.57 	0.039877 	4890 	0.039039
40.59 	0.043751 	4937 	0.042921
40.61 	0.040729 	4935 	0.040017
40.63 	0.048073 	4930 	0.047241
40.65 	0.042333 	4937 	0.041740
40.67 	0.047242 	4932 	0.047005
40.69 	0.041523 	4937 	0.041049
40.71 	0.049067 	4932 	0.048592
40.73 	0.043646 	4926 	0.042932
40.75 	0.051916 	4931 	0.050966
40.77 	0.041506 	4939 	0.041269
40.79 	0.046913 	4924 	0.046675
40.81 	0.040073 	4941 	0.039599
40.83 	0.042208 	4928 	0.041495
40.85 	0.042445 	4924 	0.041731
40.87 	0.044034 	4928 	0.043559
40.89 	0.046644 	4931 	0.046287
40.91 	0.043266 	4923 	0.043028
40.93 	0.045197 	4934 	0.044366
40.95 	0.041522 	4913 	0.041522
40.97 	0.046913 	4924 	0.046437
40.99 	0.048335 	4924 	0.047978
41.01 	0.042752 	4912 	0.042275
41.03 	0.041998 	4905 	0.041162
41.05 	0.045381 	4936 	0.044768
41.07 	0.043205 	4930 	0.042354
41.09 	0.040089 	4939 	0.039852
41.11 	0.046403 	4935 	0.045928
41.13 	0.043558 	4936 	0.043083
41.15 	0.040478 	4941 	0.040003
41.17 	0.044791 	4934 	0.044435
41.19 	0.046856 	4930 	0.046024
41.21 	0.044359 	4937 	0.043766
41.23 	0.047580 	4939 	0.046987
41.25 	0.042773 	4933 	0.042179
41.27 	0.047455 	4931 	0.046980
41.29 	0.048295 	4928 	0.047463
41.31 	0.047030 	4933 	0.046555
41.33 	0.044764 	4937 	0.044408
41.35 	0.043337 	4938 	0.042863
41.37 	0.040820 	4924 	0.040226
41.39 	0.042976 	4933 	0.042382
41.41 	0.040195 	4926 	0.039719
41.43 	0.038953 	4929 	0.038597
41.45 	0.040700 	4914 	0.040223
41.47 	0.047300 	4926 	0.046230
41.49 	0.036590 	4892 	0.035992
41.51 	0.044332 	4940 	0.043976
41.53 	0.040858 	4944 	0.040621
41.55 	0.039919 	4935 	0.039682
41.57 	0.034204 	4941 	0.033729
41.59 	0.041962 	4933 	0.041725
41.61 	0.046638 	4953 	0.045811
41.63 	0.042527 	4938 	0.042409
41.65 	0.044634 	4929 	0.044277
41.67 	0.046559 	4940 	0.045966
41.69 	0.046695 	4947 	0.046221
41.71 	0.042562 	4934 	0.041849
41.73 	0.041937 	4936 	0.041699
41.75 	0.045242 	4929 	0.045124
41.77 	0.047764 	4941 	0.046815
41.79 	0.040453 	4944 	0.040216
41.81 	0.040519 	4936 	0.040400
41.83 	0.045455 	4928 	0.044741
41.85 	0.043936 	4939 	0.043106
41.87 	0.045390 	4935 	0.044559
41.89 	0.039530 	4933 	0.039292
41.91 	0.046596 	4936 	0.046240
41.93 	0.040146 	4932 	0.039552
41.95 	0.042993 	4931 	0.042399
41.97 	0.044770 	4914 	0.044651
41.99 	0.043833 	4905 	0.043236
42.01 	0.037232 	4942 	0.036876
42.03 	0.040494 	4939 	0.040257
42.05 	0.039378 	4952 	0.038668
42.07 	0.047397 	4937 	0.046409
42.09 	0.035772 	4948 	0.035535
42.11 	0.045096 	4945 	0.044978
42.13 	0.042669 	4945 	0.042196
42.15 	0.045565 	4938 	0.045090
42.17 	0.041480 	4918 	0.041123
42.19 	0.039324 	4908 	0.039085
42.21 	0.039380 	4901 	0.039021
42.23 	0.043949 	4892 	0.043710
42.25 	0.042340 	4889 	0.041861
42.27 	0.038572 	4874 	0.038332
42.29 	0.043389 	4863 	0.042425
42.31 	0.038929 	4855 	0.038688
42.33 	0.043649 	4834 	0.043164
42.35 	0.040306 	4838 	0.040064
42.37 	0.040994 	4830 	0.039902
42.39 	0.035803 	4804 	0.035316
42.41 	0.038510 	4804 	0.038388
42.43 	0.041110 	4792 	0.040254
42.45 	0.039363 	4776 	0.038382
42.47 	0.042183 	4765 	0.041814
42.49 	0.040294 	4765 	0.039556
42.51 	0.033945 	4743 	0.033574
42.53 	0.039340 	4728 	0.038721
42.55 	0.037171 	4708 	0.036798
42.57 	0.037632 	4730 	0.037261
42.59 	0.040389 	4729 	0.039502
42.61 	0.039295 	4708 	0.039295
42.63 	0.037588 	4709 	0.037214
42.65 	0.040768 	4685 	0.040143
42.67 	0.040564 	4684 	0.040564
42.69 	0.036157 	4674 	0.035907
42.71 	0.041819 	4663 	0.041316
42.73 	0.042457 	4640 	0.041699
42.75 	0.040502 	4617 	0.040122
42.77 	0.040000 	4600 	0.039109
42.79 	0.037320 	4582 	0.037064
42.81 	0.043183 	4562 	0.042541
42.83 	0.041667 	4536 	0.041408
42.85 	0.040636 	4528 	0.039860
42.87 	0.042454 	4499 	0.042193
42.89 	0.034152 	4480 	0.034152
42.91 	0.041966 	4456 	0.041440
42.93 	0.042960 	4446 	0.042301
42.95 	0.044611 	4416 	0.043947
42.97 	0.039082 	4401 	0.038550
42.99 	0.044014 	4385 	0.043212
43.01 	0.037130 	4363 	0.036728
43.03 	0.041311 	4333 	0.040207
43.05 	0.039769 	4325 	0.039092
43.07 	0.039804 	4296 	0.039532
43.09 	0.039925 	4283 	0.039219
43.11 	0.037603 	4255 	0.036914
43.13 	0.043427 	4237 	0.043150
43.15 	0.037565 	4206 	0.037426
43.17 	0.044508 	4179 	0.043807
43.19 	0.038150 	4194 	0.037731
43.21 	0.040029 	4172 	0.039888
43.23 	0.041887 	4154 	0.041041
43.25 	0.046675 	4135 	0.046108
43.27 	0.038002 	4105 	0.037860
43.29 	0.044878 	4100 	0.044164
43.31 	0.039225 	4079 	0.038938
43.33 	0.035794 	4051 	0.035649
43.35 	0.046875 	4032 	0.046439
43.37 	0.039352 	4015 	0.038185
43.39 	0.037731 	4002 	0.037585
43.41 	0.034743 	3972 	0.034596
43.43 	0.043687 	3960 	0.042947
43.45 	0.043964 	3935 	0.043369
43.47 	0.044376 	3921 	0.043306
43.49 	0.039518 	3897 	0.038916
43.51 	0.045138 	3877 	0.044231
43.53 	0.040124 	3863 	0.039973
43.55 	0.033401 	2964 	0.033203
43.57 	0.041108 	2238 	0.040323
43.59 	0.041237 	1746 	0.040566
43.61 	0.040711 	1351 	0.040277
43.63 	0.037962 	1001 	0.037962
43.65 	0.032023 	687 	0.032023
43.67 	0.041833 	502 	0.041833
43.69 	0.043597 	367 	0.043597
43.71 	0.041841 	239 	0.041841
43.73 	0.041667 	120 	0.041667
43.75 	0.062500 	16 	0.062500