File: Example_Data/25SC_s1_0030.001.dat
#F C:\frames\spec\25SC_s1_0030.001
#C title =s:30 frm:1 25SC_s1
#C wavelength =0.15406

#S 1  fr_average C:\frames\spec\25SC_s1_0030.001 C:\win32app\speccom\mask.axs chi 0 180 0 360 0.02
#C 2 theta =0.000000 to 180 deg
#C   q   =0.000000 to 81.568 nm^-1
#C  chi  =0.000000 to 360 deg
#C collumns:
#C  1 position (2theta or chi in degrees)
#C  2 average intensity (sum of all counts in the region divided with number of pixels)
#C  3 Number of pixels in region)
#C  4 error (sum of sqrt(intensity) for all pixels divided by number)
#N 4
#L TTh  Int  N_pix  Err
32.99 	0.049180 	61 	0.049180
33.01 	0.050401 	873 	0.049730
33.03 	0.064702 	1391 	0.063859
33.05 	0.066591 	1757 	0.065924
33.07 	0.057073 	2050 	0.055930
33.09 	0.056668 	2347 	0.055670
33.11 	0.052734 	2579 	0.051825
33.13 	0.063731 	2793 	0.062228
33.15 	0.058353 	2999 	0.057376
33.17 	0.046548 	3201 	0.046548
33.19 	0.058648 	3342 	0.057596
33.21 	0.057043 	3436 	0.055509
33.23 	0.056770 	3523 	0.055606
33.25 	0.054264 	3612 	0.053615
33.27 	0.063085 	3630 	0.061794
33.29 	0.058936 	3648 	0.057947
33.31 	0.056831 	3660 	0.056164
33.33 	0.063483 	3686 	0.062504
33.35 	0.060368 	3694 	0.059575
33.37 	0.064082 	3714 	0.062820
33.39 	0.057924 	3729 	0.056668
33.41 	0.062567 	3740 	0.061627
33.43 	0.063813 	3761 	0.063190
33.45 	0.052478 	3773 	0.051702
33.47 	0.057399 	3798 	0.056319
33.49 	0.061433 	3809 	0.060357
33.51 	0.057143 	3815 	0.056375
33.53 	0.060661 	3841 	0.059594
33.55 	0.053864 	3843 	0.053407
33.57 	0.055455 	3877 	0.054247
33.59 	0.055928 	3880 	0.054720
33.61 	0.058327 	3909 	0.058027
33.63 	0.056647 	3919 	0.056348
33.65 	0.058764 	3931 	0.057870
33.67 	0.061963 	3954 	0.060777
33.69 	0.058184 	3953 	0.057295
33.71 	0.058868 	3975 	0.057394
33.73 	0.061938 	4004 	0.060329
33.75 	0.064516 	3999 	0.062905
33.77 	0.062112 	4025 	0.059614
33.79 	0.063598 	4041 	0.062293
33.81 	0.060178 	4038 	0.058873
33.83 	0.051111 	4050 	0.050677
33.85 	0.054647 	4099 	0.053790
33.87 	0.057164 	4111 	0.055596
33.89 	0.055084 	4121 	0.054373
33.91 	0.062425 	4149 	0.061131
33.93 	0.057095 	4151 	0.056248
33.95 	0.057403 	4181 	0.057403
33.97 	0.058473 	4190 	0.058053
33.99 	0.060952 	4200 	0.060116
34.01 	0.063375 	4213 	0.062240
34.03 	0.051838 	4244 	0.050182
34.05 	0.062559 	4252 	0.061457
34.07 	0.055295 	4268 	0.054609
34.09 	0.050630 	4286 	0.049673
34.11 	0.056485 	4302 	0.054965
34.13 	0.058032 	4308 	0.056785
34.15 	0.055184 	4331 	0.053966
34.17 	0.062759 	4350 	0.061502
34.19 	0.062127 	4362 	0.060628
34.21 	0.063601 	4371 	0.062663
34.23 	0.055771 	4393 	0.054970
34.25 	0.064033 	4404 	0.062947
34.27 	0.054274 	4422 	0.053479
34.29 	0.055693 	4435 	0.054769
34.31 	0.058546 	4458 	0.057495
34.33 	0.054127 	4471 	0.053209
34.35 	0.053747 	4484 	0.052048
34.37 	0.048987 	4491 	0.048465
34.39 	0.055087 	4502 	0.053785
34.41 	0.051480 	4526 	0.050704
34.43 	0.056400 	4539 	0.054851
34.45 	0.054245 	4535 	0.053728
34.47 	0.049434 	4592 	0.048924
34.49 	0.052643 	4597 	0.051496
34.51 	0.055580 	4606 	0.054944
34.53 	0.059444 	4643 	0.058309
34.55 	0.057721 	4643 	0.056333
34.57 	0.053863 	4660 	0.052983
34.59 	0.060749 	4675 	0.059350
34.61 	0.051522 	4697 	0.050649
34.63 	0.058386 	4710 	0.057391
34.65 	0.052955 	4721 	0.052210
34.67 	0.054419 	4741 	0.053925
34.69 	0.052377 	4754 	0.050755
34.71 	0.052875 	4766 	0.051891
34.73 	0.058910 	4787 	0.057441
34.75 	0.058860 	4808 	0.058007
34.77 	0.054795 	4818 	0.053822
34.79 	0.055556 	4824 	0.054706
34.81 	0.052219 	4845 	0.051372
34.83 	0.056355 	4862 	0.055271
34.85 	0.055658 	4869 	0.054936
34.87 	0.052794 	4868 	0.052192
34.89 	0.051004 	4882 	0.050404
34.91 	0.051618 	4882 	0.051138
34.93 	0.060829 	4899 	0.059513
34.95 	0.059100 	4890 	0.058262
34.97 	0.052020 	4902 	0.051422
34.99 	0.056157 	4897 	0.054961
35.01 	0.049360 	4923 	0.048527
35.03 	0.056443 	4943 	0.054903
35.05 	0.049727 	4947 	0.049017
35.07 	0.055466 	4940 	0.054991
35.09 	0.053705 	4953 	0.052404
35.11 	0.052557 	4947 	0.051373
35.13 	0.052239 	4958 	0.051057
35.15 	0.060968 	4937 	0.059663
35.17 	0.055803 	4946 	0.054500
35.19 	0.059895 	4942 	0.059421
35.21 	0.050354 	4945 	0.049880
35.23 	0.057836 	4945 	0.056770
35.25 	0.060894 	4943 	0.059828
35.27 	0.057195 	4948 	0.055656
35.29 	0.057634 	4945 	0.056904
35.31 	0.054125 	4933 	0.053175
35.33 	0.055027 	4943 	0.054553
35.35 	0.052813 	4942 	0.052338
35.37 	0.054464 	4939 	0.053516
35.39 	0.053994 	4945 	0.053046
35.41 	0.060292 	4926 	0.058627
35.43 	0.051287 	4933 	0.050575
35.45 	0.053676 	4937 	0.052015
35.47 	0.056784 	4931 	0.055477
35.49 	0.053157 	4910 	0.052083
35.51 	0.057450 	4926 	0.056856
35.53 	0.055769 	4949 	0.054822
35.55 	0.057230 	4945 	0.056045
35.57 	0.056963 	4933 	0.055281
35.59 	0.058443 	4945 	0.057140
35.61 	0.051194 	4942 	0.050483
35.63 	0.058264 	4943 	0.057672
35.65 	0.057230 	4945 	0.056400
35.67 	0.059085 	4942 	0.057900
35.69 	0.059442 	4946 	0.058494
35.71 	0.060766 	4937 	0.060172
35.73 	0.056524 	4936 	0.055693
35.75 	0.054756 	4931 	0.053805
35.77 	0.059584 	4951 	0.058637
35.79 	0.058191 	4932 	0.057479
35.81 	0.051490 	4933 	0.050758
35.83 	0.053174 	4946 	0.052464
35.85 	0.058764 	4935 	0.058170
35.87 	0.061548 	4923 	0.060596
35.89 	0.057560 	4934 	0.056353
35.91 	0.052365 	4927 	0.052008
35.93 	0.059468 	4927 	0.058517
35.95 	0.053895 	4917 	0.053061
35.97 	0.063314 	4912 	0.062122
35.99 	0.059324 	4939 	0.058731
36.01 	0.059026 	4930 	0.057838
36.03 	0.055837 	4943 	0.055600
36.05 	0.051163 	4945 	0.050807
36.07 	0.059729 	4939 	0.058780
36.09 	0.048785 	4940 	0.048074
36.11 	0.055184 	4929 	0.054094
36.13 	0.050384 	4942 	0.050029
36.15 	0.055274 	4939 	0.054326
36.17 	0.059289 	4925 	0.058219
36.19 	0.055870 	4940 	0.054685
36.21 	0.057212 	4929 	0.056381
36.23 	0.060993 	4935 	0.059212
36.25 	0.054847 	4941 	0.053761
36.27 	0.050761 	4925 	0.050167
36.29 	0.056784 	4931 	0.056190
36.31 	0.050325 	4928 	0.049730
36.33 	0.051490 	4933 	0.050758
36.35 	0.056198 	4929 	0.055604
36.37 	0.053626 	4923 	0.052912
36.39 	0.054257 	4921 	0.053781
36.41 	0.053513 	4896 	0.052556
36.43 	0.056209 	4928 	0.055358
36.45 	0.055375 	4930 	0.054781
36.47 	0.060981 	4936 	0.060031
36.49 	0.059490 	4942 	0.058423
36.51 	0.056152 	4933 	0.055202
36.53 	0.057657 	4943 	0.056709
36.55 	0.055815 	4927 	0.055339
36.57 	0.061816 	4934 	0.061084
36.59 	0.055477 	4939 	0.054409
36.61 	0.053742 	4931 	0.052910
36.63 	0.057189 	4931 	0.056001
36.65 	0.053325 	4932 	0.052118
36.67 	0.058012 	4930 	0.057418
36.69 	0.050923 	4929 	0.050210
36.71 	0.055883 	4921 	0.054454
36.73 	0.064772 	4925 	0.064058
36.75 	0.058455 	4944 	0.057625
36.77 	0.053669 	4919 	0.053074
36.79 	0.054867 	4921 	0.054272
36.81 	0.056143 	4916 	0.055071
36.83 	0.057172 	4915 	0.055980
36.85 	0.058595 	4898 	0.057380
36.87 	0.057646 	4944 	0.056935
36.89 	0.056143 	4916 	0.054952
36.91 	0.050395 	4941 	0.049427
36.93 	0.057606 	4930 	0.057012
36.95 	0.055342 	4933 	0.054748
36.97 	0.058370 	4934 	0.057302
36.99 	0.058561 	4935 	0.057473
37.01 	0.051895 	4933 	0.051183
37.03 	0.055443 	4924 	0.054709
37.05 	0.058859 	4927 	0.057076
37.07 	0.053698 	4935 	0.052966
37.09 	0.058442 	4928 	0.057253
37.11 	0.054306 	4935 	0.052862
37.13 	0.053615 	4924 	0.052644
37.15 	0.056223 	4909 	0.055627
37.17 	0.057560 	4934 	0.055423
37.19 	0.056447 	4925 	0.055733
37.21 	0.049217 	4917 	0.048244
37.23 	0.052664 	4918 	0.051949
37.25 	0.053960 	4911 	0.053245
37.27 	0.053331 	4894 	0.052353
37.29 	0.059229 	4930 	0.058635
37.31 	0.057143 	4935 	0.056075
37.33 	0.065354 	4927 	0.064027
37.35 	0.059336 	4938 	0.058624
37.37 	0.055409 	4927 	0.054696
37.39 	0.059014 	4931 	0.058539
37.41 	0.056378 	4931 	0.055546
37.43 	0.056164 	4932 	0.055808
37.45 	0.055037 	4924 	0.054680
37.47 	0.054372 	4929 	0.053421
37.49 	0.048345 	4923 	0.047869
37.51 	0.053720 	4933 	0.053364
37.53 	0.052246 	4919 	0.051889
37.55 	0.053955 	4930 	0.053223
37.57 	0.053198 	4925 	0.052603
37.59 	0.053510 	4915 	0.052795
37.61 	0.057091 	4922 	0.055305
37.63 	0.054279 	4919 	0.053088
37.65 	0.052460 	4918 	0.051507
37.67 	0.057096 	4904 	0.056141
37.69 	0.057166 	4898 	0.056209
37.71 	0.054981 	4929 	0.054149
37.73 	0.058633 	4929 	0.057801
37.75 	0.056883 	4940 	0.056033
37.77 	0.057927 	4920 	0.056379
37.79 	0.053550 	4930 	0.052599
37.81 	0.051490 	4933 	0.050659
37.83 	0.054878 	4920 	0.054045
37.85 	0.052011 	4922 	0.050940
37.87 	0.053857 	4939 	0.053501
37.89 	0.054010 	4925 	0.053653
37.91 	0.057606 	4930 	0.056775
37.93 	0.054279 	4919 	0.053446
37.95 	0.055070 	4921 	0.054237
37.97 	0.044431 	4929 	0.043361
37.99 	0.051507 	4912 	0.050791
38.01 	0.057427 	4928 	0.056119
38.03 	0.055205 	4909 	0.054489
38.05 	0.056041 	4925 	0.055089
38.07 	0.055816 	4909 	0.055339
38.09 	0.053301 	4878 	0.052700
38.11 	0.054711 	4935 	0.053880
38.13 	0.056107 	4937 	0.055158
38.15 	0.059170 	4918 	0.057841
38.17 	0.056795 	4930 	0.056082
38.19 	0.051927 	4930 	0.051333
38.21 	0.060329 	4923 	0.059496
38.23 	0.056501 	4938 	0.055433
38.25 	0.058166 	4917 	0.057212
38.27 	0.058012 	4930 	0.057299
38.29 	0.058083 	4924 	0.057488
38.31 	0.064745 	4927 	0.063913
38.33 	0.056864 	4924 	0.055675
38.35 	0.068588 	4928 	0.067756
38.37 	0.068643 	4924 	0.066740
38.39 	0.070279 	4909 	0.068708
38.41 	0.062767 	4923 	0.060863
38.43 	0.075468 	4916 	0.073989
38.45 	0.067507 	4918 	0.066554
38.47 	0.073772 	4907 	0.072459
38.49 	0.073201 	4877 	0.071639
38.51 	0.070762 	4932 	0.069337
38.53 	0.074660 	4929 	0.072640
38.55 	0.070097 	4936 	0.068554
38.57 	0.069673 	4923 	0.067631
38.59 	0.068846 	4924 	0.067895
38.61 	0.066856 	4936 	0.065432
38.63 	0.070065 	4924 	0.068637
38.65 	0.065677 	4918 	0.064447
38.67 	0.068463 	4937 	0.067039
38.69 	0.072125 	4922 	0.070935
38.71 	0.062348 	4924 	0.061039
38.73 	0.065067 	4918 	0.063618
38.75 	0.059671 	4927 	0.058344
38.77 	0.058907 	4923 	0.057717
38.79 	0.061208 	4934 	0.059665
38.81 	0.058021 	4912 	0.057544
38.83 	0.053263 	4919 	0.052906
38.85 	0.055782 	4912 	0.055305
38.87 	0.055386 	4911 	0.053905
38.89 	0.053298 	4897 	0.052700
38.91 	0.052417 	4903 	0.051680
38.93 	0.057311 	4938 	0.055887
38.95 	0.055714 	4918 	0.054642
38.97 	0.050294 	4931 	0.049462
38.99 	0.047600 	4937 	0.047125
39.01 	0.053274 	4918 	0.052202
39.03 	0.053709 	4934 	0.052759
39.05 	0.052589 	4925 	0.051994
39.07 	0.044273 	4924 	0.043678
39.09 	0.048345 	4923 	0.047631
39.11 	0.048063 	4931 	0.047450
39.13 	0.045907 	4923 	0.045074
39.15 	0.050865 	4915 	0.049554
39.17 	0.046587 	4937 	0.045400
39.19 	0.051454 	4917 	0.050978
39.21 	0.046843 	4910 	0.046008
39.23 	0.046904 	4925 	0.046071
39.25 	0.046323 	4922 	0.045847
39.27 	0.045621 	4910 	0.044905
39.29 	0.046113 	4901 	0.045515
39.31 	0.042998 	4884 	0.042158
39.33 	0.047049 	4931 	0.046455
39.35 	0.044782 	4935 	0.044189
39.37 	0.047068 	4929 	0.046474
39.39 	0.045851 	4929 	0.045138
39.41 	0.044616 	4931 	0.044022
39.43 	0.043179 	4933 	0.042822
39.45 	0.044467 	4925 	0.043515
39.47 	0.043876 	4923 	0.042805
39.49 	0.047436 	4933 	0.046842
39.51 	0.044070 	4924 	0.043832
39.53 	0.047532 	4923 	0.047056
39.55 	0.046148 	4919 	0.045433
39.57 	0.046219 	4933 	0.045507
39.59 	0.046010 	4912 	0.045533
39.61 	0.045907 	4923 	0.045431
39.63 	0.048557 	4922 	0.047605
39.65 	0.049127 	4926 	0.048176
39.67 	0.049054 	4913 	0.048457
39.69 	0.045769 	4916 	0.045054
39.71 	0.046578 	4895 	0.045721
39.73 	0.038101 	4908 	0.037266
39.75 	0.045860 	4928 	0.045147
39.77 	0.039514 	4935 	0.039158
39.79 	0.042225 	4926 	0.041511
39.81 	0.049726 	4927 	0.049250
39.83 	0.044183 	4934 	0.044064
39.85 	0.038766 	4927 	0.038409
39.87 	0.039594 	4925 	0.039356
39.89 	0.037900 	4934 	0.037069
39.91 	0.046729 	4922 	0.045539
39.93 	0.045574 	4937 	0.045218
39.95 	0.044964 	4915 	0.044368
39.97 	0.047687 	4928 	0.047330
39.99 	0.045620 	4932 	0.045027
40.01 	0.041887 	4918 	0.041411
40.03 	0.046875 	4928 	0.046756
40.05 	0.045353 	4917 	0.045115
40.07 	0.043063 	4923 	0.042587
40.09 	0.049227 	4916 	0.048989
40.11 	0.043735 	4916 	0.043496
40.13 	0.041667 	4896 	0.040809
40.15 	0.041115 	4913 	0.040519
40.17 	0.045657 	4928 	0.044707
40.19 	0.044837 	4929 	0.044480
40.21 	0.040324 	4935 	0.039493
40.23 	0.045620 	4932 	0.045383
40.25 	0.041057 	4920 	0.040343
40.27 	0.039903 	4937 	0.039191
40.29 	0.044246 	4927 	0.043414
40.31 	0.042519 	4939 	0.041807
40.33 	0.038929 	4932 	0.038217
40.35 	0.043708 	4919 	0.043113
40.37 	0.041793 	4929 	0.040962
40.39 	0.038126 	4931 	0.037651
40.41 	0.041827 	4925 	0.041233
40.43 	0.045104 	4922 	0.044985
40.45 	0.040138 	4933 	0.039782
40.47 	0.042700 	4918 	0.042085
40.49 	0.043240 	4926 	0.042645
40.51 	0.037993 	4922 	0.037636
40.53 	0.038242 	4916 	0.038123
40.55 	0.038101 	4908 	0.037743
40.57 	0.040695 	4890 	0.039977
40.59 	0.039700 	4937 	0.039582
40.61 	0.039514 	4935 	0.039039
40.63 	0.038134 	4930 	0.037896
40.65 	0.046384 	4937 	0.045791
40.67 	0.045620 	4932 	0.044789
40.69 	0.044359 	4937 	0.043766
40.71 	0.041768 	4932 	0.041649
40.73 	0.041413 	4926 	0.041413
40.75 	0.038735 	4931 	0.038259
40.77 	0.038469 	4939 	0.038114
40.79 	0.043867 	4924 	0.043391
40.81 	0.041894 	4941 	0.041302
40.83 	0.042208 	4928 	0.041613
40.85 	0.038180 	4924 	0.037704
40.87 	0.043019 	4928 	0.042544
40.89 	0.037518 	4931 	0.037161
40.91 	0.040219 	4923 	0.039743
40.93 	0.042764 	4934 	0.041577
40.95 	0.042337 	4913 	0.041860
40.97 	0.038993 	4924 	0.038993
40.99 	0.040008 	4924 	0.039532
41.01 	0.042142 	4912 	0.041188
41.03 	0.040979 	4905 	0.040381
41.05 	0.039100 	4936 	0.038388
41.07 	0.038337 	4930 	0.038099
41.09 	0.039279 	4939 	0.039042
41.11 	0.039514 	4935 	0.039039
41.13 	0.039100 	4936 	0.038744
41.15 	0.040478 	4941 	0.039885
41.17 	0.044183 	4934 	0.044064
41.19 	0.038945 	4930 	0.037856
41.21 	0.037067 	4937 	0.036592
41.23 	0.037255 	4939 	0.036899
41.25 	0.043584 	4933 	0.042753
41.27 	0.038937 	4931 	0.038225
41.29 	0.040381 	4928 	0.040263
41.31 	0.042773 	4933 	0.042536
41.33 	0.039903 	4937 	0.039547
41.35 	0.036249 	4938 	0.036012
41.37 	0.041836 	4924 	0.041479
41.39 	0.039935 	4933 	0.039579
41.41 	0.041413 	4926 	0.040462
41.43 	0.040576 	4929 	0.040220
41.45 	0.042735 	4914 	0.041781
41.47 	0.038368 	4926 	0.037773
41.49 	0.040270 	4892 	0.039911
41.51 	0.037045 	4940 	0.036926
41.53 	0.037015 	4944 	0.036185
41.55 	0.036069 	4935 	0.035475
41.57 	0.045133 	4941 	0.044540
41.59 	0.039124 	4933 	0.038649
41.61 	0.038562 	4953 	0.038562
41.63 	0.038072 	4938 	0.037716
41.65 	0.041996 	4929 	0.041521
41.67 	0.037652 	4940 	0.037415
41.69 	0.043663 	4947 	0.043071
41.71 	0.037292 	4934 	0.037292
41.73 	0.037885 	4936 	0.037529
41.75 	0.042199 	4929 	0.041843
41.77 	0.042502 	4941 	0.042264
41.79 	0.042273 	4944 	0.042036
41.81 	0.041532 	4936 	0.040464
41.83 	0.037135 	4928 	0.036778
41.85 	0.039077 	4939 	0.038484
41.87 	0.040122 	4935 	0.039765
41.89 	0.037300 	4933 	0.037062
41.91 	0.035049 	4936 	0.034455
41.93 	0.040349 	4932 	0.039517
41.95 	0.035287 	4931 	0.034931
41.97 	0.040293 	4914 	0.040055
41.99 	0.037309 	4905 	0.037070
42.01 	0.038041 	4942 	0.037686
42.03 	0.039684 	4939 	0.039091
42.05 	0.039176 	4952 	0.038703
42.07 	0.042536 	4937 	0.042061
42.09 	0.035368 	4948 	0.035131
42.11 	0.037816 	4945 	0.037224
42.13 	0.038827 	4945 	0.038116
42.15 	0.039692 	4938 	0.039218
42.17 	0.040464 	4918 	0.039491
42.19 	0.043195 	4908 	0.042359
42.21 	0.035911 	4901 	0.035433
42.23 	0.036795 	4892 	0.036196
42.25 	0.043976 	4889 	0.043497
42.27 	0.039393 	4874 	0.038792
42.29 	0.039071 	4863 	0.038950
42.31 	0.037899 	4855 	0.037416
42.33 	0.039512 	4834 	0.039148
42.35 	0.037205 	4838 	0.036842
42.37 	0.037474 	4830 	0.037110
42.39 	0.033930 	4804 	0.033564
42.41 	0.039759 	4804 	0.039271
42.43 	0.037145 	4792 	0.036901
42.45 	0.037479 	4776 	0.037234
42.47 	0.036097 	4765 	0.035605
42.49 	0.041343 	4765 	0.040974
42.51 	0.034156 	4743 	0.033538
42.53 	0.034898 	4728 	0.034527
42.55 	0.040994 	4708 	0.040248
42.57 	0.037632 	4730 	0.037384
42.59 	0.033199 	4729 	0.032580
42.61 	0.038445 	4708 	0.038196
42.63 	0.040348 	4709 	0.039851
42.65 	0.039488 	4685 	0.038738
42.67 	0.037788 	4684 	0.037288
42.69 	0.037227 	4674 	0.036726
42.71 	0.034098 	4663 	0.033721
42.73 	0.038362 	4640 	0.037857
42.75 	0.039636 	4617 	0.039509
42.77 	0.039348 	4600 	0.038966
42.79 	0.040375 	4582 	0.040375
42.81 	0.036826 	4562 	0.036441
42.83 	0.041667 	4536 	0.041021
42.85 	0.034894 	4528 	0.034506
42.87 	0.037342 	4499 	0.037081
42.89 	0.035937 	4480 	0.035807
42.91 	0.032989 	4456 	0.032726
42.93 	0.032389 	4446 	0.031598
42.95 	0.034873 	4416 	0.034343
42.97 	0.033856 	4401 	0.033590
42.99 	0.034664 	4385 	0.034263
43.01 	0.038735 	4363 	0.038064
43.03 	0.035080 	4333 	0.034674
43.05 	0.035838 	4325 	0.035703
43.07 	0.038175 	4296 	0.037630
43.09 	0.036890 	4283 	0.036753
43.11 	0.032902 	4255 	0.032627
43.13 	0.039887 	4237 	0.039748
43.15 	0.037803 	4206 	0.037246
43.17 	0.035415 	4179 	0.035135
43.19 	0.039819 	4194 	0.038841
43.21 	0.036913 	4172 	0.036632
43.23 	0.038999 	4154 	0.038434
43.25 	0.034825 	4135 	0.034400
43.27 	0.039220 	4105 	0.038935
43.29 	0.034878 	4100 	0.034735
43.31 	0.041432 	4079 	0.040857
43.33 	0.034313 	4051 	0.034313
43.35 	0.039931 	4032 	0.039349
43.37 	0.036364 	4015 	0.036072
43.39 	0.035482 	4002 	0.035043
43.41 	0.036757 	3972 	0.036167
43.43 	0.039646 	3960 	0.039203
43.45 	0.038882 	3935 	0.038584
43.47 	0.035195 	3921 	0.034598
43.49 	0.035412 	3897 	0.034510
43.51 	0.038948 	3877 	0.038343
43.53 	0.034429 	3863 	0.034126
43.55 	0.034076 	2964 	0.033680
43.57 	0.037087 	2238 	0.036825
43.59 	0.035510 	1746 	0.034503
43.61 	0.035529 	1351 	0.035529
43.63 	0.042957 	1001 	0.042957
43.65 	0.045124 	687 	0.045124
43.67 	0.039841 	502 	0.039841
43.69 	0.054496 	367 	0.054496
43.71 	0.058577 	239 	0.058577
43.73 	0.016667 	120 	0.016667
43.75 	0.062500 	16 	0.062500