File: Example_Data/25SC_s1_0026.001.dat
#F C:\frames\spec\25SC_s1_0026.001
#C title =s:26 frm:1 25SC_s1
#C wavelength =0.15406

#S 1  fr_average C:\frames\spec\25SC_s1_0026.001 C:\win32app\speccom\mask.axs chi 0 180 0 360 0.02
#C 2 theta =0.000000 to 180 deg
#C   q   =0.000000 to 81.568 nm^-1
#C  chi  =0.000000 to 360 deg
#C collumns:
#C  1 position (2theta or chi in degrees)
#C  2 average intensity (sum of all counts in the region divided with number of pixels)
#C  3 Number of pixels in region)
#C  4 error (sum of sqrt(intensity) for all pixels divided by number)
#N 4
#L TTh  Int  N_pix  Err
32.99 	0.032787 	61 	0.032787
33.01 	0.057274 	873 	0.055932
33.03 	0.063983 	1391 	0.063140
33.05 	0.063745 	1757 	0.061411
33.07 	0.072683 	2050 	0.070968
33.09 	0.057094 	2347 	0.055805
33.11 	0.053509 	2579 	0.052601
33.13 	0.062657 	2793 	0.062027
33.15 	0.057019 	2999 	0.056042
33.17 	0.055920 	3201 	0.055554
33.19 	0.053860 	3342 	0.052808
33.21 	0.063737 	3436 	0.061862
33.23 	0.057054 	3523 	0.055890
33.25 	0.052602 	3612 	0.051954
33.27 	0.062534 	3630 	0.061082
33.29 	0.057292 	3648 	0.056168
33.31 	0.061749 	3660 	0.060628
33.33 	0.060499 	3686 	0.059387
33.35 	0.061722 	3694 	0.060612
33.37 	0.058158 	3714 	0.057527
33.39 	0.055779 	3729 	0.055465
33.41 	0.067112 	3740 	0.065859
33.43 	0.059825 	3761 	0.059046
33.45 	0.061755 	3773 	0.060668
33.47 	0.061875 	3798 	0.060178
33.49 	0.058283 	3809 	0.057668
33.51 	0.065531 	3815 	0.064149
33.53 	0.061182 	3841 	0.060724
33.55 	0.058028 	3843 	0.056961
33.57 	0.054939 	3877 	0.054033
33.59 	0.058247 	3880 	0.056738
33.61 	0.062164 	3909 	0.061565
33.63 	0.063537 	3919 	0.062042
33.65 	0.056729 	3931 	0.055685
33.67 	0.057410 	3954 	0.055929
33.69 	0.061978 	3953 	0.059904
33.71 	0.061887 	3975 	0.060708
33.73 	0.053447 	4004 	0.052715
33.75 	0.059015 	3999 	0.058136
33.77 	0.059379 	4025 	0.058506
33.79 	0.057164 	4041 	0.056149
33.81 	0.050272 	4038 	0.049257
33.83 	0.056790 	4050 	0.055465
33.85 	0.061722 	4099 	0.060865
33.87 	0.062758 	4111 	0.062046
33.89 	0.058724 	4121 	0.056591
33.91 	0.055435 	4149 	0.054023
33.93 	0.063840 	4151 	0.062993
33.95 	0.060273 	4181 	0.059432
33.97 	0.063962 	4190 	0.062144
33.99 	0.060238 	4200 	0.058983
34.01 	0.057916 	4213 	0.056943
34.03 	0.056079 	4244 	0.055665
34.05 	0.055033 	4252 	0.054206
34.07 	0.058575 	4268 	0.057203
34.09 	0.063929 	4286 	0.063109
34.11 	0.062762 	4302 	0.060969
34.13 	0.057335 	4308 	0.056791
34.15 	0.050797 	4331 	0.050256
34.17 	0.059770 	4350 	0.058423
34.19 	0.061669 	4362 	0.060192
34.21 	0.056966 	4371 	0.056430
34.23 	0.055543 	4393 	0.055010
34.25 	0.057902 	4404 	0.056439
34.27 	0.055857 	4422 	0.055460
34.29 	0.055919 	4435 	0.055390
34.31 	0.061014 	4458 	0.060094
34.33 	0.055469 	4471 	0.054682
34.35 	0.051517 	4484 	0.050711
34.37 	0.063906 	4491 	0.063514
34.39 	0.056641 	4502 	0.056121
34.41 	0.055015 	4526 	0.053851
34.43 	0.054417 	4539 	0.053901
34.45 	0.062404 	4535 	0.061887
34.47 	0.057491 	4592 	0.056705
34.49 	0.053078 	4597 	0.052314
34.51 	0.057317 	4606 	0.056426
34.53 	0.058152 	4643 	0.057143
34.55 	0.052121 	4643 	0.050986
34.57 	0.060300 	4660 	0.058541
34.59 	0.060535 	4675 	0.059407
34.61 	0.054503 	4697 	0.053256
34.63 	0.057749 	4710 	0.056506
34.65 	0.059309 	4721 	0.058689
34.67 	0.058005 	4741 	0.056625
34.69 	0.054691 	4754 	0.053828
34.71 	0.050147 	4766 	0.049778
34.73 	0.056612 	4787 	0.055510
34.75 	0.053037 	4808 	0.052062
34.77 	0.059776 	4818 	0.058803
34.79 	0.059080 	4824 	0.057622
34.81 	0.061094 	4845 	0.060248
34.83 	0.056767 	4862 	0.055783
34.85 	0.061409 	4869 	0.060567
34.87 	0.061627 	4868 	0.060424
34.89 	0.054691 	4882 	0.053371
34.91 	0.062679 	4882 	0.061599
34.93 	0.056950 	4899 	0.055874
34.95 	0.053579 	4890 	0.052241
34.97 	0.049164 	4902 	0.048327
34.99 	0.056565 	4897 	0.055489
35.01 	0.058501 	4923 	0.057668
35.03 	0.060490 	4943 	0.059186
35.05 	0.054174 	4947 	0.052990
35.07 	0.056883 	4940 	0.055815
35.09 	0.055118 	4953 	0.054054
35.11 	0.059632 	4947 	0.059040
35.13 	0.056071 	4958 	0.055126
35.15 	0.063399 	4937 	0.061975
35.17 	0.054185 	4946 	0.053238
35.19 	0.059085 	4942 	0.058137
35.21 	0.053387 	4945 	0.052676
35.23 	0.053589 	4945 	0.052523
35.25 	0.058062 	4943 	0.057469
35.27 	0.052344 	4948 	0.051516
35.29 	0.050961 	4945 	0.050368
35.31 	0.056355 	4933 	0.055524
35.33 	0.059680 	4943 	0.058594
35.35 	0.053824 	4942 	0.053350
35.37 	0.064790 	4939 	0.064079
35.39 	0.051163 	4945 	0.050669
35.41 	0.058668 	4926 	0.057935
35.43 	0.055342 	4933 	0.054392
35.45 	0.054081 	4937 	0.053607
35.47 	0.060637 	4931 	0.059568
35.49 	0.057637 	4910 	0.056206
35.51 	0.053999 	4926 	0.053048
35.53 	0.056375 	4949 	0.055310
35.55 	0.057836 	4945 	0.057125
35.57 	0.052504 	4933 	0.051554
35.59 	0.054601 	4945 	0.053890
35.61 	0.057264 	4942 	0.056553
35.63 	0.056039 	4943 	0.055209
35.65 	0.055207 	4945 	0.054378
35.67 	0.057669 	4942 	0.056839
35.69 	0.058027 	4946 	0.056961
35.71 	0.051246 	4937 	0.050652
35.73 	0.055511 	4936 	0.055155
35.75 	0.060840 	4931 	0.060246
35.77 	0.054130 	4951 	0.053421
35.79 	0.055150 	4932 	0.054556
35.81 	0.057369 	4933 	0.056181
35.83 	0.055398 	4946 	0.054451
35.85 	0.057548 	4935 	0.056480
35.87 	0.058095 	4923 	0.056786
35.89 	0.056344 	4934 	0.055631
35.91 	0.053379 	4927 	0.052428
35.93 	0.060483 	4927 	0.059413
35.95 	0.053691 	4917 	0.052857
35.97 	0.051303 	4912 	0.050230
35.99 	0.053047 	4939 	0.052336
36.01 	0.058418 	4930 	0.057091
36.03 	0.055230 	4943 	0.054400
36.05 	0.050556 	4945 	0.049964
36.07 	0.062158 	4939 	0.061328
36.09 	0.057287 	4940 	0.056102
36.11 	0.060256 	4929 	0.059186
36.13 	0.054431 	4942 	0.053246
36.15 	0.053857 	4939 	0.052671
36.17 	0.049137 	4925 	0.048423
36.19 	0.058097 	4940 	0.056556
36.21 	0.055184 	4929 	0.054827
36.23 	0.057548 	4935 	0.057192
36.25 	0.055252 	4941 	0.054304
36.27 	0.061929 	4925 	0.060858
36.29 	0.063679 	4931 	0.062966
36.31 	0.060674 	4928 	0.060198
36.33 	0.054328 	4933 	0.053497
36.35 	0.061067 	4929 	0.059641
36.37 	0.055860 	4923 	0.054789
36.39 	0.053851 	4921 	0.052522
36.41 	0.057802 	4896 	0.057204
36.43 	0.054789 	4928 	0.053719
36.45 	0.050913 	4930 	0.050200
36.47 	0.055308 	4936 	0.054339
36.49 	0.061311 	4942 	0.060719
36.51 	0.053720 	4933 	0.052889
36.53 	0.054825 	4943 	0.054232
36.55 	0.055815 	4927 	0.054983
36.57 	0.053101 	4934 	0.052745
36.59 	0.053250 	4939 	0.052894
36.61 	0.052930 	4931 	0.051980
36.63 	0.058812 	4931 	0.057624
36.65 	0.054542 	4932 	0.053810
36.67 	0.054970 	4930 	0.053900
36.69 	0.057212 	4929 	0.056737
36.71 	0.057712 	4921 	0.056879
36.73 	0.057462 	4925 	0.056986
36.75 	0.057039 	4944 	0.056091
36.77 	0.060581 	4919 	0.059629
36.79 	0.051006 	4921 	0.049935
36.81 	0.060212 	4916 	0.059973
36.83 	0.056765 	4915 	0.055812
36.85 	0.056145 	4898 	0.055547
36.87 	0.060882 	4944 	0.059796
36.89 	0.058381 	4916 	0.057547
36.91 	0.049585 	4941 	0.048755
36.93 	0.060243 	4930 	0.059293
36.95 	0.060409 	4933 	0.058985
36.97 	0.057762 	4934 	0.056813
36.99 	0.054103 	4935 	0.053747
37.01 	0.056963 	4933 	0.056251
37.03 	0.052803 	4924 	0.051970
37.05 	0.057642 	4927 	0.056453
37.07 	0.055319 	4935 	0.054726
37.09 	0.052760 	4928 	0.052047
37.11 	0.050659 	4935 	0.050065
37.13 	0.055240 	4924 	0.054645
37.15 	0.057446 	4909 	0.056133
37.17 	0.055938 	4934 	0.054969
37.19 	0.056244 	4925 	0.055035
37.21 	0.056742 	4917 	0.055789
37.23 	0.051647 	4918 	0.050932
37.25 	0.055589 	4911 	0.054755
37.27 	0.055578 	4894 	0.054022
37.29 	0.052738 	4930 	0.051788
37.31 	0.053495 	4935 	0.052269
37.33 	0.056627 	4927 	0.055557
37.35 	0.058931 	4938 	0.058456
37.37 	0.059062 	4927 	0.058230
37.39 	0.058812 	4931 	0.057742
37.41 	0.060840 	4931 	0.060246
37.43 	0.057989 	4932 	0.056663
37.45 	0.053006 	4924 	0.052173
37.47 	0.054778 	4929 	0.053708
37.49 	0.048954 	4923 	0.048240
37.51 	0.058990 	4933 	0.057565
37.53 	0.060175 	4919 	0.059460
37.55 	0.052941 	4930 	0.052228
37.57 	0.053198 	4925 	0.051771
37.59 	0.054323 	4915 	0.053350
37.61 	0.050996 	4922 	0.050519
37.63 	0.049197 	4919 	0.047867
37.65 	0.057137 	4918 	0.055807
37.67 	0.057912 	4904 	0.056937
37.69 	0.057779 	4898 	0.056702
37.71 	0.053561 	4929 	0.052729
37.73 	0.054778 	4929 	0.054302
37.75 	0.054656 	4940 	0.054063
37.77 	0.053252 	4920 	0.052776
37.79 	0.052941 	4930 	0.052585
37.81 	0.051693 	4933 	0.050980
37.83 	0.059350 	4920 	0.058635
37.85 	0.055059 	4922 	0.053869
37.87 	0.055274 	4939 	0.054444
37.89 	0.050761 	4925 	0.049929
37.91 	0.055375 	4930 	0.054662
37.93 	0.054686 	4919 	0.053852
37.95 	0.053648 	4921 	0.052814
37.97 	0.052140 	4929 	0.051665
37.99 	0.048860 	4912 	0.048025
38.01 	0.059050 	4928 	0.058337
38.03 	0.055205 	4909 	0.054369
38.05 	0.053807 	4925 	0.052975
38.07 	0.056834 	4909 	0.056357
38.09 	0.053916 	4878 	0.053075
38.11 	0.064843 	4935 	0.063775
38.13 	0.054081 	4937 	0.053014
38.15 	0.057137 	4918 	0.056065
38.17 	0.048884 	4930 	0.047815
38.19 	0.061055 	4930 	0.060104
38.21 	0.051391 	4923 	0.050658
38.23 	0.052653 	4938 	0.051822
38.25 	0.062030 	4917 	0.061077
38.27 	0.054158 	4930 	0.053326
38.29 	0.058895 	4924 	0.058181
38.31 	0.067790 	4927 	0.066244
38.33 	0.064379 	4924 	0.062118
38.35 	0.069399 	4928 	0.067973
38.37 	0.067628 	4924 	0.066438
38.39 	0.067223 	4909 	0.066269
38.41 	0.068860 	4923 	0.066719
38.43 	0.070179 	4916 	0.069702
38.45 	0.071370 	4918 	0.070656
38.47 	0.074791 	4907 	0.072284
38.49 	0.071765 	4877 	0.070204
38.51 	0.072790 	4932 	0.070652
38.53 	0.074863 	4929 	0.072585
38.55 	0.069287 	4936 	0.068219
38.57 	0.078001 	4923 	0.076216
38.59 	0.073111 	4924 	0.072041
38.61 	0.071313 	4936 	0.070363
38.63 	0.075345 	4924 	0.073918
38.65 	0.074217 	4918 	0.072768
38.67 	0.064006 	4937 	0.063295
38.69 	0.062373 	4922 	0.061540
38.71 	0.068440 	4924 	0.066537
38.73 	0.070760 	4918 	0.069331
38.75 	0.059265 	4927 	0.058076
38.77 	0.059720 	4923 	0.059006
38.79 	0.063437 	4934 	0.062250
38.81 	0.057818 	4912 	0.057341
38.83 	0.060378 	4919 	0.059068
38.85 	0.062093 	4912 	0.061020
38.87 	0.059662 	4911 	0.058350
38.89 	0.057178 	4897 	0.056101
38.91 	0.050989 	4903 	0.050033
38.93 	0.050425 	4938 	0.049239
38.95 	0.055307 	4918 	0.054235
38.97 	0.051105 	4931 	0.050254
38.99 	0.048815 	4937 	0.048103
39.01 	0.046970 	4918 	0.046375
39.03 	0.054722 	4934 	0.054247
39.05 	0.049340 	4925 	0.048626
39.07 	0.054427 	4924 	0.053832
39.09 	0.049157 	4923 	0.048800
39.11 	0.046035 	4931 	0.045323
39.13 	0.048141 	4923 	0.047665
39.15 	0.051882 	4915 	0.050929
39.17 	0.050638 	4937 	0.050045
39.19 	0.046573 	4917 	0.046216
39.21 	0.042566 	4910 	0.041831
39.23 	0.051980 	4925 	0.050909
39.25 	0.050183 	4922 	0.049092
39.27 	0.050306 	4910 	0.049828
39.29 	0.048766 	4901 	0.048407
39.31 	0.042588 	4884 	0.042208
39.33 	0.044616 	4931 	0.044022
39.35 	0.051672 	4935 	0.050603
39.37 	0.042605 	4929 	0.042248
39.39 	0.044228 	4929 	0.043872
39.41 	0.044210 	4931 	0.043616
39.43 	0.050274 	4933 	0.049067
39.45 	0.045482 	4925 	0.044531
39.47 	0.038594 	4923 	0.038356
39.49 	0.044192 	4933 	0.043836
39.51 	0.043258 	4924 	0.042544
39.53 	0.041438 	4923 	0.040962
39.55 	0.045944 	4919 	0.045111
39.57 	0.040138 	4933 	0.039900
39.59 	0.045195 	4912 	0.044838
39.61 	0.045704 	4923 	0.045109
39.63 	0.044088 	4922 	0.044088
39.65 	0.042834 	4926 	0.042596
39.67 	0.045797 	4913 	0.044943
39.69 	0.045566 	4916 	0.045327
39.71 	0.043922 	4895 	0.043204
39.73 	0.045640 	4908 	0.045043
39.75 	0.042614 	4928 	0.042019
39.77 	0.043566 	4935 	0.042854
39.79 	0.044458 	4926 	0.043744
39.81 	0.046885 	4927 	0.045814
39.83 	0.035063 	4934 	0.034707
39.85 	0.044043 	4927 	0.043686
39.87 	0.046091 	4925 	0.045616
39.89 	0.049858 	4934 	0.049858
39.91 	0.041650 	4922 	0.041174
39.93 	0.045979 	4937 	0.045149
39.95 	0.044151 	4915 	0.043416
39.97 	0.044846 	4928 	0.044133
39.99 	0.041363 	4932 	0.040769
40.01 	0.044327 	4918 	0.043731
40.03 	0.044643 	4928 	0.044286
40.05 	0.041489 	4917 	0.041250
40.07 	0.043469 	4923 	0.043231
40.09 	0.050041 	4916 	0.049445
40.11 	0.043735 	4916 	0.043139
40.13 	0.043505 	4896 	0.042528
40.15 	0.042337 	4913 	0.040986
40.17 	0.042208 	4928 	0.041613
40.19 	0.042199 	4929 	0.041724
40.21 	0.041135 	4935 	0.040660
40.23 	0.043390 	4932 	0.042796
40.25 	0.043496 	4920 	0.043020
40.27 	0.039093 	4937 	0.038618
40.29 	0.040796 	4927 	0.040439
40.31 	0.039279 	4939 	0.038330
40.33 	0.042579 	4932 	0.041629
40.35 	0.044318 	4919 	0.044199
40.37 	0.046663 	4929 	0.045950
40.39 	0.044007 	4931 	0.043156
40.41 	0.044873 	4925 	0.044516
40.43 	0.042666 	4922 	0.042071
40.45 	0.042165 	4933 	0.042046
40.47 	0.042090 	4918 	0.041495
40.49 	0.040601 	4926 	0.040363
40.51 	0.046932 	4922 	0.046456
40.53 	0.043328 	4916 	0.042732
40.55 	0.044825 	4908 	0.044347
40.57 	0.044581 	4890 	0.043862
40.59 	0.042131 	4937 	0.041894
40.61 	0.043769 	4935 	0.043532
40.63 	0.042799 	4930 	0.042086
40.65 	0.044359 	4937 	0.043528
40.67 	0.042782 	4932 	0.042426
40.69 	0.043751 	4937 	0.043277
40.71 	0.045215 	4932 	0.044740
40.73 	0.040601 	4926 	0.040125
40.75 	0.043399 	4931 	0.042805
40.77 	0.045961 	4939 	0.045230
40.79 	0.039805 	4924 	0.039210
40.81 	0.040882 	4941 	0.040764
40.83 	0.047484 	4928 	0.046513
40.85 	0.043054 	4924 	0.042222
40.87 	0.039773 	4928 	0.038584
40.89 	0.042588 	4931 	0.041875
40.91 	0.040829 	4923 	0.040353
40.93 	0.039319 	4934 	0.039082
40.95 	0.039894 	4913 	0.039656
40.97 	0.043461 	4924 	0.043342
40.99 	0.041024 	4924 	0.040290
41.01 	0.037459 	4912 	0.036982
41.03 	0.035678 	4905 	0.035320
41.05 	0.041937 	4936 	0.041699
41.07 	0.038742 	4930 	0.038505
41.09 	0.038469 	4939 	0.037876
41.11 	0.040932 	4935 	0.040339
41.13 	0.040924 	4936 	0.040686
41.15 	0.035620 	4941 	0.035146
41.17 	0.048439 	4934 	0.047846
41.19 	0.039554 	4930 	0.039435
41.21 	0.038890 	4937 	0.038771
41.23 	0.043936 	4939 	0.043343
41.25 	0.041354 	4933 	0.040998
41.27 	0.041168 	4931 	0.040455
41.29 	0.042208 	4928 	0.041732
41.31 	0.043989 	4933 	0.043158
41.33 	0.041726 	4937 	0.041132
41.35 	0.037465 	4938 	0.036990
41.37 	0.044476 	4924 	0.043881
41.39 	0.036894 	4933 	0.036538
41.41 	0.038165 	4926 	0.037570
41.43 	0.041388 	4929 	0.041031
41.45 	0.037037 	4914 	0.036918
41.47 	0.034917 	4926 	0.034084
41.49 	0.041905 	4892 	0.041306
41.51 	0.043927 	4940 	0.043334
41.53 	0.039239 	4944 	0.038884
41.55 	0.041743 	4935 	0.041505
41.57 	0.037847 	4941 	0.037135
41.59 	0.037097 	4933 	0.036860
41.61 	0.037957 	4953 	0.037484
41.63 	0.045160 	4938 	0.044923
41.65 	0.036113 	4929 	0.035637
41.67 	0.039271 	4940 	0.038797
41.69 	0.039216 	4947 	0.038979
41.71 	0.037495 	4934 	0.036901
41.73 	0.036062 	4936 	0.035587
41.75 	0.038344 	4929 	0.037869
41.77 	0.038251 	4941 	0.038133
41.79 	0.043083 	4944 	0.042609
41.81 	0.039506 	4936 	0.039031
41.83 	0.043628 	4928 	0.042915
41.85 	0.044138 	4939 	0.042952
41.87 	0.042756 	4935 	0.042518
41.89 	0.038111 	4933 	0.037873
41.91 	0.043963 	4936 	0.043369
41.93 	0.040552 	4932 	0.040433
41.95 	0.034070 	4931 	0.033714
41.97 	0.043753 	4914 	0.043276
41.99 	0.040367 	4905 	0.039292
42.01 	0.042088 	4942 	0.041496
42.03 	0.039077 	4939 	0.038721
42.05 	0.038368 	4952 	0.037895
42.07 	0.037472 	4937 	0.037353
42.09 	0.036176 	4948 	0.035348
42.11 	0.034985 	4945 	0.034985
42.13 	0.031951 	4945 	0.031596
42.15 	0.041920 	4938 	0.041445
42.17 	0.040260 	4918 	0.039426
42.19 	0.038916 	4908 	0.038319
42.21 	0.043052 	4901 	0.042694
42.23 	0.030867 	4892 	0.030627
42.25 	0.034567 	4889 	0.034448
42.27 	0.037546 	4874 	0.037306
42.29 	0.043800 	4863 	0.043318
42.31 	0.038105 	4855 	0.037622
42.33 	0.042822 	4834 	0.042579
42.35 	0.044233 	4838 	0.043870
42.37 	0.040166 	4830 	0.039559
42.39 	0.042256 	4804 	0.041891
42.41 	0.038301 	4804 	0.037814
42.43 	0.037563 	4792 	0.037176
42.45 	0.040829 	4776 	0.040584
42.47 	0.044491 	4765 	0.043385
42.49 	0.036097 	4765 	0.035851
42.51 	0.036475 	4743 	0.036228
42.53 	0.040821 	4728 	0.040449
42.55 	0.041419 	4708 	0.041046
42.57 	0.039323 	4730 	0.038828
42.59 	0.040178 	4729 	0.039930
42.61 	0.043331 	4708 	0.042833
42.63 	0.042047 	4709 	0.041550
42.65 	0.036713 	4685 	0.036463
42.67 	0.037788 	4684 	0.037663
42.69 	0.039795 	4674 	0.039043
42.71 	0.035599 	4663 	0.035348
42.73 	0.035560 	4640 	0.035308
42.75 	0.043318 	4617 	0.042938
42.77 	0.035652 	4600 	0.034761
42.79 	0.032519 	4582 	0.032135
42.81 	0.038360 	4562 	0.037826
42.83 	0.038801 	4536 	0.038284
42.85 	0.032244 	4528 	0.031576
42.87 	0.035563 	4499 	0.035303
42.89 	0.032366 	4480 	0.032105
42.91 	0.039048 	4456 	0.038917
42.93 	0.037337 	4446 	0.036678
42.95 	0.034194 	4416 	0.033929
42.97 	0.037719 	4401 	0.037319
42.99 	0.037628 	4385 	0.037094
43.01 	0.041714 	4363 	0.040909
43.03 	0.038772 	4333 	0.038231
43.05 	0.033757 	4325 	0.033622
43.07 	0.034916 	4296 	0.034643
43.09 	0.044828 	4283 	0.044418
43.11 	0.037838 	4255 	0.037425
43.13 	0.042483 	4237 	0.042206
43.15 	0.041132 	4206 	0.040714
43.17 	0.033501 	4179 	0.033220
43.19 	0.036958 	4194 	0.036818
43.21 	0.040748 	4172 	0.040467
43.23 	0.040684 	4154 	0.040120
43.25 	0.035308 	4135 	0.035025
43.27 	0.038977 	4105 	0.038549
43.29 	0.037561 	4100 	0.037275
43.31 	0.032116 	4079 	0.031828
43.33 	0.037768 	4051 	0.037479
43.35 	0.034474 	4032 	0.034474
43.37 	0.038356 	4015 	0.037918
43.39 	0.034733 	4002 	0.034147
43.41 	0.039275 	3972 	0.038832
43.43 	0.031061 	3960 	0.030469
43.45 	0.034816 	3935 	0.034667
43.47 	0.041826 	3921 	0.041378
43.49 	0.036952 	3897 	0.036200
43.51 	0.042301 	3877 	0.041847
43.53 	0.032099 	3863 	0.031493
43.55 	0.037112 	2964 	0.036717
43.57 	0.037980 	2238 	0.037719
43.59 	0.036655 	1746 	0.035984
43.61 	0.034789 	1351 	0.033922
43.63 	0.026973 	1001 	0.026388
43.65 	0.037846 	687 	0.037846
43.67 	0.031873 	502 	0.030706
43.69 	0.029973 	367 	0.029973
43.71 	0.046025 	239 	0.046025
43.73 	0.033333 	120 	0.033333
43.75 	0.000000 	16 	0.000000