File: Example_Data/25SC_s1_0049.002.dat
#F C:\frames\spec\25SC_s1_0049.002
#C title =s:49 frm:2 25SC_s1
#C wavelength =0.15406

#S 1  fr_average C:\frames\spec\25SC_s1_0049.002 C:\win32app\speccom\mask.axs chi 0 180 0 360 0.02
#C 2 theta =0.000000 to 180 deg
#C   q   =0.000000 to 81.568 nm^-1
#C  chi  =0.000000 to 360 deg
#C collumns:
#C  1 position (2theta or chi in degrees)
#C  2 average intensity (sum of all counts in the region divided with number of pixels)
#C  3 Number of pixels in region)
#C  4 error (sum of sqrt(intensity) for all pixels divided by number)
#N 4
#L TTh  Int  N_pix  Err
32.99 	0.049180 	61 	0.049180
33.01 	0.049255 	873 	0.049255
33.03 	0.049605 	1391 	0.049183
33.05 	0.051224 	1757 	0.050890
33.07 	0.057561 	2050 	0.056418
33.09 	0.057946 	2347 	0.056698
33.11 	0.061264 	2579 	0.060356
33.13 	0.062657 	2793 	0.061608
33.15 	0.055352 	2999 	0.054570
33.17 	0.055295 	3201 	0.054929
33.19 	0.062537 	3342 	0.061135
33.21 	0.056461 	3436 	0.056291
33.23 	0.060176 	3523 	0.059012
33.25 	0.056755 	3612 	0.055944
33.27 	0.053994 	3630 	0.053188
33.29 	0.058388 	3648 	0.057425
33.31 	0.053005 	3660 	0.052205
33.33 	0.060228 	3686 	0.059433
33.35 	0.065241 	3694 	0.063972
33.37 	0.058966 	3714 	0.058020
33.39 	0.053902 	3729 	0.052959
33.41 	0.066043 	3740 	0.064790
33.43 	0.052380 	3761 	0.052068
33.45 	0.059369 	3773 	0.058438
33.47 	0.062138 	3798 	0.061367
33.49 	0.057758 	3809 	0.056528
33.51 	0.056881 	3815 	0.055652
33.53 	0.059360 	3841 	0.058292
33.55 	0.057507 	3843 	0.056745
33.57 	0.057777 	3877 	0.057021
33.59 	0.054381 	3880 	0.053174
33.61 	0.061653 	3909 	0.060454
33.63 	0.059964 	3919 	0.059366
33.65 	0.054185 	3931 	0.053142
33.67 	0.061963 	3954 	0.060926
33.69 	0.060207 	3953 	0.059466
33.71 	0.054340 	3975 	0.053161
33.73 	0.058442 	4004 	0.057271
33.75 	0.061265 	3999 	0.060093
33.77 	0.056646 	4025 	0.055918
33.79 	0.064588 	4041 	0.063863
33.81 	0.057702 	4038 	0.056686
33.83 	0.059012 	4050 	0.058578
33.85 	0.066114 	4099 	0.065399
33.87 	0.051569 	4111 	0.050857
33.89 	0.056054 	4121 	0.055486
33.91 	0.057363 	4149 	0.056798
33.93 	0.066731 	4151 	0.064450
33.95 	0.057163 	4181 	0.056323
33.97 	0.058711 	4190 	0.058292
33.99 	0.050476 	4200 	0.049779
34.01 	0.057679 	4213 	0.056010
34.03 	0.063619 	4244 	0.062653
34.05 	0.052681 	4252 	0.051992
34.07 	0.062559 	4268 	0.061461
34.09 	0.055763 	4286 	0.054340
34.11 	0.061367 	4302 	0.060822
34.13 	0.057799 	4308 	0.057120
34.15 	0.056107 	4331 	0.055025
34.17 	0.053103 	4350 	0.052565
34.19 	0.055479 	4362 	0.054808
34.21 	0.058568 	4371 	0.057362
34.23 	0.054632 	4393 	0.054232
34.25 	0.060173 	4404 	0.059241
34.27 	0.056309 	4422 	0.055382
34.29 	0.054566 	4435 	0.053355
34.31 	0.051593 	4458 	0.051330
34.33 	0.054798 	4471 	0.054536
34.35 	0.054639 	4484 	0.053463
34.37 	0.057671 	4491 	0.055845
34.39 	0.062195 	4502 	0.059852
34.41 	0.057004 	4526 	0.056098
34.43 	0.057942 	4539 	0.056372
34.45 	0.057993 	4535 	0.057218
34.47 	0.051611 	4592 	0.050974
34.49 	0.055906 	4597 	0.054229
34.51 	0.056014 	4606 	0.055124
34.53 	0.053198 	4643 	0.052063
34.55 	0.054491 	4643 	0.053481
34.57 	0.052146 	4660 	0.051643
34.59 	0.057540 	4675 	0.056642
34.61 	0.060890 	4697 	0.059767
34.63 	0.052229 	4710 	0.051110
34.65 	0.055073 	4721 	0.054329
34.67 	0.053575 	4741 	0.052834
34.69 	0.053008 	4754 	0.052392
34.71 	0.059379 	4766 	0.058396
34.73 	0.058074 	4787 	0.056483
34.75 	0.057820 	4808 	0.056846
34.77 	0.060191 	4818 	0.058610
34.79 	0.055556 	4824 	0.054463
34.81 	0.062745 	4845 	0.062503
34.83 	0.055944 	4862 	0.055342
34.85 	0.051961 	4869 	0.051360
34.87 	0.059778 	4868 	0.058194
34.89 	0.061655 	4882 	0.060455
34.91 	0.054281 	4882 	0.053561
34.93 	0.057359 	4899 	0.056402
34.95 	0.053988 	4890 	0.052910
34.97 	0.053448 	4902 	0.052611
34.99 	0.057586 	4897 	0.056031
35.01 	0.058704 	4923 	0.057752
35.03 	0.048351 	4943 	0.047877
35.05 	0.055185 	4947 	0.054830
35.07 	0.058907 	4940 	0.057603
35.09 	0.059358 	4953 	0.058136
35.11 	0.056398 	4947 	0.055687
35.13 	0.055063 	4958 	0.054472
35.15 	0.056107 	4937 	0.055158
35.17 	0.055803 	4946 	0.055447
35.19 	0.061514 	4942 	0.060802
35.21 	0.054601 	4945 	0.054008
35.23 	0.062487 	4945 	0.061184
35.25 	0.058669 	4943 	0.057938
35.27 	0.055578 	4948 	0.054986
35.29 	0.061476 	4945 	0.060055
35.31 	0.059193 	4933 	0.057610
35.33 	0.058669 	4943 	0.057958
35.35 	0.054836 	4942 	0.054362
35.37 	0.060134 	4939 	0.059066
35.39 	0.053994 	4945 	0.052908
35.41 	0.060698 	4926 	0.059509
35.43 	0.059599 	4933 	0.058273
35.45 	0.058943 	4937 	0.057737
35.47 	0.060637 	4931 	0.058935
35.49 	0.056823 	4910 	0.055729
35.51 	0.057653 	4926 	0.056445
35.53 	0.052132 	4949 	0.051540
35.55 	0.053185 	4945 	0.052474
35.57 	0.054936 	4933 	0.054105
35.59 	0.057230 	4945 	0.056400
35.61 	0.054836 	4942 	0.054599
35.63 	0.060287 	4943 	0.059576
35.65 	0.058038 	4945 	0.056380
35.67 	0.056253 	4942 	0.055048
35.69 	0.057622 	4946 	0.056438
35.71 	0.056917 	4937 	0.055849
35.73 	0.051459 	4936 	0.050509
35.75 	0.062868 	4931 	0.061442
35.77 	0.059786 	4951 	0.058839
35.79 	0.057583 	4932 	0.056633
35.81 	0.055950 	4933 	0.055118
35.83 	0.058027 	4946 	0.057079
35.85 	0.058561 	4935 	0.057493
35.87 	0.058907 	4923 	0.058074
35.89 	0.055330 	4934 	0.054262
35.91 	0.058656 	4927 	0.057586
35.93 	0.052770 	4927 	0.051819
35.95 	0.061013 	4917 	0.059921
35.97 	0.054560 	4912 	0.053964
35.99 	0.055072 	4939 	0.054123
36.01 	0.052738 	4930 	0.051531
36.03 	0.057657 	4943 	0.056946
36.05 	0.057836 	4945 	0.057125
36.07 	0.053655 	4939 	0.052449
36.09 	0.064777 	4940 	0.063829
36.11 	0.051735 	4929 	0.050784
36.13 	0.058478 	4942 	0.057293
36.15 	0.057299 	4939 	0.056232
36.17 	0.059492 	4925 	0.058184
36.19 	0.050607 	4940 	0.049540
36.21 	0.059038 	4929 	0.057137
36.23 	0.060182 	4935 	0.058877
36.25 	0.054038 	4941 	0.053188
36.27 	0.053198 	4925 	0.052484
36.29 	0.058609 	4931 	0.058134
36.31 	0.058442 	4928 	0.057728
36.33 	0.050679 	4933 	0.049492
36.35 	0.057821 	4929 	0.056633
36.37 	0.051188 	4923 	0.050712
36.39 	0.052632 	4921 	0.051798
36.41 	0.060662 	4896 	0.058967
36.43 	0.065341 	4928 	0.063657
36.45 	0.054361 	4930 	0.053292
36.47 	0.063006 	4936 	0.062057
36.49 	0.050789 	4942 	0.050434
36.51 	0.056963 	4933 	0.055776
36.53 	0.059478 	4943 	0.058530
36.55 	0.054394 	4927 	0.053086
36.57 	0.056952 	4934 	0.056358
36.59 	0.054869 	4939 	0.054039
36.61 	0.058406 	4931 	0.057931
36.63 	0.055364 	4931 	0.054532
36.65 	0.052514 	4932 	0.051326
36.67 	0.057404 	4930 	0.056334
36.69 	0.050923 	4929 	0.050567
36.71 	0.052835 	4921 	0.052240
36.73 	0.049949 	4925 	0.048998
36.75 	0.062702 	4944 	0.061754
36.77 	0.056109 	4919 	0.055037
36.79 	0.052632 	4921 	0.052274
36.81 	0.050651 	4916 	0.049559
36.83 	0.058800 	4915 	0.058204
36.85 	0.052675 	4898 	0.051837
36.87 	0.054005 	4944 	0.053175
36.89 	0.056550 	4916 	0.055339
36.91 	0.046347 	4941 	0.045754
36.93 	0.052738 	4930 	0.051312
36.95 	0.048652 	4933 	0.048058
36.97 	0.051885 	4934 	0.051034
36.99 	0.051266 	4935 	0.050554
37.01 	0.055747 	4933 	0.055153
37.03 	0.058083 	4924 	0.057250
37.05 	0.055815 	4927 	0.055339
37.07 	0.051672 	4935 	0.050960
37.09 	0.050122 	4928 	0.049409
37.11 	0.053090 	4935 	0.052497
37.13 	0.053615 	4924 	0.053377
37.15 	0.051538 	4909 	0.050941
37.17 	0.051074 	4934 	0.050006
37.19 	0.057259 	4925 	0.056783
37.21 	0.051251 	4917 	0.050655
37.23 	0.054900 	4918 	0.054186
37.25 	0.047852 	4911 	0.047255
37.27 	0.055578 	4894 	0.054740
37.29 	0.059026 	4930 	0.058313
37.31 	0.053293 	4935 	0.052462
37.33 	0.054394 	4927 	0.053681
37.35 	0.054070 	4938 	0.053240
37.37 	0.058656 	4927 	0.058181
37.39 	0.048266 	4931 	0.047316
37.41 	0.052728 	4931 	0.051877
37.43 	0.051500 	4932 	0.050431
37.45 	0.054021 	4924 	0.053307
37.47 	0.049503 	4929 	0.048909
37.49 	0.059720 	4923 	0.058887
37.51 	0.053720 	4933 	0.052889
37.53 	0.057125 	4919 	0.055915
37.55 	0.050913 	4930 	0.049843
37.57 	0.056650 	4925 	0.056412
37.59 	0.053917 	4915 	0.053082
37.61 	0.048761 	4922 	0.047928
37.63 	0.046554 	4919 	0.045959
37.65 	0.057137 	4918 	0.056422
37.67 	0.048736 	4904 	0.048019
37.69 	0.051654 	4898 	0.051295
37.71 	0.046460 	4929 	0.045866
37.73 	0.055995 	4929 	0.055401
37.75 	0.049393 	4940 	0.048563
37.77 	0.042480 	4920 	0.041765
37.79 	0.052738 	4930 	0.051550
37.81 	0.048247 	4933 	0.047415
37.83 	0.054472 	4920 	0.053162
37.85 	0.051808 	4922 	0.050956
37.87 	0.051832 	4939 	0.050765
37.89 	0.055838 	4925 	0.055005
37.91 	0.049087 	4930 	0.048255
37.93 	0.049400 	4919 	0.048567
37.95 	0.060963 	4921 	0.060011
37.97 	0.053358 	4929 	0.052288
37.99 	0.053542 	4912 	0.053185
38.01 	0.056006 	4928 	0.054818
38.03 	0.052760 	4909 	0.052164
38.05 	0.052386 	4925 	0.051791
38.07 	0.049094 	4909 	0.048497
38.09 	0.052686 	4878 	0.051825
38.11 	0.052888 	4935 	0.052037
38.13 	0.055499 	4937 	0.054669
38.15 	0.051850 	4918 	0.050897
38.17 	0.049899 	4930 	0.049542
38.19 	0.054767 	4930 	0.053579
38.21 	0.052204 	4923 	0.051252
38.23 	0.052450 	4938 	0.051719
38.25 	0.058572 	4917 	0.057480
38.27 	0.058215 	4930 	0.057621
38.29 	0.055240 	4924 	0.054407
38.31 	0.060889 	4927 	0.059819
38.33 	0.060114 	4924 	0.059162
38.35 	0.059050 	4928 	0.058218
38.37 	0.060114 	4924 	0.058686
38.39 	0.065186 	4909 	0.064112
38.41 	0.069267 	4923 	0.067125
38.43 	0.062246 	4916 	0.061173
38.45 	0.064050 	4918 	0.062145
38.47 	0.063990 	4907 	0.062031
38.49 	0.064794 	4877 	0.063473
38.51 	0.067518 	4932 	0.066192
38.53 	0.068168 	4929 	0.066742
38.55 	0.063614 	4936 	0.062190
38.57 	0.058298 	4923 	0.057703
38.59 	0.061332 	4924 	0.059786
38.61 	0.061994 	4936 	0.061163
38.63 	0.060317 	4924 	0.059583
38.65 	0.055104 	4918 	0.054627
38.67 	0.055499 	4937 	0.054669
38.69 	0.055465 	4922 	0.054989
38.71 	0.051178 	4924 	0.050821
38.73 	0.058154 	4918 	0.057677
38.75 	0.056018 	4927 	0.055305
38.77 	0.048141 	4923 	0.047546
38.79 	0.054114 	4934 	0.053283
38.81 	0.043974 	4912 	0.043497
38.83 	0.050010 	4919 	0.049534
38.85 	0.052117 	4912 	0.051163
38.87 	0.052331 	4911 	0.051497
38.89 	0.043700 	4897 	0.043222
38.91 	0.045890 	4903 	0.045293
38.93 	0.046780 	4938 	0.046068
38.95 	0.049207 	4918 	0.048850
38.97 	0.051916 	4931 	0.051322
38.99 	0.047802 	4937 	0.046734
39.01 	0.044937 	4918 	0.044341
39.03 	0.043981 	4934 	0.043387
39.05 	0.047513 	4925 	0.046799
39.07 	0.048335 	4924 	0.047978
39.09 	0.040626 	4923 	0.040150
39.11 	0.044007 	4931 	0.043275
39.13 	0.045907 	4923 	0.045312
39.15 	0.051882 	4915 	0.051644
39.17 	0.045372 	4937 	0.045134
39.19 	0.046573 	4917 	0.046216
39.21 	0.044807 	4910 	0.044210
39.23 	0.042437 	4925 	0.041961
39.25 	0.047542 	4922 	0.046828
39.27 	0.049491 	4910 	0.048536
39.29 	0.041216 	4901 	0.040499
39.31 	0.042793 	4884 	0.042313
39.33 	0.044818 	4931 	0.044225
39.35 	0.048632 	4935 	0.048039
39.37 	0.045648 	4929 	0.044935
39.39 	0.044025 	4929 	0.043174
39.41 	0.042791 	4931 	0.042315
39.43 	0.045611 	4933 	0.045136
39.45 	0.047107 	4925 	0.046274
39.47 	0.049766 	4923 	0.048933
39.49 	0.040543 	4933 	0.039950
39.51 	0.044476 	4924 	0.043505
39.53 	0.045704 	4923 	0.045228
39.55 	0.041675 	4919 	0.041318
39.57 	0.046827 	4933 	0.046115
39.59 	0.042142 	4912 	0.041784
39.61 	0.049766 	4923 	0.049409
39.63 	0.041853 	4922 	0.041377
39.65 	0.045676 	4926 	0.045081
39.67 	0.045186 	4913 	0.044471
39.69 	0.044345 	4916 	0.043749
39.71 	0.044944 	4895 	0.044106
39.73 	0.046862 	4908 	0.046146
39.75 	0.046875 	4928 	0.046637
39.77 	0.045998 	4935 	0.045404
39.79 	0.045473 	4926 	0.044522
39.81 	0.049320 	4927 	0.048845
39.83 	0.044386 	4934 	0.044148
39.85 	0.047087 	4927 	0.046117
39.87 	0.050152 	4925 	0.049677
39.89 	0.047629 	4934 	0.047273
39.91 	0.048761 	4922 	0.048146
39.93 	0.045979 	4937 	0.045742
39.95 	0.044557 	4915 	0.043704
39.97 	0.043831 	4928 	0.043118
39.99 	0.041160 	4932 	0.040447
40.01 	0.040260 	4918 	0.039665
40.03 	0.043425 	4928 	0.042712
40.05 	0.044336 	4917 	0.044098
40.07 	0.043469 	4923 	0.042874
40.09 	0.043735 	4916 	0.043258
40.11 	0.044345 	4916 	0.043749
40.13 	0.047590 	4896 	0.046992
40.15 	0.044576 	4913 	0.043860
40.17 	0.043222 	4928 	0.042628
40.19 	0.037533 	4929 	0.037058
40.21 	0.040527 	4935 	0.040052
40.23 	0.038118 	4932 	0.037762
40.25 	0.043496 	4920 	0.042643
40.27 	0.047397 	4937 	0.046685
40.29 	0.043434 	4927 	0.042126
40.31 	0.042316 	4939 	0.041723
40.33 	0.039538 	4932 	0.039181
40.35 	0.048790 	4919 	0.048195
40.37 	0.047271 	4929 	0.046915
40.39 	0.042385 	4931 	0.041910
40.41 	0.037970 	4925 	0.037851
40.43 	0.045713 	4922 	0.045118
40.45 	0.043787 	4933 	0.043312
40.47 	0.041887 	4918 	0.041291
40.49 	0.041616 	4926 	0.041259
40.51 	0.041447 	4922 	0.041209
40.53 	0.045159 	4916 	0.044662
40.55 	0.042380 	4908 	0.041664
40.57 	0.046626 	4890 	0.045907
40.59 	0.042739 	4937 	0.042501
40.61 	0.046606 	4935 	0.046250
40.63 	0.041988 	4930 	0.041750
40.65 	0.044764 	4937 	0.044270
40.67 	0.042174 	4932 	0.041798
40.69 	0.046790 	4937 	0.045722
40.71 	0.039943 	4932 	0.039112
40.73 	0.042428 	4926 	0.042190
40.75 	0.042182 	4931 	0.040994
40.77 	0.040089 	4939 	0.039615
40.79 	0.041430 	4924 	0.040835
40.81 	0.043918 	4941 	0.043207
40.83 	0.042817 	4928 	0.041747
40.85 	0.038993 	4924 	0.038636
40.87 	0.043628 	4928 	0.043034
40.89 	0.044818 	4931 	0.044343
40.91 	0.042454 	4923 	0.041978
40.93 	0.043170 	4934 	0.042339
40.95 	0.041930 	4913 	0.041214
40.97 	0.041430 	4924 	0.040716
40.99 	0.040211 	4924 	0.039973
41.01 	0.039495 	4912 	0.039257
41.03 	0.042813 	4905 	0.042097
41.05 	0.047204 	4936 	0.046730
41.07 	0.043813 	4930 	0.043576
41.09 	0.044543 	4939 	0.044069
41.11 	0.043364 	4935 	0.042889
41.13 	0.037480 	4936 	0.037005
41.15 	0.041085 	4941 	0.040492
41.17 	0.038306 	4934 	0.037949
41.19 	0.043205 	4930 	0.042591
41.21 	0.035649 	4937 	0.035175
41.23 	0.043329 	4939 	0.043210
41.25 	0.043787 	4933 	0.043668
41.27 	0.046035 	4931 	0.045441
41.29 	0.042614 	4928 	0.041900
41.31 	0.044598 	4933 	0.044222
41.33 	0.040713 	4937 	0.040476
41.35 	0.043135 	4938 	0.042660
41.37 	0.043258 	4924 	0.043139
41.39 	0.042570 	4933 	0.041601
41.41 	0.042022 	4926 	0.041546
41.43 	0.043417 	4929 	0.042941
41.45 	0.037037 	4914 	0.036322
41.47 	0.039586 	4926 	0.039110
41.49 	0.043540 	4892 	0.042822
41.51 	0.038462 	4940 	0.037869
41.53 	0.040655 	4944 	0.040418
41.55 	0.040729 	4935 	0.040255
41.57 	0.042097 	4941 	0.041504
41.59 	0.036692 	4933 	0.036335
41.61 	0.039572 	4953 	0.039335
41.63 	0.047388 	4938 	0.046913
41.65 	0.044634 	4929 	0.044040
41.67 	0.038866 	4940 	0.038511
41.69 	0.042248 	4947 	0.041419
41.71 	0.043170 	4934 	0.042220
41.73 	0.038290 	4936 	0.037934
41.75 	0.038953 	4929 	0.038478
41.77 	0.040478 	4941 	0.039391
41.79 	0.040858 	4944 	0.039910
41.81 	0.037885 	4936 	0.037292
41.83 	0.040179 	4928 	0.039584
41.85 	0.042316 	4939 	0.041605
41.87 	0.041337 	4935 	0.040625
41.89 	0.042368 	4933 	0.042011
41.91 	0.035251 	4936 	0.034895
41.93 	0.037713 	4932 	0.037475
41.95 	0.038126 	4931 	0.037770
41.97 	0.041921 	4914 	0.041563
41.99 	0.040163 	4905 	0.039566
42.01 	0.039660 	4942 	0.039304
42.03 	0.042316 	4939 	0.041842
42.05 	0.038974 	4952 	0.038738
42.07 	0.039295 	4937 	0.038465
42.09 	0.041431 	4948 	0.040839
42.11 	0.042872 	4945 	0.042516
42.13 	0.040243 	4945 	0.040006
42.15 	0.043337 	4938 	0.043100
42.17 	0.034974 	4918 	0.034735
42.19 	0.038509 	4908 	0.038389
42.21 	0.043461 	4901 	0.042624
42.23 	0.031889 	4892 	0.031530
42.25 	0.036408 	4889 	0.035929
42.27 	0.036725 	4874 	0.036605
42.29 	0.044006 	4863 	0.043283
42.31 	0.038517 	4855 	0.038034
42.33 	0.034961 	4834 	0.034718
42.35 	0.037619 	4838 	0.037377
42.37 	0.036439 	4830 	0.036075
42.39 	0.039134 	4804 	0.038768
42.41 	0.038093 	4804 	0.037484
42.43 	0.037771 	4792 	0.037405
42.45 	0.042714 	4776 	0.041855
42.47 	0.039664 	4765 	0.039418
42.49 	0.036306 	4765 	0.035938
42.51 	0.037107 	4743 	0.036860
42.53 	0.040398 	4728 	0.040026
42.55 	0.039932 	4708 	0.039185
42.57 	0.036575 	4730 	0.036575
42.59 	0.036583 	4729 	0.036211
42.61 	0.035047 	4708 	0.034549
42.63 	0.035464 	4709 	0.035091
42.65 	0.036926 	4685 	0.036301
42.67 	0.039923 	4684 	0.039548
42.69 	0.038725 	4674 	0.038474
42.71 	0.038816 	4663 	0.038439
42.73 	0.036638 	4640 	0.036638
42.75 	0.039203 	4617 	0.038442
42.77 	0.038261 	4600 	0.037751
42.79 	0.038629 	4582 	0.038246
42.81 	0.040114 	4562 	0.039857
42.83 	0.039021 	4536 	0.038763
42.85 	0.035998 	4528 	0.035459
42.87 	0.040231 	4499 	0.039580
42.89 	0.038393 	4480 	0.038393
42.91 	0.039722 	4456 	0.039459
42.93 	0.039136 	4446 	0.039005
42.95 	0.038949 	4416 	0.038286
42.97 	0.037037 	4401 	0.036372
42.99 	0.034892 	4385 	0.034758
43.01 	0.039193 	4363 	0.038656
43.03 	0.037157 	4333 	0.036616
43.05 	0.036069 	4325 	0.035528
43.07 	0.037477 	4296 	0.037340
43.09 	0.040159 	4283 	0.039748
43.11 	0.039483 	4255 	0.038519
43.13 	0.040831 	4237 	0.039863
43.15 	0.039943 	4206 	0.039525
43.17 	0.036851 	4179 	0.036290
43.19 	0.043634 	4194 	0.043215
43.21 	0.033557 	4172 	0.033557
43.23 	0.042850 	4154 	0.042145
43.25 	0.038452 	4135 	0.038311
43.27 	0.035810 	4105 	0.035667
43.29 	0.037317 	4100 	0.036436
43.31 	0.040206 	4079 	0.040062
43.33 	0.031350 	4051 	0.031350
43.35 	0.039931 	4032 	0.039204
43.37 	0.042839 	4015 	0.042548
43.39 	0.035982 	4002 	0.035397
43.41 	0.039527 	3972 	0.039084
43.43 	0.035354 	3960 	0.034762
43.45 	0.036341 	3935 	0.035894
43.47 	0.034685 	3921 	0.034536
43.49 	0.036438 	3897 	0.035837
43.51 	0.036368 	3877 	0.035764
43.53 	0.040383 	3863 	0.039625
43.55 	0.036775 	2964 	0.036379
43.57 	0.037534 	2238 	0.037272
43.59 	0.034364 	1746 	0.034029
43.61 	0.033309 	1351 	0.032441
43.63 	0.051948 	1001 	0.050778
43.65 	0.024745 	687 	0.023893
43.67 	0.047809 	502 	0.047809
43.69 	0.027248 	367 	0.027248
43.71 	0.037657 	239 	0.037657
43.73 	0.033333 	120 	0.033333
43.75 	0.000000 	16 	0.000000