File: Example_Data/25SC_s1_0039.003.dat
#F C:\frames\spec\25SC_s1_0039.003
#C title =s:39 frm:3 25SC_s1
#C wavelength =0.15406

#S 1  fr_average C:\frames\spec\25SC_s1_0039.003 C:\win32app\speccom\mask.axs chi 0 180 0 360 0.02
#C 2 theta =0.000000 to 180 deg
#C   q   =0.000000 to 81.568 nm^-1
#C  chi  =0.000000 to 360 deg
#C collumns:
#C  1 position (2theta or chi in degrees)
#C  2 average intensity (sum of all counts in the region divided with number of pixels)
#C  3 Number of pixels in region)
#C  4 error (sum of sqrt(intensity) for all pixels divided by number)
#N 4
#L TTh  Int  N_pix  Err
32.99 	0.114754 	61 	0.105151
33.01 	0.060710 	873 	0.059368
33.03 	0.046729 	1391 	0.046729
33.05 	0.066591 	1757 	0.065591
33.07 	0.062439 	2050 	0.060678
33.09 	0.059225 	2347 	0.057977
33.11 	0.059713 	2579 	0.058350
33.13 	0.059792 	2793 	0.058953
33.15 	0.055352 	2999 	0.054180
33.17 	0.059044 	3201 	0.058129
33.19 	0.061341 	3342 	0.060289
33.21 	0.056752 	3436 	0.056070
33.23 	0.055067 	3523 	0.054042
33.25 	0.056478 	3612 	0.056154
33.27 	0.053994 	3630 	0.053026
33.29 	0.054825 	3648 	0.053701
33.31 	0.053552 	3660 	0.052272
33.33 	0.057786 	3686 	0.056489
33.35 	0.054954 	3694 	0.054161
33.37 	0.060312 	3714 	0.059366
33.39 	0.053097 	3729 	0.052312
33.41 	0.056684 	3740 	0.055431
33.43 	0.055304 	3761 	0.054058
33.45 	0.057249 	3773 	0.056137
33.47 	0.058978 	3798 	0.058207
33.49 	0.058808 	3809 	0.057424
33.51 	0.056881 	3815 	0.056420
33.53 	0.061182 	3841 	0.060267
33.55 	0.060370 	3843 	0.059760
33.57 	0.061130 	3877 	0.060223
33.59 	0.067268 	3880 	0.065909
33.61 	0.051420 	3909 	0.050671
33.63 	0.057413 	3919 	0.056790
33.65 	0.058509 	3931 	0.057615
33.67 	0.055134 	3954 	0.054541
33.69 	0.047053 	3953 	0.046460
33.71 	0.056604 	3975 	0.055130
33.73 	0.058691 	4004 	0.057960
33.75 	0.067517 	3999 	0.066491
33.77 	0.062857 	4025 	0.061838
33.79 	0.057659 	4041 	0.056644
33.81 	0.056711 	4038 	0.055841
33.83 	0.051111 	4050 	0.050388
33.85 	0.069285 	4099 	0.067833
33.87 	0.059596 	4111 	0.059169
33.89 	0.053628 	4121 	0.053486
33.91 	0.058568 	4149 	0.057439
33.93 	0.059745 	4151 	0.058616
33.95 	0.054054 	4181 	0.053634
33.97 	0.057041 	4190 	0.056062
33.99 	0.058333 	4200 	0.057775
34.01 	0.062901 	4213 	0.061510
34.03 	0.051131 	4244 	0.050142
34.05 	0.054327 	4252 	0.053914
34.07 	0.052484 	4268 	0.051523
34.09 	0.054363 	4286 	0.053543
34.11 	0.058113 	4302 	0.057023
34.13 	0.062210 	4308 	0.061258
34.15 	0.054491 	4331 	0.053679
34.17 	0.051954 	4350 	0.050742
34.19 	0.051582 	4362 	0.051179
34.21 	0.057881 	4371 	0.056809
34.23 	0.055315 	4393 	0.054782
34.25 	0.061762 	4404 	0.060964
34.27 	0.055857 	4422 	0.054930
34.29 	0.055693 	4435 	0.054747
34.31 	0.050695 	4458 	0.050301
34.33 	0.055692 	4471 	0.055016
34.35 	0.060437 	4484 	0.059653
34.37 	0.057226 	4491 	0.056182
34.39 	0.055975 	4502 	0.054804
34.41 	0.056783 	4526 	0.056136
34.43 	0.062569 	4539 	0.061278
34.45 	0.058214 	4535 	0.057568
34.47 	0.052918 	4592 	0.052153
34.49 	0.058081 	4597 	0.057041
34.51 	0.049718 	4606 	0.049082
34.53 	0.052983 	4643 	0.051701
34.55 	0.054060 	4643 	0.053177
34.57 	0.056009 	4660 	0.055003
34.59 	0.058396 	4675 	0.057519
34.61 	0.058548 	4697 	0.057301
34.63 	0.059236 	4710 	0.058241
34.65 	0.055709 	4721 	0.055584
34.67 	0.057583 	4741 	0.056841
34.69 	0.058267 	4754 	0.057404
34.71 	0.057071 	4766 	0.056333
34.73 	0.053060 	4787 	0.051939
34.75 	0.050749 	4808 	0.049896
34.77 	0.057078 	4818 	0.056470
34.79 	0.055141 	4824 	0.054534
34.81 	0.055934 	4845 	0.054342
34.83 	0.062937 	4862 	0.061592
34.85 	0.064695 	4869 	0.063853
34.87 	0.054232 	4868 	0.053149
34.89 	0.057558 	4882 	0.057179
34.91 	0.062270 	4882 	0.061670
34.93 	0.060829 	4899 	0.059753
34.95 	0.056646 	4890 	0.055808
34.97 	0.053244 	4902 	0.052288
34.99 	0.057995 	4897 	0.057277
35.01 	0.060126 	4923 	0.059769
35.03 	0.055837 	4943 	0.055106
35.05 	0.061249 	4947 	0.059947
35.07 	0.056478 	4940 	0.055411
35.09 	0.064607 	4953 	0.063661
35.11 	0.054174 	4947 	0.053464
35.13 	0.059500 	4958 	0.058555
35.15 	0.057120 	4937 	0.056032
35.17 	0.059644 	4946 	0.058460
35.19 	0.057264 	4942 	0.056553
35.21 	0.053994 	4945 	0.053402
35.23 	0.052983 	4945 	0.052391
35.25 	0.052397 	4943 	0.052042
35.27 	0.063258 	4948 	0.062074
35.29 	0.055005 	4945 	0.053584
35.31 	0.059599 	4933 	0.058174
35.33 	0.051588 	4943 	0.051114
35.35 	0.049777 	4942 	0.049422
35.37 	0.059526 	4939 	0.058558
35.39 	0.057230 	4945 	0.056519
35.41 	0.056841 	4926 	0.056247
35.43 	0.049666 	4933 	0.048834
35.45 	0.059145 	4937 	0.057939
35.47 	0.053133 	4931 	0.051826
35.49 	0.056212 	4910 	0.055257
35.51 	0.054405 	4926 	0.053454
35.53 	0.056981 	4949 	0.056034
35.55 	0.057230 	4945 	0.056637
35.57 	0.057369 	4933 	0.056419
35.59 	0.057027 	4945 	0.055724
35.61 	0.054027 	4942 	0.053434
35.63 	0.057860 	4943 	0.056556
35.65 	0.053387 	4945 	0.052440
35.67 	0.059288 	4942 	0.058458
35.69 	0.057622 	4946 	0.056675
35.71 	0.058132 	4937 	0.057421
35.73 	0.054700 	4936 	0.054463
35.75 	0.053742 	4931 	0.053029
35.77 	0.054534 	4951 	0.053470
35.79 	0.054339 	4932 	0.053151
35.81 	0.048044 	4933 	0.047688
35.83 	0.048928 	4946 	0.048455
35.85 	0.054509 	4935 	0.053322
35.87 	0.054438 	4923 	0.053724
35.89 	0.055128 	4934 	0.054178
35.91 	0.054800 	4927 	0.054206
35.93 	0.051959 	4927 	0.050770
35.95 	0.053488 	4917 	0.052873
35.97 	0.052321 	4912 	0.051725
35.99 	0.061348 	4939 	0.060162
36.01 	0.055578 	4930 	0.055103
36.03 	0.055230 	4943 	0.054756
36.05 	0.052174 	4945 	0.051582
36.07 	0.056692 	4939 	0.055268
36.09 	0.049393 	4940 	0.048800
36.11 	0.055386 	4929 	0.054317
36.13 	0.049373 	4942 	0.048424
36.15 	0.054060 	4939 	0.053348
36.17 	0.055838 	4925 	0.054886
36.19 	0.051417 	4940 	0.050449
36.21 	0.056401 	4929 	0.055688
36.23 	0.058359 	4935 	0.056934
36.25 	0.054645 	4941 	0.053459
36.27 	0.049543 	4925 	0.048592
36.29 	0.058812 	4931 	0.057505
36.31 	0.057833 	4928 	0.057120
36.33 	0.057774 	4933 	0.057418
36.35 	0.047271 	4929 	0.046439
36.37 	0.060126 	4923 	0.058698
36.39 	0.058118 	4921 	0.057027
36.41 	0.052696 	4896 	0.051600
36.43 	0.054789 	4928 	0.053957
36.45 	0.055578 	4930 	0.054984
36.47 	0.050041 	4936 	0.049091
36.49 	0.048361 	4942 	0.047294
36.51 	0.059599 	4933 	0.057936
36.53 	0.052802 	4943 	0.051617
36.55 	0.063122 	4927 	0.062527
36.57 	0.054925 	4934 	0.054074
36.59 	0.052440 	4939 	0.051965
36.61 	0.057595 	4931 	0.056526
36.63 	0.055161 	4931 	0.054211
36.65 	0.055556 	4932 	0.054962
36.67 	0.046045 	4930 	0.045213
36.69 	0.049706 	4929 	0.049468
36.71 	0.050803 	4921 	0.049969
36.73 	0.053604 	4925 	0.052771
36.75 	0.052994 	4944 	0.051671
36.77 	0.054279 	4919 	0.053208
36.79 	0.051412 	4921 	0.050341
36.81 	0.050651 	4916 	0.049817
36.83 	0.049237 	4915 	0.048879
36.85 	0.046958 	4898 	0.046480
36.87 	0.052994 	4944 	0.052046
36.89 	0.051668 	4916 	0.051072
36.91 	0.055252 	4941 	0.054304
36.93 	0.057404 	4930 	0.056928
36.95 	0.052706 	4933 	0.051044
36.97 	0.052898 	4934 	0.051711
36.99 	0.055522 	4935 	0.054453
37.01 	0.056355 	4933 	0.055049
37.03 	0.053412 	4924 	0.052678
37.05 	0.051350 	4927 	0.050280
37.07 	0.049037 	4935 	0.048207
37.09 	0.052151 	4928 	0.050824
37.11 	0.050253 	4935 	0.049284
37.13 	0.057067 	4924 	0.056829
37.15 	0.057038 	4909 	0.056203
37.17 	0.053101 	4934 	0.052151
37.19 	0.054010 	4925 	0.053178
37.21 	0.050437 	4917 	0.049842
37.23 	0.051647 	4918 	0.051051
37.25 	0.051721 	4911 	0.050766
37.27 	0.046792 	4894 	0.046313
37.29 	0.051521 	4930 	0.050808
37.31 	0.051874 	4935 	0.051281
37.33 	0.049320 	4927 	0.048349
37.35 	0.053058 	4938 	0.052346
37.37 	0.058453 	4927 	0.057621
37.39 	0.052728 	4931 	0.051401
37.41 	0.058000 	4931 	0.057030
37.43 	0.048662 	4932 	0.047692
37.45 	0.054224 	4924 	0.053015
37.47 	0.051126 	4929 	0.050651
37.49 	0.050173 	4923 	0.049578
37.51 	0.041760 	4933 	0.041166
37.53 	0.052246 	4919 	0.051175
37.55 	0.047667 	4930 	0.046836
37.57 	0.054010 	4925 	0.053297
37.59 	0.050865 	4915 	0.050507
37.61 	0.051605 	4922 	0.050296
37.63 	0.055092 	4919 	0.054259
37.65 	0.052054 	4918 	0.051696
37.67 	0.058931 	4904 	0.058215
37.69 	0.051245 	4898 	0.049930
37.71 	0.049706 	4929 	0.049349
37.73 	0.052140 	4929 	0.050952
37.75 	0.050810 	4940 	0.049604
37.77 	0.052846 	4920 	0.051655
37.79 	0.051927 	4930 	0.051214
37.81 	0.042368 	4933 	0.041893
37.83 	0.049390 	4920 	0.049152
37.85 	0.059122 	4922 	0.058289
37.87 	0.051630 	4939 	0.051037
37.89 	0.053401 	4925 	0.052449
37.91 	0.052130 	4930 	0.050942
37.93 	0.048994 	4919 	0.048279
37.95 	0.052835 	4921 	0.052240
37.97 	0.050314 	4929 	0.049958
37.99 	0.050081 	4912 	0.049127
38.01 	0.052760 	4928 	0.052284
38.03 	0.052149 	4909 	0.051075
38.05 	0.058680 	4925 	0.058185
38.07 	0.053779 	4909 	0.053063
38.09 	0.054941 	4878 	0.054220
38.11 	0.050253 	4935 	0.049541
38.13 	0.054081 	4937 	0.053607
38.15 	0.051037 	4918 	0.050203
38.17 	0.060446 	4930 	0.059258
38.19 	0.055172 	4930 	0.054578
38.21 	0.053626 	4923 	0.052912
38.23 	0.053058 	4938 	0.052228
38.25 	0.055115 	4917 	0.053804
38.27 	0.051724 	4930 	0.050774
38.29 	0.053818 	4924 	0.052153
38.31 	0.055815 	4927 	0.054963
38.33 	0.055240 	4924 	0.054764
38.35 	0.058847 	4928 	0.058491
38.37 	0.059098 	4924 	0.057909
38.39 	0.063149 	4909 	0.062075
38.41 	0.059313 	4923 	0.058580
38.43 	0.058177 	4916 	0.056867
38.45 	0.062017 	4918 	0.061183
38.47 	0.057469 	4907 	0.056514
38.49 	0.065409 	4877 	0.063588
38.51 	0.061030 	4932 	0.060317
38.53 	0.061067 	4929 	0.059879
38.55 	0.057131 	4936 	0.056894
38.57 	0.056876 	4923 	0.055924
38.59 	0.057271 	4924 	0.056319
38.61 	0.059562 	4936 	0.058376
38.63 	0.058692 	4924 	0.057859
38.65 	0.048597 	4918 	0.047406
38.67 	0.049018 	4937 	0.047831
38.69 	0.050589 	4922 	0.049637
38.71 	0.056661 	4924 	0.055828
38.73 	0.054697 	4918 	0.053982
38.75 	0.048711 	4927 	0.047998
38.77 	0.046110 	4923 	0.045039
38.79 	0.052696 	4934 	0.051271
38.81 	0.056393 	4912 	0.055796
38.83 	0.048384 	4919 	0.048027
38.85 	0.055578 	4912 	0.054505
38.87 	0.042150 	4911 	0.041435
38.89 	0.046355 	4897 	0.045398
38.91 	0.056496 	4903 	0.055640
38.93 	0.043540 	4938 	0.043046
38.95 	0.043310 	4918 	0.042715
38.97 	0.050902 	4931 	0.050071
38.99 	0.048613 	4937 	0.047644
39.01 	0.043920 	4918 	0.043444
39.03 	0.047223 	4934 	0.046630
39.05 	0.051371 	4925 	0.050895
39.07 	0.050975 	4924 	0.049885
39.09 	0.045094 	4923 	0.044618
39.11 	0.048266 	4931 	0.047672
39.13 	0.040829 	4923 	0.040095
39.15 	0.050458 	4915 	0.049743
39.17 	0.050233 	4937 	0.049402
39.19 	0.049624 	4917 	0.049028
39.21 	0.046843 	4910 	0.045988
39.23 	0.049746 	4925 	0.048914
39.25 	0.046729 	4922 	0.046015
39.27 	0.046232 	4910 	0.045516
39.29 	0.048562 	4901 	0.047825
39.31 	0.047502 	4884 	0.046523
39.33 	0.053944 	4931 	0.052756
39.35 	0.044174 	4935 	0.042968
39.37 	0.045242 	4929 	0.044529
39.39 	0.046663 	4929 	0.045950
39.41 	0.043805 	4931 	0.043448
39.43 	0.043179 	4933 	0.042585
39.45 	0.048934 	4925 	0.048339
39.47 	0.044282 	4923 	0.043449
39.49 	0.047233 	4933 	0.046758
39.51 	0.044273 	4924 	0.043659
39.53 	0.046516 	4923 	0.046040
39.55 	0.051230 	4919 	0.050515
39.57 	0.053112 	4933 	0.052261
39.59 	0.049674 	4912 	0.049078
39.61 	0.043469 	4923 	0.042874
39.63 	0.044697 	4922 	0.043983
39.65 	0.048518 	4926 	0.047923
39.67 	0.048850 	4913 	0.047777
39.69 	0.046989 	4916 	0.046394
39.71 	0.051277 	4895 	0.051037
39.73 	0.051345 	4908 	0.050271
39.75 	0.047484 	4928 	0.046414
39.77 	0.052280 	4935 	0.051449
39.79 	0.044255 	4926 	0.043779
39.81 	0.046682 	4927 	0.045612
39.83 	0.044183 	4934 	0.043352
39.85 	0.054394 	4927 	0.053681
39.87 	0.048731 	4925 	0.047879
39.89 	0.051480 	4934 	0.051123
39.91 	0.046119 	4922 	0.045762
39.93 	0.045169 	4937 	0.044695
39.95 	0.049644 	4915 	0.049525
39.97 	0.045657 	4928 	0.044825
39.99 	0.047445 	4932 	0.046594
40.01 	0.045954 	4918 	0.045100
40.03 	0.046469 	4928 	0.045518
40.05 	0.043929 	4917 	0.043453
40.07 	0.048345 	4923 	0.047988
40.09 	0.048210 	4916 	0.047614
40.11 	0.046176 	4916 	0.045699
40.13 	0.043505 	4896 	0.043026
40.15 	0.046815 	4913 	0.046338
40.17 	0.042411 	4928 	0.042173
40.19 	0.053155 	4929 	0.051966
40.21 	0.042351 	4935 	0.041994
40.23 	0.044809 	4932 	0.044334
40.25 	0.042480 	4920 	0.042003
40.27 	0.042536 	4937 	0.042417
40.29 	0.053582 	4927 	0.052750
40.31 	0.045758 	4939 	0.045165
40.33 	0.044404 	4932 	0.043929
40.35 	0.044521 	4919 	0.043688
40.37 	0.048286 	4929 	0.047573
40.39 	0.043805 	4931 	0.043211
40.41 	0.046091 	4925 	0.045972
40.43 	0.045510 	4922 	0.044558
40.45 	0.040949 	4933 	0.040236
40.47 	0.051444 	4918 	0.050610
40.49 	0.045879 	4926 	0.045027
40.51 	0.047542 	4922 	0.047066
40.53 	0.046989 	4916 	0.046394
40.55 	0.042991 	4908 	0.042752
40.57 	0.048466 	4890 	0.047987
40.59 	0.048613 	4937 	0.048019
40.61 	0.043972 	4935 	0.043616
40.63 	0.047059 	4930 	0.046821
40.65 	0.049018 	4937 	0.048780
40.67 	0.048256 	4932 	0.047425
40.69 	0.039498 	4937 	0.038904
40.71 	0.039740 	4932 	0.039622
40.73 	0.044052 	4926 	0.042863
40.75 	0.044210 	4931 	0.043616
40.77 	0.045151 	4939 	0.044558
40.79 	0.044476 	4924 	0.043524
40.81 	0.042704 	4941 	0.041874
40.83 	0.042817 	4928 	0.041984
40.85 	0.047725 	4924 	0.047131
40.87 	0.045657 	4928 	0.045182
40.89 	0.044007 	4931 	0.043275
40.91 	0.044688 	4923 	0.044331
40.93 	0.042967 	4934 	0.042492
40.95 	0.041726 	4913 	0.041011
40.97 	0.041227 	4924 	0.040632
40.99 	0.045898 	4924 	0.045660
41.01 	0.045195 	4912 	0.044838
41.03 	0.044037 	4905 	0.043798
41.05 	0.044773 	4936 	0.044061
41.07 	0.043205 	4930 	0.042967
41.09 	0.041304 	4939 	0.040592
41.11 	0.045593 	4935 	0.044881
41.13 	0.037075 	4936 	0.036719
41.15 	0.044728 	4941 	0.044372
41.17 	0.050669 	4934 	0.050194
41.19 	0.041582 	4930 	0.041345
41.21 	0.044561 	4937 	0.044206
41.23 	0.044138 	4939 	0.043308
41.25 	0.038516 	4933 	0.038279
41.27 	0.041979 	4931 	0.041267
41.29 	0.047078 	4928 	0.046484
41.31 	0.041151 	4933 	0.040320
41.33 	0.046992 	4937 	0.046280
41.35 	0.040907 	4938 	0.040433
41.37 	0.042648 	4924 	0.042529
41.39 	0.047436 	4933 	0.047198
41.41 	0.040398 	4926 	0.040041
41.43 	0.041185 	4929 	0.040591
41.45 	0.047416 	4914 	0.046462
41.47 	0.045270 	4926 	0.044200
41.49 	0.038226 	4892 	0.037986
41.51 	0.042713 	4940 	0.042238
41.53 	0.043892 	4944 	0.043062
41.55 	0.045187 	4935 	0.044119
41.57 	0.041287 	4941 	0.041050
41.59 	0.045408 	4933 	0.044696
41.61 	0.043004 	4953 	0.042531
41.63 	0.039085 	4938 	0.038966
41.65 	0.044634 	4929 	0.044158
41.67 	0.040486 	4940 	0.040012
41.69 	0.040024 	4947 	0.039551
41.71 	0.047223 	4934 	0.046511
41.73 	0.042342 	4936 	0.041986
41.75 	0.045648 	4929 	0.045054
41.77 	0.042704 	4941 	0.042111
41.79 	0.037419 	4944 	0.036945
41.81 	0.043963 	4936 	0.043369
41.83 	0.042208 	4928 	0.041970
41.85 	0.044746 	4939 	0.043916
41.87 	0.044377 	4935 	0.043902
41.89 	0.041557 	4933 	0.041082
41.91 	0.041126 	4936 	0.040414
41.93 	0.040754 	4932 	0.040517
41.95 	0.041574 	4931 	0.041099
41.97 	0.037851 	4914 	0.037116
41.99 	0.042813 	4905 	0.042336
42.01 	0.038648 	4942 	0.038293
42.03 	0.039887 	4939 	0.039531
42.05 	0.047254 	4952 	0.046899
42.07 	0.039498 	4937 	0.039142
42.09 	0.039006 	4948 	0.038769
42.11 	0.037209 	4945 	0.036972
42.13 	0.037816 	4945 	0.036868
42.15 	0.041515 	4938 	0.041278
42.17 	0.045344 	4918 	0.044510
42.19 	0.041972 	4908 	0.041734
42.21 	0.041624 	4901 	0.041146
42.23 	0.035568 	4892 	0.035449
42.25 	0.039067 	4889 	0.038947
42.27 	0.036110 	4874 	0.035870
42.29 	0.042566 	4863 	0.042325
42.31 	0.040165 	4855 	0.039320
42.33 	0.040132 	4834 	0.039769
42.35 	0.042166 	4838 	0.041682
42.37 	0.041201 	4830 	0.040716
42.39 	0.040799 	4804 	0.040677
42.41 	0.036428 	4804 	0.036184
42.43 	0.040484 	4792 	0.039751
42.45 	0.041248 	4776 	0.041125
42.47 	0.041133 	4765 	0.040498
42.49 	0.039244 	4765 	0.038753
42.51 	0.036686 	4743 	0.036439
42.53 	0.042301 	4728 	0.041682
42.55 	0.037596 	4708 	0.037098
42.57 	0.043129 	4730 	0.042634
42.59 	0.040601 	4729 	0.040353
42.61 	0.039295 	4708 	0.038922
42.63 	0.038862 	4709 	0.038613
42.65 	0.043330 	4685 	0.043080
42.67 	0.042058 	4684 	0.041308
42.69 	0.038725 	4674 	0.038349
42.71 	0.036028 	4663 	0.035651
42.73 	0.046552 	4640 	0.045900
42.75 	0.036171 	4617 	0.036171
42.77 	0.042609 	4600 	0.042099
42.79 	0.041903 	4582 	0.041392
42.81 	0.040991 	4562 	0.040477
42.83 	0.040344 	4536 	0.040086
42.85 	0.045936 	4528 	0.045419
42.87 	0.038453 	4499 	0.038193
42.89 	0.042188 	4480 	0.041141
42.91 	0.039273 	4456 	0.039141
42.93 	0.047009 	4446 	0.046218
42.95 	0.041214 	4416 	0.040816
42.97 	0.037946 	4401 	0.037414
42.99 	0.046294 	4385 	0.045359
43.01 	0.039652 	4363 	0.039383
43.03 	0.034387 	4333 	0.034117
43.05 	0.042312 	4325 	0.041906
43.07 	0.036778 	4296 	0.036369
43.09 	0.038057 	4283 	0.037510
43.11 	0.039718 	4255 	0.038892
43.13 	0.046495 	4237 	0.046219
43.15 	0.041369 	4206 	0.040511
43.17 	0.034937 	4179 	0.034516
43.19 	0.045303 	4194 	0.045023
43.21 	0.043624 	4172 	0.043343
43.23 	0.042128 	4154 	0.041987
43.25 	0.039661 	4135 	0.039661
43.27 	0.038490 	4105 	0.037776
43.29 	0.045610 	4100 	0.045038
43.31 	0.037754 	4079 	0.037180
43.33 	0.035547 	4051 	0.035113
43.35 	0.039931 	4032 	0.039349
43.37 	0.036115 	4015 	0.035677
43.39 	0.034983 	4002 	0.034690
43.41 	0.043303 	3972 	0.043156
43.43 	0.045202 	3960 	0.044314
43.45 	0.041423 	3935 	0.040828
43.47 	0.041826 	3921 	0.041378
43.49 	0.042340 	3897 	0.041889
43.51 	0.038174 	3877 	0.037267
43.53 	0.043231 	3863 	0.042624
43.55 	0.038462 	2964 	0.037869
43.57 	0.033065 	2238 	0.033065
43.59 	0.033219 	1746 	0.032548
43.61 	0.037750 	1351 	0.037316
43.63 	0.034965 	1001 	0.034965
43.65 	0.037846 	687 	0.037846
43.67 	0.043825 	502 	0.042658
43.69 	0.040872 	367 	0.040872
43.71 	0.029289 	239 	0.029289
43.73 	0.066667 	120 	0.066667
43.75 	0.000000 	16 	0.000000