File: Example_Data/25SC_s1_0048.001.dat
#F C:\frames\spec\25SC_s1_0048.001
#C title =s:48 frm:1 25SC_s1
#C wavelength =0.15406

#S 1  fr_average C:\frames\spec\25SC_s1_0048.001 C:\win32app\speccom\mask.axs chi 0 180 0 360 0.02
#C 2 theta =0.000000 to 180 deg
#C   q   =0.000000 to 81.568 nm^-1
#C  chi  =0.000000 to 360 deg
#C collumns:
#C  1 position (2theta or chi in degrees)
#C  2 average intensity (sum of all counts in the region divided with number of pixels)
#C  3 Number of pixels in region)
#C  4 error (sum of sqrt(intensity) for all pixels divided by number)
#N 4
#L TTh  Int  N_pix  Err
32.99 	0.032787 	61 	0.032787
33.01 	0.054983 	873 	0.054312
33.03 	0.066858 	1391 	0.065595
33.05 	0.056915 	1757 	0.056248
33.07 	0.057561 	2050 	0.056132
33.09 	0.058798 	2347 	0.057051
33.11 	0.053509 	2579 	0.052828
33.13 	0.064805 	2793 	0.063966
33.15 	0.064688 	2999 	0.063516
33.17 	0.048110 	3201 	0.047195
33.19 	0.064034 	3342 	0.063157
33.21 	0.064610 	3436 	0.062735
33.23 	0.053931 	3523 	0.053100
33.25 	0.057309 	3612 	0.056174
33.27 	0.049587 	3630 	0.049264
33.29 	0.052083 	3648 	0.051093
33.31 	0.062022 	3660 	0.061062
33.33 	0.065111 	3686 	0.063522
33.35 	0.062263 	3694 	0.061470
33.37 	0.056812 	3714 	0.056023
33.39 	0.063288 	3729 	0.062816
33.41 	0.058289 	3740 	0.057349
33.43 	0.058495 	3761 	0.058028
33.45 	0.061755 	3773 	0.060668
33.47 	0.057399 	3798 	0.056627
33.49 	0.064321 	3809 	0.063091
33.51 	0.055046 	3815 	0.054125
33.53 	0.057797 	3841 	0.057187
33.55 	0.056987 	3843 	0.056072
33.57 	0.063193 	3877 	0.061531
33.59 	0.058763 	3880 	0.057706
33.61 	0.055257 	3909 	0.054208
33.63 	0.056902 	3919 	0.056603
33.65 	0.052913 	3931 	0.051547
33.67 	0.061457 	3954 	0.059827
33.69 	0.063243 	3953 	0.062354
33.71 	0.060629 	3975 	0.059892
33.73 	0.061938 	4004 	0.060182
33.75 	0.058515 	3999 	0.057782
33.77 	0.066335 	4025 	0.065317
33.79 	0.061371 	4041 	0.059921
33.81 	0.058940 	4038 	0.057925
33.83 	0.061728 	4050 	0.061005
33.85 	0.054404 	4099 	0.053951
33.87 	0.058623 	4111 	0.058053
33.89 	0.056054 	4121 	0.054491
33.91 	0.060014 	4149 	0.058438
33.93 	0.063840 	4151 	0.062993
33.95 	0.067448 	4181 	0.066747
33.97 	0.054177 	4190 	0.052639
33.99 	0.054048 	4200 	0.052932
34.01 	0.059815 	4213 	0.058819
34.03 	0.061499 	4244 	0.060118
34.05 	0.061618 	4252 	0.060355
34.07 	0.062793 	4268 	0.061832
34.09 	0.053430 	4286 	0.053020
34.11 	0.055323 	4302 	0.054234
34.13 	0.061513 	4308 	0.060834
34.15 	0.063727 	4331 	0.062622
34.17 	0.052184 	4350 	0.051084
34.19 	0.052957 	4362 	0.051480
34.21 	0.056509 	4371 	0.055683
34.23 	0.061461 	4393 	0.060928
34.25 	0.059491 	4404 	0.058028
34.27 	0.063772 	4422 	0.062712
34.29 	0.057272 	4435 	0.056347
34.31 	0.056079 	4458 	0.055159
34.33 	0.055916 	4471 	0.054868
34.35 	0.057761 	4484 	0.056455
34.37 	0.058116 	4491 	0.056942
34.39 	0.054642 	4502 	0.053732
34.41 	0.054795 	4526 	0.053738
34.43 	0.058383 	4539 	0.056963
34.45 	0.054465 	4535 	0.053281
34.47 	0.057491 	4592 	0.056598
34.49 	0.062650 	4597 	0.061630
34.51 	0.058836 	4606 	0.057523
34.53 	0.051691 	4643 	0.050681
34.55 	0.056214 	4643 	0.054553
34.57 	0.053433 	4660 	0.053056
34.59 	0.060107 	4675 	0.058854
34.61 	0.060464 	4697 	0.059092
34.63 	0.057537 	4710 	0.056667
34.65 	0.064817 	4721 	0.063700
34.67 	0.052099 	4741 	0.051604
34.69 	0.058477 	4754 	0.057368
34.71 	0.055183 	4766 	0.054814
34.73 	0.056194 	4787 	0.054725
34.75 	0.056988 	4808 	0.056501
34.77 	0.057078 	4818 	0.056470
34.79 	0.064677 	4824 	0.063584
34.81 	0.055728 	4845 	0.054881
34.83 	0.056767 	4862 	0.056164
34.85 	0.060998 	4869 	0.060036
34.87 	0.054232 	4868 	0.053269
34.89 	0.054691 	4882 	0.053731
34.91 	0.051004 	4882 	0.049684
34.93 	0.056746 	4899 	0.055670
34.95 	0.059918 	4890 	0.058600
34.97 	0.058752 	4902 	0.057915
34.99 	0.060649 	4897 	0.059553
35.01 	0.059923 	4923 	0.058237
35.03 	0.054218 	4943 	0.053744
35.05 	0.056398 	4947 	0.056043
35.07 	0.054453 	4940 	0.053367
35.09 	0.050676 	4953 	0.049848
35.11 	0.060036 	4947 	0.059207
35.13 	0.051230 	4958 	0.050521
35.15 	0.052866 	4937 	0.052273
35.17 	0.055196 	4946 	0.054367
35.19 	0.053217 	4942 	0.052012
35.21 	0.058443 	4945 	0.057969
35.23 	0.060870 	4945 	0.059922
35.25 	0.055837 	4943 	0.054888
35.27 	0.057397 	4948 	0.056312
35.29 	0.060263 	4945 	0.059078
35.31 	0.057166 	4933 	0.056078
35.33 	0.059073 	4943 	0.058362
35.35 	0.055443 	4942 	0.054357
35.37 	0.053655 	4939 	0.053299
35.39 	0.058241 	4945 	0.057037
35.41 	0.055623 	4926 	0.054791
35.43 	0.057369 	4933 	0.055687
35.45 	0.052664 	4937 	0.051833
35.47 	0.058406 	4931 	0.057574
35.49 	0.056619 	4910 	0.055307
35.51 	0.052172 	4926 	0.051201
35.53 	0.055769 	4949 	0.054704
35.55 	0.052376 	4945 	0.051192
35.57 	0.063045 	4933 	0.061857
35.59 	0.058645 	4945 	0.057224
35.61 	0.056253 	4942 	0.055304
35.63 	0.051588 	4943 	0.050759
35.65 	0.058847 	4945 	0.058018
35.67 	0.060299 	4942 	0.059470
35.69 	0.059644 	4946 	0.058697
35.71 	0.055094 	4937 	0.054620
35.73 	0.054903 	4936 	0.053953
35.75 	0.060231 	4931 	0.058687
35.77 	0.051909 	4951 	0.051199
35.79 	0.050689 	4932 	0.050096
35.81 	0.055950 	4933 	0.055712
35.83 	0.056207 	4946 	0.055378
35.85 	0.052482 	4935 	0.051651
35.87 	0.055860 	4923 	0.054313
35.89 	0.064653 	4934 	0.062991
35.91 	0.050132 	4927 	0.049656
35.93 	0.055003 	4927 	0.054171
35.95 	0.054708 	4917 	0.053993
35.97 	0.058428 	4912 	0.057713
35.99 	0.066208 	4939 	0.065733
36.01 	0.054158 	4930 	0.053683
36.03 	0.059073 	4943 	0.058125
36.05 	0.061072 	4945 	0.060124
36.07 	0.058716 	4939 	0.057886
36.09 	0.056680 	4940 	0.055494
36.11 	0.055386 	4929 	0.054079
36.13 	0.059085 	4942 	0.058019
36.15 	0.059526 	4939 	0.057866
36.17 	0.058477 	4925 	0.057407
36.19 	0.056073 	4940 	0.054749
36.21 	0.058835 	4929 	0.058241
36.23 	0.057953 	4935 	0.056766
36.25 	0.061526 	4941 	0.059926
36.27 	0.059898 	4925 	0.059066
36.29 	0.059826 	4931 	0.058856
36.31 	0.058036 	4928 	0.056966
36.33 	0.056152 	4933 	0.055321
36.35 	0.057212 	4929 	0.056737
36.37 	0.058704 	4923 	0.057633
36.39 	0.058728 	4921 	0.057657
36.41 	0.059641 	4896 	0.058803
36.43 	0.051948 	4928 	0.051116
36.45 	0.057201 	4930 	0.055656
36.47 	0.059157 	4936 	0.058208
36.49 	0.059085 	4942 	0.058493
36.51 	0.058180 	4933 	0.057348
36.53 	0.056443 	4943 	0.055495
36.55 	0.055612 	4927 	0.054899
36.57 	0.062627 	4934 	0.062033
36.59 	0.061146 	4939 	0.060079
36.61 	0.064084 	4931 	0.063015
36.63 	0.060434 	4931 	0.059365
36.65 	0.057989 	4932 	0.056920
36.67 	0.053753 	4930 	0.052446
36.69 	0.057010 	4929 	0.056178
36.71 	0.058728 	4921 	0.057418
36.73 	0.063350 	4925 	0.062042
36.75 	0.052791 	4944 	0.052199
36.77 	0.058955 	4919 	0.058241
36.79 	0.061166 	4921 	0.059837
36.81 	0.058584 	4916 	0.057393
36.83 	0.053713 	4915 	0.053098
36.85 	0.053695 	4898 	0.052858
36.87 	0.057039 	4944 	0.056446
36.89 	0.056753 	4916 	0.055324
36.91 	0.061931 	4941 	0.061457
36.93 	0.053753 	4930 	0.053040
36.95 	0.058180 	4933 	0.057111
36.97 	0.061208 	4934 	0.060139
36.99 	0.053090 	4935 	0.052497
37.01 	0.057571 	4933 	0.056621
37.03 	0.060114 	4924 	0.059638
37.05 	0.060889 	4927 	0.060057
37.07 	0.061398 	4935 	0.060092
37.09 	0.055195 	4928 	0.054700
37.11 	0.051469 	4935 	0.050638
37.13 	0.057067 	4924 	0.055878
37.15 	0.053779 	4909 	0.053063
37.17 	0.050061 	4934 	0.049823
37.19 	0.055635 	4925 	0.054445
37.21 	0.055522 	4917 	0.054688
37.23 	0.051240 	4918 	0.050287
37.25 	0.055997 	4911 	0.055023
37.27 	0.059052 	4894 	0.057975
37.29 	0.056998 	4930 	0.056523
37.31 	0.054103 	4935 	0.053272
37.33 	0.054800 	4927 	0.053730
37.35 	0.054070 	4938 	0.052884
37.37 	0.058047 	4927 	0.056958
37.39 	0.056986 	4931 	0.056274
37.41 	0.059217 	4931 	0.058267
37.43 	0.053731 	4932 	0.052662
37.45 	0.052803 	4924 	0.051375
37.47 	0.054575 	4929 	0.053387
37.49 	0.057892 	4923 	0.056702
37.51 	0.063450 	4933 	0.062619
37.53 	0.052450 	4919 	0.051973
37.55 	0.058824 	4930 	0.057517
37.57 	0.047513 	4925 	0.046918
37.59 	0.059613 	4915 	0.058064
37.61 	0.054043 	4922 	0.053309
37.63 	0.054279 	4919 	0.053922
37.65 	0.056730 	4918 	0.054825
37.67 	0.064437 	4904 	0.063004
37.69 	0.055737 	4898 	0.055139
37.71 	0.056807 	4929 	0.056212
37.73 	0.056198 	4929 	0.055010
37.75 	0.051417 	4940 	0.050468
37.77 	0.053659 	4920 	0.052706
37.79 	0.049290 	4930 	0.048458
37.81 	0.060207 	4933 	0.059376
37.83 	0.057317 	4920 	0.056345
37.85 	0.054043 	4922 	0.053210
37.87 	0.052642 	4939 	0.051318
37.89 	0.057056 	4925 	0.056818
37.91 	0.054158 	4930 	0.053564
37.93 	0.054279 	4919 	0.053446
37.95 	0.056289 	4921 	0.054980
37.97 	0.057415 	4929 	0.056108
37.99 	0.048656 	4912 	0.047702
38.01 	0.053166 	4928 	0.052334
38.03 	0.056020 	4909 	0.055423
38.05 	0.053198 	4925 	0.052365
38.07 	0.061112 	4909 	0.059800
38.09 	0.058631 	4878 	0.057550
38.11 	0.054509 	4935 	0.053678
38.13 	0.056309 	4937 	0.055242
38.15 	0.061204 	4918 	0.060251
38.17 	0.052130 	4930 	0.051417
38.19 	0.061055 	4930 	0.060104
38.21 	0.063173 	4923 	0.061507
38.23 	0.059943 	4938 	0.058520
38.25 	0.060606 	4917 	0.059296
38.27 	0.060041 	4930 	0.059189
38.29 	0.069456 	4924 	0.067467
38.31 	0.069413 	4927 	0.068106
38.33 	0.070065 	4924 	0.068875
38.35 	0.073661 	4928 	0.071739
38.37 	0.065597 	4924 	0.064169
38.39 	0.071501 	4909 	0.070646
38.41 	0.069673 	4923 	0.068959
38.43 	0.080553 	4916 	0.078885
38.45 	0.077471 	4918 	0.075664
38.47 	0.072753 	4907 	0.071918
38.49 	0.073406 	4877 	0.071825
38.51 	0.067315 	4932 	0.066484
38.53 	0.076080 	4929 	0.074060
38.55 	0.075567 	4936 	0.074143
38.57 	0.068048 	4923 	0.067334
38.59 	0.068034 	4924 	0.066111
38.61 	0.071515 	4936 	0.069478
38.63 	0.061535 	4924 	0.060703
38.65 	0.069134 	4918 	0.067208
38.67 	0.068260 	4937 	0.066599
38.69 	0.061560 	4922 	0.060727
38.71 	0.054021 	4924 	0.053188
38.73 	0.060390 	4918 	0.059318
38.75 	0.057033 	4927 	0.056082
38.77 	0.058095 	4923 	0.057004
38.79 	0.054520 	4934 	0.053689
38.81 	0.057003 	4912 	0.056168
38.83 	0.054889 	4919 	0.053460
38.85 	0.055985 	4912 	0.055012
38.87 	0.051721 	4911 	0.050985
38.89 	0.050235 	4897 	0.049996
38.91 	0.052825 	4903 	0.052347
38.93 	0.051843 	4938 	0.050993
38.95 	0.048597 	4918 	0.048001
38.97 	0.052930 	4931 	0.051980
38.99 	0.047600 	4937 	0.047362
39.01 	0.044530 	4918 	0.044173
39.03 	0.047831 	4934 	0.047238
39.05 	0.041827 	4925 	0.040975
39.07 	0.045085 	4924 	0.044728
39.09 	0.050579 	4923 	0.049151
39.11 	0.043399 	4931 	0.043043
39.13 	0.042860 	4923 	0.042246
39.15 	0.047202 	4915 	0.046964
39.17 	0.044764 	4937 	0.044171
39.19 	0.052064 	4917 	0.051469
39.21 	0.048473 	4910 	0.047876
39.23 	0.051777 	4925 	0.051182
39.25 	0.052418 	4922 	0.051942
39.27 	0.047047 	4910 	0.046570
39.29 	0.044685 	4901 	0.044326
39.31 	0.040131 	4884 	0.039771
39.33 	0.042588 	4931 	0.042588
39.35 	0.047011 	4935 	0.046062
39.37 	0.046865 	4929 	0.046034
39.39 	0.041591 	4929 	0.040640
39.41 	0.042385 	4931 	0.041672
39.43 	0.046422 	4933 	0.045472
39.45 	0.046091 	4925 	0.045378
39.47 	0.042454 	4923 	0.041859
39.49 	0.038111 	4933 	0.038111
39.51 	0.044679 	4924 	0.044322
39.53 	0.048954 	4923 	0.048359
39.55 	0.040455 	4919 	0.040336
39.57 	0.045003 	4933 	0.044409
39.59 	0.049471 	4912 	0.048755
39.61 	0.046719 	4923 	0.046600
39.63 	0.048964 	4922 	0.048369
39.65 	0.052172 	4926 	0.050864
39.67 	0.044372 	4913 	0.043657
39.69 	0.045159 	4916 	0.044682
39.71 	0.043514 	4895 	0.042676
39.73 	0.044621 	4908 	0.044263
39.75 	0.042817 	4928 	0.042579
39.77 	0.045187 	4935 	0.044831
39.79 	0.045676 	4926 	0.045200
39.81 	0.048305 	4927 	0.047830
39.83 	0.044386 	4934 	0.043911
39.85 	0.037954 	4927 	0.037597
39.87 	0.050558 	4925 	0.049726
39.89 	0.042967 	4934 	0.042374
39.91 	0.041243 	4922 	0.040767
39.93 	0.046587 	4937 	0.045994
39.95 	0.043133 	4915 	0.042537
39.97 	0.039367 	4928 	0.039129
39.99 	0.040754 	4932 	0.040279
40.01 	0.041480 	4918 	0.041242
40.03 	0.043628 	4928 	0.042558
40.05 	0.041895 	4917 	0.041300
40.07 	0.045298 	4923 	0.044703
40.09 	0.039870 	4916 	0.039512
40.11 	0.046583 	4916 	0.045629
40.13 	0.042279 	4896 	0.041801
40.15 	0.043965 	4913 	0.043130
40.17 	0.041599 	4928 	0.041361
40.19 	0.041996 	4929 	0.041640
40.21 	0.043566 	4935 	0.042973
40.23 	0.037105 	4932 	0.036867
40.25 	0.036789 	4920 	0.036312
40.27 	0.039498 	4937 	0.039260
40.29 	0.046682 	4927 	0.045968
40.31 	0.041304 	4939 	0.040711
40.33 	0.043187 	4932 	0.042950
40.35 	0.042692 	4919 	0.042334
40.37 	0.044634 	4929 	0.043683
40.39 	0.036707 	4931 	0.036588
40.41 	0.042437 	4925 	0.041961
40.43 	0.046323 	4922 	0.045609
40.45 	0.045206 	4933 	0.044612
40.47 	0.045140 	4918 	0.044545
40.49 	0.043849 	4926 	0.043254
40.51 	0.040024 	4922 	0.039548
40.53 	0.047600 	4916 	0.047242
40.55 	0.043195 	4908 	0.042340
40.57 	0.043149 	4890 	0.042311
40.59 	0.048613 	4937 	0.047663
40.61 	0.038703 	4935 	0.038328
40.63 	0.041785 	4930 	0.041191
40.65 	0.043549 	4937 	0.042955
40.67 	0.042782 	4932 	0.042307
40.69 	0.039295 	4937 	0.038465
40.71 	0.040552 	4932 	0.039720
40.73 	0.052375 	4926 	0.051899
40.75 	0.043602 	4931 	0.042533
40.77 	0.047378 	4939 	0.046785
40.79 	0.047116 	4924 	0.046402
40.81 	0.043311 	4941 	0.042955
40.83 	0.041599 	4928 	0.041480
40.85 	0.040414 	4924 	0.040057
40.87 	0.042411 	4928 	0.042054
40.89 	0.044413 	4931 	0.044057
40.91 	0.038797 	4923 	0.038441
40.93 	0.038711 	4934 	0.038117
40.95 	0.040912 	4913 	0.040673
40.97 	0.043461 	4924 	0.042985
40.99 	0.043258 	4924 	0.042782
41.01 	0.041327 	4912 	0.040731
41.03 	0.046483 	4905 	0.046005
41.05 	0.042747 	4936 	0.042154
41.07 	0.037120 	4930 	0.036644
41.09 	0.038064 	4939 	0.037471
41.11 	0.040932 	4935 	0.040695
41.13 	0.041734 	4936 	0.040903
41.15 	0.043109 	4941 	0.042872
41.17 	0.039116 	4934 	0.038167
41.19 	0.039554 	4930 	0.038841
41.21 	0.034839 	4937 	0.034127
41.23 	0.042721 	4939 	0.042247
41.25 	0.042976 	4933 	0.042263
41.27 	0.039546 	4931 	0.038833
41.29 	0.042208 	4928 	0.041495
41.31 	0.041557 	4933 	0.041438
41.33 	0.039498 	4937 	0.039260
41.35 	0.040907 	4938 	0.040551
41.37 	0.038383 	4924 	0.038027
41.39 	0.042570 	4933 	0.042095
41.41 	0.047300 	4926 	0.046468
41.43 	0.043214 	4929 	0.042382
41.45 	0.039072 	4914 	0.038357
41.47 	0.033090 	4926 	0.032852
41.49 	0.037204 	4892 	0.036725
41.51 	0.036032 	4940 	0.035439
41.53 	0.043285 	4944 	0.042574
41.55 	0.044377 	4935 	0.044140
41.57 	0.037442 	4941 	0.037205
41.59 	0.037503 	4933 	0.037503
41.61 	0.041389 	4953 	0.041153
41.63 	0.044147 	4938 	0.043792
41.65 	0.045851 	4929 	0.045138
41.67 	0.035425 	4940 	0.035188
41.69 	0.036588 	4947 	0.036114
41.71 	0.041143 	4934 	0.040906
41.73 	0.039708 	4936 	0.039234
41.75 	0.040982 	4929 	0.040982
41.77 	0.041692 	4941 	0.041218
41.79 	0.036812 	4944 	0.036220
41.81 	0.038695 	4936 	0.038102
41.83 	0.040179 	4928 	0.040060
41.85 	0.042519 	4939 	0.041926
41.87 	0.042553 	4935 	0.042078
41.89 	0.038719 	4933 	0.038244
41.91 	0.044773 	4936 	0.044180
41.93 	0.036091 	4932 	0.035735
41.95 	0.035287 	4931 	0.035168
41.97 	0.038258 	4914 	0.037543
41.99 	0.036901 	4905 	0.036423
42.01 	0.037030 	4942 	0.036911
42.03 	0.038672 	4939 	0.038435
42.05 	0.040792 	4952 	0.040673
42.07 	0.038890 	4937 	0.038534
42.09 	0.038804 	4948 	0.038567
42.11 	0.037007 	4945 	0.036415
42.13 	0.042265 	4945 	0.041673
42.15 	0.036857 	4938 	0.036620
42.17 	0.040260 	4918 	0.039784
42.19 	0.039731 	4908 	0.039373
42.21 	0.037747 	4901 	0.037508
42.23 	0.035568 	4892 	0.034850
42.25 	0.032317 	4889 	0.031718
42.27 	0.037546 	4874 	0.037426
42.29 	0.033518 	4863 	0.033518
42.31 	0.037899 	4855 	0.037416
42.33 	0.038064 	4834 	0.037821
42.35 	0.037205 	4838 	0.036721
42.37 	0.037888 	4830 	0.037646
42.39 	0.034555 	4804 	0.034189
42.41 	0.038926 	4804 	0.038316
42.43 	0.040693 	4792 	0.040448
42.45 	0.035385 	4776 	0.035140
42.47 	0.038615 	4765 	0.038000
42.49 	0.041973 	4765 	0.041727
42.51 	0.039427 	4743 	0.039303
42.53 	0.043782 	4728 	0.043038
42.55 	0.037171 	4708 	0.036922
42.57 	0.040592 	4730 	0.040220
42.59 	0.038697 	4729 	0.038450
42.61 	0.039082 	4708 	0.038958
42.63 	0.041410 	4709 	0.040290
42.65 	0.032657 	4685 	0.032407
42.67 	0.035653 	4684 	0.035403
42.69 	0.037227 	4674 	0.036851
42.71 	0.035385 	4663 	0.035259
42.73 	0.035560 	4640 	0.035182
42.75 	0.041585 	4617 	0.040951
42.77 	0.039130 	4600 	0.039003
42.79 	0.035137 	4582 	0.035010
42.81 	0.040552 	4562 	0.040039
42.83 	0.039903 	4536 	0.039774
42.85 	0.038428 	4528 	0.037910
42.87 	0.034452 	4499 	0.034192
42.89 	0.032366 	4480 	0.031712
42.91 	0.036131 	4456 	0.035737
42.93 	0.039811 	4446 	0.039548
42.95 	0.042799 	4416 	0.042003
42.97 	0.041809 	4401 	0.041143
42.99 	0.036032 	4385 	0.035765
43.01 	0.036901 	4363 	0.036364
43.03 	0.036003 	4333 	0.035192
43.05 	0.037457 	4325 	0.037321
43.07 	0.039804 	4296 	0.039237
43.09 	0.039458 	4283 	0.038911
43.11 	0.035488 	4255 	0.034249
43.13 	0.038471 	4237 	0.037918
43.15 	0.039943 	4206 	0.039386
43.17 	0.036612 	4179 	0.035771
43.19 	0.036719 	4194 	0.036300
43.21 	0.034036 	4172 	0.033615
43.23 	0.040443 	4154 	0.040020
43.25 	0.037485 	4135 	0.037202
43.27 	0.032400 	4105 	0.032400
43.29 	0.036829 	4100 	0.036258
43.31 	0.032361 	4079 	0.031786
43.33 	0.036287 	4051 	0.035998
43.35 	0.033978 	4032 	0.033542
43.37 	0.038356 	4015 	0.037773
43.39 	0.034733 	4002 	0.034294
43.41 	0.040282 	3972 	0.039692
43.43 	0.036869 	3960 	0.036721
43.45 	0.039644 	3935 	0.038602
43.47 	0.034685 	3921 	0.034386
43.49 	0.038491 	3897 	0.037890
43.51 	0.035337 	3877 	0.035186
43.53 	0.037794 	3863 	0.037188
43.55 	0.038462 	2964 	0.038264
43.57 	0.032618 	2238 	0.032095
43.59 	0.036082 	1746 	0.035076
43.61 	0.034789 	1351 	0.034355
43.63 	0.042957 	1001 	0.042957
43.65 	0.029112 	687 	0.029112
43.67 	0.045817 	502 	0.044650
43.69 	0.027248 	367 	0.027248
43.71 	0.037657 	239 	0.037657
43.73 	0.033333 	120 	0.033333
43.75 	0.000000 	16 	0.000000