File: Example_Data/25SC_s1_0003.004.dat
#F C:\frames\spec\25SC_s1_0003.004
#C title =s:3 frm:4 25SC_s1
#C wavelength =0.15406

#S 1  fr_average C:\frames\spec\25SC_s1_0003.004 C:\win32app\speccom\mask.axs chi 0 180 0 360 0.02
#C 2 theta =0.000000 to 180 deg
#C   q   =0.000000 to 81.568 nm^-1
#C  chi  =0.000000 to 360 deg
#C collumns:
#C  1 position (2theta or chi in degrees)
#C  2 average intensity (sum of all counts in the region divided with number of pixels)
#C  3 Number of pixels in region)
#C  4 error (sum of sqrt(intensity) for all pixels divided by number)
#N 4
#L TTh  Int  N_pix  Err
32.99 	0.114754 	61 	0.114754
33.01 	0.048110 	873 	0.047439
33.03 	0.060388 	1391 	0.058704
33.05 	0.051793 	1757 	0.051126
33.07 	0.062439 	2050 	0.061868
33.09 	0.052833 	2347 	0.051835
33.11 	0.061652 	2579 	0.060479
33.13 	0.063373 	2793 	0.062290
33.15 	0.063354 	2999 	0.062182
33.17 	0.051859 	3201 	0.051859
33.19 	0.056254 	3342 	0.055699
33.21 	0.058498 	3436 	0.058328
33.23 	0.052512 	3523 	0.052512
33.25 	0.059247 	3612 	0.058598
33.27 	0.056198 	3630 	0.055876
33.29 	0.064145 	3648 	0.062860
33.31 	0.068579 	3660 	0.067139
33.33 	0.056430 	3686 	0.055476
33.35 	0.059015 	3694 	0.058063
33.37 	0.057081 	3714 	0.055977
33.39 	0.055511 	3729 	0.054097
33.41 	0.059893 	3740 	0.059110
33.43 	0.065674 	3761 	0.064428
33.45 	0.062550 	3773 	0.061437
33.47 	0.053712 	3798 	0.052453
33.49 	0.060121 	3809 	0.059352
33.51 	0.062910 	3815 	0.061528
33.53 	0.061963 	3841 	0.060743
33.55 	0.054905 	3843 	0.054448
33.57 	0.060872 	3877 	0.060267
33.59 	0.061598 	3880 	0.061145
33.61 	0.061908 	3909 	0.060859
33.63 	0.055116 	3919 	0.053920
33.65 	0.060290 	3931 	0.059843
33.67 	0.060445 	3954 	0.058791
33.69 	0.059196 	3953 	0.058603
33.71 	0.055346 	3975 	0.054314
33.73 	0.064685 	4004 	0.063954
33.75 	0.059765 	3999 	0.058593
33.77 	0.055404 	4025 	0.054531
33.79 	0.069042 	4041 	0.067593
33.81 	0.064141 	4038 	0.062835
33.83 	0.062963 	4050 	0.061806
33.85 	0.059771 	4099 	0.059056
33.87 	0.062029 	4111 	0.061174
33.89 	0.059452 	4121 	0.058172
33.91 	0.065558 	4149 	0.064570
33.93 	0.061190 	4151 	0.060343
33.95 	0.065774 	4181 	0.064513
33.97 	0.056325 	4190 	0.055486
33.99 	0.060714 	4200 	0.059738
34.01 	0.057916 	4213 	0.056387
34.03 	0.066918 	4244 	0.065262
34.05 	0.060442 	4252 	0.059340
34.07 	0.062324 	4268 	0.060815
34.09 	0.064862 	4286 	0.063883
34.11 	0.065551 	4302 	0.063758
34.13 	0.066620 	4308 	0.065238
34.15 	0.057954 	4331 	0.056872
34.17 	0.063678 	4350 	0.062466
34.19 	0.063044 	4362 	0.062104
34.21 	0.058110 	4371 	0.057708
34.23 	0.065559 	4393 	0.064225
34.25 	0.060627 	4404 	0.059696
34.27 	0.054274 	4422 	0.053347
34.29 	0.056595 	4435 	0.055142
34.31 	0.063257 	4458 	0.062469
34.33 	0.061060 	4471 	0.060012
34.35 	0.064005 	4484 	0.062438
34.37 	0.063015 	4491 	0.061319
34.39 	0.065971 	4502 	0.065060
34.41 	0.056120 	4526 	0.055214
34.43 	0.061247 	4539 	0.060344
34.45 	0.061522 	4535 	0.060746
34.47 	0.056838 	4592 	0.055414
34.49 	0.058734 	4597 	0.057694
34.51 	0.059705 	4606 	0.058687
34.53 	0.059229 	4643 	0.058850
34.55 	0.060306 	4643 	0.059549
34.57 	0.062876 	4660 	0.061618
34.59 	0.064599 	4675 	0.063701
34.61 	0.063019 	4697 	0.061897
34.63 	0.063057 	4710 	0.061669
34.65 	0.061639 	4721 	0.059778
34.67 	0.055052 	4741 	0.053816
34.69 	0.062053 	4754 	0.060451
34.71 	0.051825 	4766 	0.051211
34.73 	0.064550 	4787 	0.062959
34.75 	0.051581 	4808 	0.051093
34.77 	0.064342 	4818 	0.063126
34.79 	0.058665 	4824 	0.057815
34.81 	0.062745 	4845 	0.061052
34.83 	0.056767 	4862 	0.055682
34.85 	0.064079 	4869 	0.062836
34.87 	0.064092 	4868 	0.062768
34.89 	0.058173 	4882 	0.057333
34.91 	0.058992 	4882 	0.057792
34.93 	0.060420 	4899 	0.058986
34.95 	0.062577 	4890 	0.061019
34.97 	0.060180 	4902 	0.058826
34.99 	0.061670 	4897 	0.060833
35.01 	0.058298 	4923 	0.057584
35.03 	0.065547 	4943 	0.063632
35.05 	0.064484 	4947 	0.063655
35.07 	0.064372 	4940 	0.063780
35.09 	0.060367 	4953 	0.059421
35.11 	0.060845 	4947 	0.059424
35.13 	0.063534 	4958 	0.061761
35.15 	0.060361 	4937 	0.059174
35.17 	0.064901 	4946 	0.063835
35.19 	0.062323 	4942 	0.061000
35.21 	0.051567 	4945 	0.050856
35.23 	0.061476 	4945 	0.060292
35.25 	0.055837 	4943 	0.054888
35.27 	0.061035 	4948 	0.060324
35.29 	0.058241 	4945 	0.057175
35.31 	0.055950 	4933 	0.055356
35.33 	0.062108 	4943 	0.061022
35.35 	0.060299 	4942 	0.059233
35.37 	0.063981 	4939 	0.062202
35.39 	0.068150 	4945 	0.066728
35.41 	0.061307 	4926 	0.060118
35.43 	0.063856 	4933 	0.062767
35.45 	0.065627 	4937 	0.064796
35.47 	0.065504 	4931 	0.064178
35.49 	0.066191 	4910 	0.064879
35.51 	0.057247 	4926 	0.056177
35.53 	0.062235 	4949 	0.060814
35.55 	0.057432 	4945 	0.056247
35.57 	0.066694 	4933 	0.065031
35.59 	0.062892 	4945 	0.061352
35.61 	0.059490 	4942 	0.058423
35.63 	0.067975 	4943 	0.067382
35.65 	0.059858 	4945 	0.058674
35.67 	0.063739 	4942 	0.062554
35.69 	0.065710 	4946 	0.064624
35.71 	0.054284 	4937 	0.053572
35.73 	0.059360 	4936 	0.058885
35.75 	0.058000 	4931 	0.056812
35.77 	0.061402 	4951 	0.060455
35.79 	0.067315 	4932 	0.065633
35.81 	0.059599 	4933 	0.058767
35.83 	0.060453 	4946 	0.059624
35.85 	0.063425 	4935 	0.061981
35.87 	0.066423 	4923 	0.065709
35.89 	0.057560 	4934 	0.057204
35.91 	0.066166 	4927 	0.063907
35.93 	0.065151 	4927 	0.063824
35.95 	0.064267 	4917 	0.063075
35.97 	0.062907 	4912 	0.061953
35.99 	0.065398 	4939 	0.064093
36.01 	0.061055 	4930 	0.060104
36.03 	0.062310 	4943 	0.059940
36.05 	0.063498 	4945 	0.062077
36.07 	0.059526 	4939 	0.058815
36.09 	0.062348 	4940 	0.060787
36.11 	0.063502 	4929 	0.062670
36.13 	0.057264 	4942 	0.056553
36.15 	0.061551 	4939 	0.060602
36.17 	0.063350 	4925 	0.062518
36.19 	0.061538 	4940 	0.060215
36.21 	0.064110 	4929 	0.062803
36.23 	0.061803 	4935 	0.060616
36.25 	0.056871 	4941 	0.055903
36.27 	0.062538 	4925 	0.061468
36.29 	0.062868 	4931 	0.061541
36.31 	0.062094 	4928 	0.060629
36.33 	0.059193 	4933 	0.058599
36.35 	0.058430 	4929 	0.057360
36.37 	0.061345 	4923 	0.060274
36.39 	0.066247 	4921 	0.065294
36.41 	0.058007 	4896 	0.056092
36.43 	0.063718 	4928 	0.062410
36.45 	0.063692 	4930 	0.062503
36.47 	0.055308 	4936 	0.054240
36.49 	0.052206 	4942 	0.051731
36.51 	0.060409 	4933 	0.058985
36.53 	0.058264 	4943 	0.057435
36.55 	0.065557 	4927 	0.063893
36.57 	0.059789 	4934 	0.057851
36.59 	0.060539 	4939 	0.059353
36.61 	0.055972 	4931 	0.055497
36.63 	0.058812 	4931 	0.057485
36.65 	0.059002 	4932 	0.058527
36.67 	0.055578 	4930 	0.055103
36.69 	0.055995 	4929 	0.055401
36.71 	0.064011 	4921 	0.062702
36.73 	0.060914 	4925 	0.059724
36.75 	0.064320 	4944 	0.063017
36.77 	0.056719 	4919 	0.055409
36.79 	0.062995 	4921 	0.061666
36.81 	0.060212 	4916 	0.058782
36.83 	0.061445 	4915 	0.059518
36.85 	0.062270 	4898 	0.061553
36.87 	0.057039 	4944 	0.055736
36.89 	0.055533 	4916 	0.054699
36.91 	0.062943 	4941 	0.061994
36.93 	0.062475 	4930 	0.061405
36.95 	0.064058 	4933 	0.062703
36.97 	0.066477 	4934 	0.064578
36.99 	0.056535 	4935 	0.055585
37.01 	0.058382 	4933 	0.057670
37.03 	0.060926 	4924 	0.059855
37.05 	0.056627 	4927 	0.055676
37.07 	0.063019 	4935 	0.061832
37.09 	0.065747 	4928 	0.063964
37.11 	0.063425 	4935 	0.063068
37.13 	0.054224 	4924 	0.053986
37.15 	0.057649 	4909 	0.056914
37.17 	0.059181 	4934 	0.057994
37.19 	0.054619 	4925 	0.053410
37.21 	0.060199 	4917 	0.059485
37.23 	0.060797 	4918 	0.059844
37.25 	0.058644 	4911 	0.058167
37.27 	0.059461 	4894 	0.058503
37.29 	0.060243 	4930 	0.059412
37.31 	0.052888 	4935 	0.051938
37.33 	0.061904 	4927 	0.060814
37.35 	0.059943 	4938 	0.058994
37.37 	0.053988 	4927 	0.053394
37.39 	0.060840 	4931 	0.059770
37.41 	0.058609 	4931 	0.058015
37.43 	0.057380 	4932 	0.056905
37.45 	0.049553 	4924 	0.048601
37.47 	0.053966 	4929 	0.052897
37.49 	0.059110 	4923 	0.057563
37.51 	0.058788 	4933 	0.057600
37.53 	0.053669 	4919 	0.052955
37.55 	0.054767 	4930 	0.054054
37.57 	0.063959 	4925 	0.063365
37.59 	0.061648 	4915 	0.060933
37.61 	0.060341 	4922 	0.058913
37.63 	0.063428 	4919 	0.062832
37.65 	0.059577 	4918 	0.059339
37.67 	0.060155 	4904 	0.059199
37.69 	0.054104 	4898 	0.053625
37.71 	0.056401 	4929 	0.055569
37.73 	0.056604 	4929 	0.056128
37.75 	0.056680 	4940 	0.056443
37.77 	0.058130 	4920 	0.056701
37.79 	0.051318 	4930 	0.050487
37.81 	0.060612 	4933 	0.059543
37.83 	0.058130 	4920 	0.056939
37.85 	0.057091 	4922 	0.056019
37.87 	0.060741 	4939 	0.059318
37.89 	0.061320 	4925 	0.060130
37.91 	0.053347 	4930 	0.052396
37.93 	0.048790 	4919 	0.047838
37.95 	0.056696 	4921 	0.055743
37.97 	0.053561 	4929 	0.052729
37.99 	0.055782 	4912 	0.054331
38.01 	0.057427 	4928 	0.056833
38.03 	0.063760 	4909 	0.062806
38.05 	0.059289 	4925 	0.058199
38.07 	0.056020 	4909 	0.054826
38.09 	0.055966 	4878 	0.055125
38.11 	0.060588 	4935 	0.059045
38.13 	0.062994 	4937 	0.062163
38.15 	0.061204 	4918 	0.060469
38.17 	0.055984 	4930 	0.055627
38.19 	0.062069 	4930 	0.061118
38.21 	0.062563 	4923 	0.061374
38.23 	0.057311 	4938 	0.056243
38.25 	0.063453 	4917 	0.062024
38.27 	0.065720 	4930 	0.064770
38.29 	0.062551 	4924 	0.061480
38.31 	0.065963 	4927 	0.065111
38.33 	0.067831 	4924 	0.066622
38.35 	0.065544 	4928 	0.064831
38.37 	0.071690 	4924 	0.069786
38.39 	0.060297 	4909 	0.059223
38.41 	0.062970 	4923 	0.061185
38.43 	0.067535 	4916 	0.066343
38.45 	0.064254 	4918 	0.063063
38.47 	0.064602 	4907 	0.063269
38.49 	0.070945 	4877 	0.069384
38.51 	0.074818 	4932 	0.073016
38.53 	0.072226 	4929 	0.070562
38.55 	0.070908 	4936 	0.068851
38.57 	0.062767 	4923 	0.062053
38.59 	0.061332 	4924 	0.060618
38.61 	0.067869 	4936 	0.066188
38.63 	0.069253 	4924 	0.067330
38.65 	0.066287 	4918 	0.065096
38.67 	0.062589 	4937 	0.060908
38.69 	0.057091 	4922 	0.055881
38.71 	0.067628 	4924 	0.065705
38.73 	0.059170 	4918 	0.058317
38.75 	0.058047 	4927 	0.057334
38.77 	0.062563 	4923 	0.061493
38.79 	0.050872 	4934 	0.050159
38.81 	0.061889 	4912 	0.060916
38.83 	0.061598 	4919 	0.060645
38.85 	0.061075 	4912 	0.060598
38.87 	0.056200 	4911 	0.055604
38.89 	0.059424 	4897 	0.058567
38.91 	0.056700 	4903 	0.055864
38.93 	0.054475 	4938 	0.053764
38.95 	0.057544 	4918 	0.056234
38.97 	0.053539 	4931 	0.053064
38.99 	0.052461 	4937 	0.051986
39.01 	0.054697 	4918 	0.054340
39.03 	0.052290 	4934 	0.051578
39.05 	0.049543 	4925 	0.049067
39.07 	0.050569 	4924 	0.049716
39.09 	0.058501 	4923 	0.057430
39.11 	0.050091 	4931 	0.049497
39.13 	0.054438 	4923 	0.053724
39.15 	0.056968 	4915 	0.056253
39.17 	0.051853 	4937 	0.051379
39.19 	0.056742 	4917 	0.055908
39.21 	0.058045 	4910 	0.057090
39.23 	0.057259 	4925 	0.056069
39.25 	0.054043 	4922 	0.052972
39.27 	0.052749 	4910 	0.051676
39.29 	0.056315 	4901 	0.055717
39.31 	0.055692 	4884 	0.055092
39.33 	0.058203 	4931 	0.057134
39.35 	0.057548 	4935 	0.056480
39.37 	0.054169 	4929 	0.053694
39.39 	0.055792 	4929 	0.055198
39.41 	0.050294 	4931 	0.049700
39.43 	0.057571 	4933 	0.056859
39.45 	0.056650 	4925 	0.055579
39.47 	0.056267 	4923 	0.055315
39.49 	0.052504 	4933 	0.051910
39.51 	0.059301 	4924 	0.058350
39.53 	0.057282 	4923 	0.056330
39.55 	0.053669 	4919 	0.053074
39.57 	0.058788 	4933 	0.057482
39.59 	0.060668 	4912 	0.059475
39.61 	0.055048 	4923 	0.054195
39.63 	0.060951 	4922 	0.060237
39.65 	0.057450 	4926 	0.056856
39.67 	0.058416 	4913 	0.057343
39.69 	0.056753 	4916 	0.055562
39.71 	0.055567 	4895 	0.054849
39.73 	0.061532 	4908 	0.060935
39.75 	0.066964 	4928 	0.065300
39.77 	0.057953 	4935 	0.057360
39.79 	0.062728 	4926 	0.062015
39.81 	0.056018 	4927 	0.054829
39.83 	0.061816 	4934 	0.060629
39.85 	0.059468 	4927 	0.058636
39.87 	0.060508 	4925 	0.059794
39.89 	0.056546 	4934 	0.055715
39.91 	0.056278 	4922 	0.055207
39.93 	0.055499 	4937 	0.054787
39.95 	0.059003 	4915 	0.057573
39.97 	0.062094 	4928 	0.061381
39.99 	0.059205 	4932 	0.058611
40.01 	0.046970 	4918 	0.046613
40.03 	0.055398 	4928 	0.054803
40.05 	0.058369 	4917 	0.057535
40.07 	0.054641 	4923 	0.054285
40.09 	0.058788 	4916 	0.057834
40.11 	0.052075 	4916 	0.051479
40.13 	0.054943 	4896 	0.053866
40.15 	0.053939 	4913 	0.053342
40.17 	0.053369 	4928 	0.052180
40.19 	0.058227 	4929 	0.057633
40.21 	0.055117 	4935 	0.054286
40.23 	0.056569 	4932 	0.055857
40.25 	0.050813 	4920 	0.050218
40.27 	0.055094 	4937 	0.053908
40.29 	0.045464 	4927 	0.044869
40.31 	0.053452 	4939 	0.052503
40.33 	0.060016 	4932 	0.059660
40.35 	0.053873 	4919 	0.053277
40.37 	0.059038 	4929 	0.057493
40.39 	0.054958 	4931 	0.054246
40.41 	0.049949 	4925 	0.049355
40.43 	0.046729 	4922 	0.045777
40.45 	0.048652 	4933 	0.048177
40.47 	0.053274 	4918 	0.052678
40.49 	0.056841 	4926 	0.056009
40.51 	0.052215 	4922 	0.050905
40.53 	0.057364 	4916 	0.055934
40.55 	0.052975 	4908 	0.052378
40.57 	0.056237 	4890 	0.054920
40.59 	0.053069 	4937 	0.052713
40.61 	0.051064 	4935 	0.049996
40.63 	0.055984 	4930 	0.055508
40.65 	0.051853 	4937 	0.051023
40.67 	0.052514 	4932 	0.051683
40.69 	0.050841 	4937 	0.050485
40.71 	0.050081 	4932 	0.049606
40.73 	0.052578 	4926 	0.052102
40.75 	0.057392 	4931 	0.056679
40.77 	0.048795 	4939 	0.048321
40.79 	0.063363 	4924 	0.061936
40.81 	0.060312 	4941 	0.059245
40.83 	0.052354 	4928 	0.051403
40.85 	0.053412 	4924 	0.052579
40.87 	0.048093 	4928 	0.047498
40.89 	0.049483 	4931 	0.049008
40.91 	0.052407 	4923 	0.051812
40.93 	0.046007 	4934 	0.045651
40.95 	0.052310 	4913 	0.051595
40.97 	0.054630 	4924 	0.053322
40.99 	0.055849 	4924 	0.054421
41.01 	0.053950 	4912 	0.053234
41.03 	0.054638 	4905 	0.053683
41.05 	0.051053 	4936 	0.050341
41.07 	0.053753 	4930 	0.053396
41.09 	0.056894 	4939 	0.055827
41.11 	0.054914 	4935 	0.054558
41.13 	0.054700 	4936 	0.053395
41.15 	0.063955 	4941 	0.063342
41.17 	0.052696 	4934 	0.051983
41.19 	0.051318 	4930 	0.050606
41.21 	0.058132 	4937 	0.057302
41.23 	0.048593 	4939 	0.047644
41.25 	0.054531 	4933 	0.053224
41.27 	0.059217 	4931 	0.058504
41.29 	0.046266 	4928 	0.045553
41.31 	0.055950 	4933 	0.054762
41.33 	0.057525 	4937 	0.056338
41.35 	0.051235 	4938 	0.050761
41.37 	0.047522 	4924 	0.046690
41.39 	0.052909 	4933 	0.052196
41.41 	0.052172 	4926 	0.050745
41.43 	0.052343 	4929 	0.051987
41.45 	0.050468 	4914 	0.049395
41.47 	0.056841 	4926 	0.055771
41.49 	0.052126 	4892 	0.051407
41.51 	0.053036 	4940 	0.052206
41.53 	0.055421 	4944 	0.054453
41.55 	0.056130 	4935 	0.055774
41.57 	0.056669 	4941 	0.055246
41.59 	0.050679 	4933 	0.050085
41.61 	0.048052 	4953 	0.047815
41.63 	0.049818 	4938 	0.048869
41.65 	0.051329 	4929 	0.050853
41.67 	0.052429 	4940 	0.051836
41.69 	0.049929 	4947 	0.049456
41.71 	0.054722 	4934 	0.054129
41.73 	0.051864 	4936 	0.051132
41.75 	0.052749 	4929 	0.052036
41.77 	0.042502 	4941 	0.042027
41.79 	0.050769 	4944 	0.049801
41.81 	0.050041 	4936 	0.048735
41.83 	0.051339 	4928 	0.050983
41.85 	0.051427 	4939 	0.050360
41.87 	0.054306 	4935 	0.053356
41.89 	0.053923 	4933 	0.053091
41.91 	0.050243 	4936 	0.050006
41.93 	0.053933 	4932 	0.053102
41.95 	0.054350 	4931 	0.053994
41.97 	0.046805 	4914 	0.046090
41.99 	0.047095 	4905 	0.046139
42.01 	0.052003 	4942 	0.050936
42.03 	0.050415 	4939 	0.049684
42.05 	0.048869 	4952 	0.048514
42.07 	0.050638 	4937 	0.050045
42.09 	0.049717 	4948 	0.049125
42.11 	0.053994 	4945 	0.053046
42.13 	0.057230 	4945 	0.056519
42.15 	0.047995 	4938 	0.047521
42.17 	0.049207 	4918 	0.048850
42.19 	0.048492 	4908 	0.047518
42.21 	0.051622 	4901 	0.051025
42.23 	0.049877 	4892 	0.049398
42.25 	0.046022 	4889 	0.045542
42.27 	0.050267 	4874 	0.049646
42.29 	0.049558 	4863 	0.049317
42.31 	0.054171 	4855 	0.053447
42.33 	0.045304 	4834 	0.044819
42.35 	0.053328 	4838 	0.052722
42.37 	0.053209 	4830 	0.052481
42.39 	0.045171 	4804 	0.044439
42.41 	0.047252 	4804 	0.046521
42.43 	0.047162 	4792 	0.046673
42.45 	0.051298 	4776 	0.050562
42.47 	0.048269 	4765 	0.047162
42.49 	0.053725 	4765 	0.052865
42.51 	0.051866 	4743 	0.050878
42.53 	0.046108 	4728 	0.044869
42.55 	0.049065 	4708 	0.048692
42.57 	0.042495 	4730 	0.042123
42.59 	0.051597 	4729 	0.050606
42.61 	0.049703 	4708 	0.048583
42.63 	0.050966 	4709 	0.050469
42.65 	0.047172 	4685 	0.046672
42.67 	0.049744 	4684 	0.049119
42.69 	0.047069 	4674 	0.046442
42.71 	0.049753 	4663 	0.048748
42.73 	0.049569 	4640 	0.049443
42.75 	0.047867 	4617 	0.047105
42.77 	0.053478 	4600 	0.052077
42.79 	0.045177 	4582 	0.044261
42.81 	0.048882 	4562 	0.048240
42.83 	0.046076 	4536 	0.045818
42.85 	0.051237 	4528 	0.050461
42.87 	0.047566 	4499 	0.046915
42.89 	0.051786 	4480 	0.050870
42.91 	0.046454 	4456 	0.045797
42.93 	0.045209 	4446 	0.044287
42.95 	0.047781 	4416 	0.046985
42.97 	0.048625 	4401 	0.047294
42.99 	0.046522 	4385 	0.045854
43.01 	0.047903 	4363 	0.047366
43.03 	0.055158 	4333 	0.054617
43.05 	0.045780 	4325 	0.045103
43.07 	0.052840 	4296 	0.052158
43.09 	0.043428 	4283 	0.042880
43.11 	0.046298 	4255 	0.045610
43.13 	0.049799 	4237 	0.049108
43.15 	0.048264 	4206 	0.047568
43.17 	0.047380 	4179 	0.047099
43.19 	0.051741 	4194 	0.050763
43.21 	0.053931 	4172 	0.053650
43.23 	0.048628 	4154 	0.047476
43.25 	0.045949 	4135 	0.045383
43.27 	0.052862 	4105 	0.052006
43.29 	0.050976 	4100 	0.050690
43.31 	0.040941 	4079 	0.040080
43.33 	0.053814 	4051 	0.052802
43.35 	0.051339 	4032 	0.050903
43.37 	0.044832 	4015 	0.044394
43.39 	0.050725 	4002 	0.049554
43.41 	0.049849 	3972 	0.049112
43.43 	0.052273 	3960 	0.051361
43.45 	0.042186 	3935 	0.042037
43.47 	0.045652 	3921 	0.044755
43.49 	0.047986 	3897 	0.047535
43.51 	0.048491 	3877 	0.047282
43.53 	0.044784 	3863 	0.044177
43.55 	0.051957 	2964 	0.051562
43.57 	0.040661 	2238 	0.040400
43.59 	0.045819 	1746 	0.045148
43.61 	0.048113 	1351 	0.047679
43.63 	0.055944 	1001 	0.055944
43.65 	0.040757 	687 	0.039052
43.67 	0.033865 	502 	0.033865
43.69 	0.057221 	367 	0.057221
43.71 	0.046025 	239 	0.043574
43.73 	0.033333 	120 	0.028452
43.75 	0.062500 	16 	0.062500