File: Example_Data/25SC_s1_0036.003.dat
#F C:\frames\spec\25SC_s1_0036.003
#C title =s:36 frm:3 25SC_s1
#C wavelength =0.15406

#S 1  fr_average C:\frames\spec\25SC_s1_0036.003 C:\win32app\speccom\mask.axs chi 0 180 0 360 0.02
#C 2 theta =0.000000 to 180 deg
#C   q   =0.000000 to 81.568 nm^-1
#C  chi  =0.000000 to 360 deg
#C collumns:
#C  1 position (2theta or chi in degrees)
#C  2 average intensity (sum of all counts in the region divided with number of pixels)
#C  3 Number of pixels in region)
#C  4 error (sum of sqrt(intensity) for all pixels divided by number)
#N 4
#L TTh  Int  N_pix  Err
32.99 	0.049180 	61 	0.049180
33.01 	0.049255 	873 	0.048584
33.03 	0.063264 	1391 	0.061158
33.05 	0.061468 	1757 	0.059801
33.07 	0.059024 	2050 	0.057596
33.09 	0.049851 	2347 	0.049352
33.11 	0.063978 	2579 	0.063070
33.13 	0.071966 	2793 	0.070707
33.15 	0.059020 	2999 	0.057652
33.17 	0.057794 	3201 	0.056513
33.19 	0.052065 	3342 	0.051364
33.21 	0.058789 	3436 	0.057568
33.23 	0.052796 	3523 	0.051632
33.25 	0.052326 	3612 	0.051190
33.27 	0.060331 	3630 	0.059846
33.29 	0.063322 	3648 	0.062841
33.31 	0.059836 	3660 	0.058876
33.33 	0.058058 	3686 	0.057263
33.35 	0.062534 	3694 	0.061398
33.37 	0.056274 	3714 	0.055012
33.39 	0.054975 	3729 	0.054189
33.41 	0.052674 	3740 	0.051734
33.43 	0.054241 	3761 	0.053462
33.45 	0.053273 	3773 	0.052342
33.47 	0.062928 	3798 	0.061823
33.49 	0.057495 	3809 	0.056111
33.51 	0.064220 	3815 	0.063606
33.53 	0.064827 	3841 	0.063149
33.55 	0.060890 	3843 	0.059975
33.57 	0.058550 	3877 	0.057795
33.59 	0.060825 	3880 	0.059768
33.61 	0.057304 	3909 	0.056405
33.63 	0.065578 	3919 	0.064382
33.65 	0.056474 	3931 	0.055133
33.67 	0.054881 	3954 	0.053055
33.69 	0.057678 	3953 	0.056937
33.71 	0.056352 	3975 	0.055763
33.73 	0.056693 	4004 	0.055669
33.75 	0.058765 	3999 	0.058325
33.77 	0.062360 	4025 	0.061924
33.79 	0.057164 	4041 	0.056729
33.81 	0.055968 	4038 	0.054035
33.83 	0.052840 	4050 	0.052550
33.85 	0.059527 	4099 	0.058098
33.87 	0.062029 	4111 	0.059891
33.89 	0.056054 	4121 	0.055344
33.91 	0.057604 	4149 	0.056475
33.93 	0.067454 	4151 	0.066184
33.95 	0.060990 	4181 	0.060009
33.97 	0.066348 	4190 	0.065510
33.99 	0.056667 	4200 	0.055690
34.01 	0.067173 	4213 	0.066339
34.03 	0.058435 	4244 	0.057607
34.05 	0.064911 	4252 	0.063510
34.07 	0.058107 	4268 	0.057421
34.09 	0.059729 	4286 	0.058773
34.11 	0.057880 	4302 	0.056927
34.13 	0.057103 	4308 	0.056287
34.15 	0.061879 	4331 	0.060121
34.17 	0.057931 	4350 	0.056854
34.19 	0.056855 	4362 	0.056452
34.21 	0.055822 	4371 	0.055018
34.23 	0.047803 	4393 	0.047537
34.25 	0.055858 	4404 	0.054927
34.27 	0.064903 	4422 	0.062894
34.29 	0.054340 	4435 	0.053284
34.31 	0.059892 	4458 	0.058447
34.33 	0.053008 	4471 	0.052615
34.35 	0.056869 	4484 	0.055693
34.37 	0.059898 	4491 	0.058593
34.39 	0.053976 	4502 	0.053065
34.41 	0.054132 	4526 	0.053485
34.43 	0.053536 	4539 	0.052504
34.45 	0.055347 	4535 	0.054314
34.47 	0.062064 	4592 	0.060151
34.49 	0.059822 	4597 	0.059057
34.51 	0.046461 	4606 	0.046207
34.53 	0.057506 	4643 	0.055845
34.55 	0.061813 	4643 	0.060657
34.57 	0.054077 	4660 	0.053449
34.59 	0.057754 	4675 	0.056626
34.61 	0.057058 	4697 	0.056808
34.63 	0.057325 	4710 	0.056579
34.65 	0.054014 	4721 	0.053518
34.67 	0.060958 	4741 	0.059969
34.69 	0.052587 	4754 	0.051848
34.71 	0.050986 	4766 	0.050249
34.73 	0.052851 	4787 	0.052607
34.75 	0.054908 	4808 	0.054177
34.77 	0.056247 	4818 	0.055032
34.79 	0.056592 	4824 	0.056106
34.81 	0.059443 	4845 	0.058335
34.83 	0.058206 	4862 	0.057002
34.85 	0.059150 	4869 	0.057706
34.87 	0.058135 	4868 	0.057032
34.89 	0.060836 	4882 	0.060116
34.91 	0.056944 	4882 	0.055984
34.93 	0.049806 	4899 	0.049208
34.95 	0.056851 	4890 	0.056132
34.97 	0.054672 	4902 	0.053835
34.99 	0.054319 	4897 	0.053482
35.01 	0.056470 	4923 	0.055875
35.03 	0.058264 	4943 	0.057316
35.05 	0.053972 	4947 	0.053025
35.07 	0.054251 	4940 	0.053184
35.09 	0.060973 	4953 	0.060500
35.11 	0.049727 	4947 	0.049135
35.13 	0.052844 	4958 	0.051997
35.15 	0.053474 	4937 	0.052643
35.17 	0.056207 	4946 	0.055496
35.19 	0.053622 	4942 	0.052081
35.21 	0.057027 	4945 	0.056198
35.23 	0.056421 	4945 	0.054368
35.25 	0.059073 	4943 	0.058125
35.27 	0.062854 	4948 	0.062025
35.29 	0.060061 	4945 	0.059113
35.31 	0.055950 	4933 	0.055356
35.33 	0.054825 	4943 	0.053857
35.35 	0.053217 	4942 	0.052131
35.37 	0.052642 	4939 	0.051575
35.39 	0.055005 	4945 	0.054176
35.41 	0.062119 	4926 	0.061049
35.43 	0.057774 	4933 	0.056705
35.45 	0.055904 	4937 	0.055074
35.47 	0.051105 	4931 	0.049917
35.49 	0.056823 	4910 	0.056465
35.51 	0.051157 	4926 	0.050325
35.53 	0.049505 	4949 	0.048795
35.55 	0.056825 	4945 	0.055996
35.57 	0.054733 	4933 	0.053902
35.59 	0.047523 	4945 	0.046575
35.61 	0.050992 	4942 	0.050043
35.63 	0.060490 	4943 	0.059660
35.65 	0.052781 	4945 	0.052050
35.67 	0.058074 	4942 	0.057106
35.69 	0.057218 	4946 	0.056744
35.71 	0.048207 	4937 	0.047733
35.73 	0.058752 	4936 	0.056952
35.75 	0.058812 	4931 	0.058099
35.77 	0.063018 	4951 	0.062308
35.79 	0.054339 	4932 	0.053013
35.81 	0.060815 	4933 	0.059014
35.83 	0.055196 	4946 	0.053893
35.85 	0.054509 	4935 	0.053440
35.87 	0.047938 	4923 	0.047343
35.89 	0.054520 	4934 	0.053689
35.91 	0.051350 	4927 	0.049804
35.93 	0.053988 	4927 	0.053750
35.95 	0.056945 	4917 	0.056469
35.97 	0.058632 	4912 	0.058036
35.99 	0.047378 	4939 	0.046548
36.01 	0.050913 	4930 	0.050319
36.03 	0.054218 	4943 	0.053152
36.05 	0.053994 	4945 	0.053046
36.07 	0.057097 	4939 	0.056504
36.09 	0.052632 	4940 	0.051782
36.11 	0.053561 	4929 	0.052491
36.13 	0.055645 	4942 	0.054342
36.15 	0.053452 	4939 	0.052147
36.17 	0.059898 	4925 	0.058828
36.19 	0.057490 	4940 	0.056403
36.21 	0.052749 	4929 	0.051917
36.23 	0.051469 	4935 	0.050757
36.25 	0.053835 	4941 	0.053242
36.27 	0.050964 	4925 	0.050013
36.29 	0.058406 	4931 	0.057337
36.31 	0.056209 	4928 	0.055021
36.33 	0.055139 	4933 	0.054189
36.35 	0.056604 	4929 	0.056010
36.37 	0.049766 	4923 	0.049052
36.39 	0.051209 	4921 	0.050376
36.41 	0.053717 	4896 	0.053119
36.43 	0.053166 	4928 	0.052195
36.45 	0.056389 	4930 	0.055795
36.47 	0.054903 	4936 	0.054309
36.49 	0.057062 	4942 	0.055758
36.51 	0.056355 	4933 	0.055049
36.53 	0.050577 	4943 	0.050221
36.55 	0.053785 	4927 	0.052596
36.57 	0.050669 	4934 	0.049838
36.59 	0.053047 	4939 	0.052336
36.61 	0.051714 	4931 	0.051595
36.63 	0.052525 	4931 	0.051812
36.65 	0.054339 	4932 	0.052914
36.67 	0.050101 	4930 	0.049507
36.69 	0.052749 	4929 	0.052393
36.71 	0.053648 	4921 	0.053291
36.73 	0.048934 	4925 	0.048577
36.75 	0.056230 	4944 	0.055045
36.77 	0.054483 	4919 	0.053749
36.79 	0.053038 	4921 	0.052443
36.81 	0.051465 	4916 	0.050630
36.83 	0.054527 	4915 	0.053693
36.85 	0.053900 	4898 	0.052704
36.87 	0.053196 	4944 	0.052248
36.89 	0.061025 	4916 	0.059714
36.91 	0.050395 	4941 	0.049683
36.93 	0.049696 	4930 	0.048607
36.95 	0.052098 	4933 	0.051267
36.97 	0.056141 	4934 	0.055073
36.99 	0.048430 	4935 	0.047717
37.01 	0.050071 	4933 	0.048745
37.03 	0.050772 	4924 	0.050058
37.05 	0.055815 	4927 	0.055102
37.07 	0.050051 	4935 	0.049576
37.09 	0.054180 	4928 	0.053348
37.11 	0.048632 	4935 	0.047683
37.13 	0.055443 	4924 	0.054848
37.15 	0.052353 	4909 	0.051995
37.17 	0.052088 	4934 	0.051731
37.19 	0.050964 	4925 	0.050964
37.21 	0.056132 	4917 	0.055298
37.23 	0.049410 	4918 	0.048457
37.25 	0.043576 	4911 	0.043099
37.27 	0.049857 	4894 	0.048899
37.29 	0.050710 	4930 	0.050353
37.31 	0.053698 	4935 	0.053342
37.33 	0.054191 	4927 	0.053121
37.35 	0.042122 	4938 	0.042004
37.37 	0.049320 	4927 	0.048726
37.39 	0.052930 	4931 	0.051861
37.41 	0.048469 	4931 	0.047637
37.43 	0.046431 	4932 	0.046313
37.45 	0.047522 	4924 	0.047046
37.47 	0.046663 	4929 	0.045950
37.49 	0.054235 	4923 	0.053521
37.51 	0.051693 	4933 	0.050980
37.53 	0.048384 	4919 	0.047907
37.55 	0.044625 	4930 	0.043793
37.57 	0.050761 	4925 	0.050524
37.59 	0.049034 	4915 	0.048318
37.61 	0.050996 	4922 	0.049686
37.63 	0.051230 	4919 	0.050396
37.65 	0.051037 	4918 	0.049945
37.67 	0.055669 	4904 	0.054713
37.69 	0.049204 	4898 	0.048367
37.71 	0.048894 	4929 	0.048300
37.73 	0.052749 	4929 	0.051917
37.75 	0.049798 	4940 	0.049086
37.77 	0.054472 	4920 	0.053519
37.79 	0.053144 	4930 	0.052193
37.81 	0.050274 	4933 	0.049799
37.83 	0.051016 	4920 	0.050183
37.85 	0.052011 	4922 	0.051773
37.87 	0.048188 	4939 	0.047358
37.89 	0.049340 	4925 	0.049102
37.91 	0.051116 	4930 	0.050522
37.93 	0.053060 	4919 	0.052087
37.95 	0.057305 	4921 	0.056115
37.97 	0.048691 	4929 	0.047978
37.99 	0.054764 	4912 	0.053333
38.01 	0.054789 	4928 	0.053363
38.03 	0.050723 	4909 	0.049888
38.05 	0.049543 	4925 	0.048354
38.07 	0.049094 	4909 	0.048736
38.09 	0.050021 	4878 	0.049540
38.11 	0.047214 	4935 	0.046383
38.13 	0.053879 	4937 	0.052910
38.15 	0.057137 	4918 	0.056541
38.17 	0.055984 	4930 	0.055152
38.19 	0.056998 	4930 	0.055929
38.21 	0.056673 	4923 	0.055840
38.23 	0.052855 	4938 	0.051551
38.25 	0.057149 	4917 	0.056176
38.27 	0.049696 	4930 	0.048508
38.29 	0.050366 	4924 	0.049771
38.31 	0.055815 	4927 	0.054864
38.33 	0.054427 	4924 	0.053595
38.35 	0.061282 	4928 	0.060213
38.37 	0.063160 	4924 	0.062208
38.39 	0.061723 	4909 	0.061246
38.41 	0.055251 	4923 	0.054418
38.43 	0.057160 	4916 	0.056326
38.45 	0.058764 	4918 	0.057315
38.47 	0.058895 	4907 	0.058179
38.49 	0.064179 	4877 	0.062497
38.51 	0.066707 	4932 	0.065282
38.53 	0.054981 	4929 	0.053792
38.55 	0.056929 	4936 	0.056098
38.57 	0.056673 	4923 	0.056078
38.59 	0.055443 	4924 	0.053777
38.61 	0.058347 	4936 	0.057121
38.63 	0.055240 	4924 	0.053693
38.65 	0.049410 	4918 	0.048934
38.67 	0.054487 	4937 	0.053775
38.69 	0.048354 	4922 	0.047997
38.71 	0.056864 	4924 	0.055675
38.73 	0.054900 	4918 	0.053709
38.75 	0.050538 	4927 	0.049943
38.77 	0.050579 	4923 	0.049865
38.79 	0.055330 	4934 	0.054737
38.81 	0.050081 	4912 	0.049127
38.83 	0.047774 	4919 	0.046940
38.85 	0.051507 	4912 	0.051268
38.87 	0.051110 	4911 	0.050275
38.89 	0.049418 	4897 	0.048940
38.91 	0.046094 	4903 	0.045258
38.93 	0.045160 	4938 	0.044804
38.95 	0.046157 	4918 	0.045561
38.97 	0.047049 	4931 	0.046337
38.99 	0.048005 	4937 	0.047412
39.01 	0.047377 	4918 	0.046781
39.03 	0.047629 	4934 	0.046679
39.05 	0.053198 	4925 	0.052246
39.07 	0.047522 	4924 	0.047165
39.09 	0.047735 	4923 	0.047259
39.11 	0.045630 	4931 	0.044798
39.13 	0.044079 	4923 	0.043603
39.15 	0.046592 	4915 	0.045639
39.17 	0.050841 	4937 	0.050247
39.19 	0.045353 	4917 	0.045115
39.21 	0.042363 	4910 	0.041766
39.23 	0.043249 	4925 	0.043011
39.25 	0.048557 	4922 	0.047724
39.27 	0.049084 	4910 	0.048487
39.29 	0.048766 	4901 	0.048168
39.31 	0.050983 	4884 	0.050503
39.33 	0.047049 	4931 	0.046693
39.35 	0.044985 	4935 	0.043897
39.37 	0.049300 	4929 	0.048468
39.39 	0.045648 	4929 	0.044321
39.41 	0.047860 	4931 	0.046791
39.43 	0.046422 	4933 	0.046066
39.45 	0.046294 	4925 	0.045938
39.47 	0.051188 	4923 	0.050474
39.49 	0.044192 	4933 	0.043955
39.51 	0.046507 	4924 	0.046150
39.53 	0.050173 	4923 	0.049221
39.55 	0.046554 	4919 	0.045721
39.57 	0.049463 	4933 	0.049107
39.59 	0.043974 	4912 	0.043258
39.61 	0.046110 	4923 	0.045753
39.63 	0.041853 	4922 	0.041615
39.65 	0.047909 	4926 	0.047196
39.67 	0.050885 	4913 	0.050170
39.69 	0.050244 	4916 	0.049529
39.71 	0.046170 	4895 	0.045332
39.73 	0.051141 	4908 	0.050544
39.75 	0.047078 	4928 	0.046365
39.77 	0.046606 	4935 	0.045755
39.79 	0.047503 	4926 	0.046790
39.81 	0.044652 	4927 	0.044176
39.83 	0.046615 	4934 	0.045784
39.85 	0.045058 	4927 	0.043849
39.87 	0.051168 	4925 	0.050930
39.89 	0.044386 	4934 	0.043555
39.91 	0.050589 	4922 	0.049994
39.93 	0.046992 	4937 	0.046399
39.95 	0.043540 	4915 	0.043421
39.97 	0.046063 	4928 	0.045707
39.99 	0.046634 	4932 	0.045783
40.01 	0.046157 	4918 	0.045561
40.03 	0.049716 	4928 	0.048508
40.05 	0.041692 	4917 	0.040620
40.07 	0.041438 	4923 	0.040724
40.09 	0.046786 	4916 	0.045813
40.11 	0.046379 	4916 	0.045903
40.13 	0.047590 	4896 	0.046752
40.15 	0.043354 	4913 	0.042381
40.17 	0.049716 	4928 	0.049003
40.19 	0.042402 	4929 	0.041808
40.21 	0.043972 	4935 	0.043616
40.23 	0.044607 	4932 	0.044132
40.25 	0.045528 	4920 	0.044814
40.27 	0.048410 	4937 	0.047461
40.29 	0.050132 	4927 	0.049181
40.31 	0.048188 	4939 	0.047002
40.33 	0.044201 	4932 	0.043726
40.35 	0.045131 	4919 	0.044536
40.37 	0.045040 	4929 	0.044564
40.39 	0.044616 	4931 	0.043784
40.41 	0.045888 	4925 	0.045532
40.43 	0.045510 	4922 	0.044677
40.45 	0.048449 	4933 	0.047380
40.47 	0.040464 	4918 	0.039491
40.49 	0.048112 	4926 	0.047042
40.51 	0.043072 	4922 	0.042715
40.53 	0.042311 	4916 	0.041934
40.55 	0.047066 	4908 	0.046589
40.57 	0.044990 	4890 	0.044511
40.59 	0.039295 	4937 	0.038583
40.61 	0.047619 	4935 	0.046788
40.63 	0.044422 	4930 	0.044184
40.65 	0.037877 	4937 	0.037877
40.67 	0.049473 	4932 	0.048523
40.69 	0.045574 	4937 	0.045100
40.71 	0.041768 	4932 	0.041412
40.73 	0.045270 	4926 	0.044675
40.75 	0.047658 	4931 	0.046707
40.77 	0.044746 	4939 	0.044509
40.79 	0.043461 	4924 	0.042985
40.81 	0.044525 	4941 	0.044288
40.83 	0.043019 	4928 	0.042901
40.85 	0.048335 	4924 	0.047859
40.87 	0.041599 	4928 	0.041005
40.89 	0.047252 	4931 	0.046658
40.91 	0.045704 	4923 	0.044970
40.93 	0.041346 	4934 	0.040871
40.95 	0.039080 	4913 	0.037968
40.97 	0.045288 	4924 	0.045050
40.99 	0.043054 	4924 	0.042816
41.01 	0.042956 	4912 	0.042360
41.03 	0.045464 	4905 	0.044966
41.05 	0.042747 	4936 	0.042154
41.07 	0.045639 	4930 	0.045164
41.09 	0.040494 	4939 	0.040257
41.11 	0.041337 	4935 	0.040744
41.13 	0.048217 	4936 	0.047386
41.15 	0.041894 	4941 	0.041420
41.17 	0.040332 	4934 	0.040095
41.19 	0.042191 	4930 	0.041597
41.21 	0.040916 	4937 	0.040322
41.23 	0.042316 	4939 	0.041842
41.25 	0.044192 	4933 	0.043242
41.27 	0.047049 	4931 	0.046455
41.29 	0.038555 	4928 	0.037842
41.31 	0.048652 	4933 	0.047939
41.33 	0.040916 	4937 	0.040085
41.35 	0.047388 	4938 	0.046557
41.37 	0.045085 	4924 	0.044372
41.39 	0.044598 	4933 	0.044123
41.41 	0.042834 	4926 	0.042239
41.43 	0.041185 	4929 	0.040828
41.45 	0.045788 	4914 	0.045192
41.47 	0.042631 	4926 	0.042512
41.49 	0.047220 	4892 	0.046142
41.51 	0.045344 	4940 	0.044514
41.53 	0.042880 	4944 	0.042169
41.55 	0.043161 	4935 	0.042568
41.57 	0.043513 	4941 	0.043395
41.59 	0.048044 	4933 	0.047806
41.61 	0.041591 	4953 	0.041473
41.63 	0.045565 	4938 	0.044972
41.65 	0.043417 	4929 	0.042565
41.67 	0.037045 	4940 	0.036807
41.69 	0.040226 	4947 	0.039871
41.71 	0.038711 	4934 	0.037999
41.73 	0.042950 	4936 	0.042712
41.75 	0.044228 	4929 	0.043753
41.77 	0.039466 	4941 	0.038991
41.79 	0.048341 	4944 	0.046920
41.81 	0.036467 	4936 	0.036348
41.83 	0.044643 	4928 	0.044167
41.85 	0.040696 	4939 	0.040341
41.87 	0.045998 	4935 	0.045286
41.89 	0.042368 	4933 	0.041418
41.91 	0.043355 	4936 	0.042267
41.93 	0.035888 	4932 	0.035888
41.95 	0.037518 	4931 	0.037043
41.97 	0.037444 	4914 	0.037086
41.99 	0.039348 	4905 	0.038989
42.01 	0.038648 	4942 	0.038174
42.03 	0.042316 	4939 	0.041486
42.05 	0.042407 	4952 	0.042052
42.07 	0.040916 	4937 	0.040441
42.09 	0.037187 	4948 	0.036476
42.11 	0.043883 	4945 	0.043527
42.13 	0.039636 	4945 	0.039281
42.15 	0.039085 	4938 	0.038847
42.17 	0.038634 	4918 	0.038038
42.19 	0.038916 	4908 	0.038081
42.21 	0.040808 	4901 	0.040210
42.23 	0.042723 	4892 	0.042364
42.25 	0.043567 	4889 	0.043208
42.27 	0.039393 	4874 	0.039273
42.29 	0.038865 	4863 	0.038263
42.31 	0.041607 	4855 	0.041365
42.33 	0.039098 	4834 	0.038492
42.35 	0.041546 	4838 	0.040941
42.37 	0.037267 	4830 	0.037146
42.39 	0.040383 	4804 	0.039773
42.41 	0.039759 	4804 	0.039515
42.43 	0.042988 	4792 	0.042255
42.45 	0.038526 	4776 	0.038403
42.47 	0.037356 	4765 	0.036618
42.49 	0.039454 	4765 	0.039086
42.51 	0.041113 	4743 	0.040866
42.53 	0.037225 	4728 	0.036853
42.55 	0.037808 	4708 	0.037559
42.57 	0.039746 	4730 	0.039375
42.59 	0.039755 	4729 	0.039383
42.61 	0.040144 	4708 	0.039398
42.63 	0.039074 	4709 	0.038701
42.65 	0.039061 	4685 	0.038936
42.67 	0.036080 	4684 	0.035955
42.69 	0.040009 	4674 	0.039633
42.71 	0.044821 	4663 	0.043816
42.73 	0.041164 	4640 	0.040154
42.75 	0.046134 	4617 	0.045458
42.77 	0.045870 	4600 	0.045105
42.79 	0.041903 	4582 	0.041008
42.81 	0.035292 	4562 	0.035035
42.83 	0.041667 	4536 	0.041408
42.85 	0.034894 	4528 	0.034635
42.87 	0.041120 	4499 	0.040860
42.89 	0.041741 	4480 	0.041480
42.91 	0.038600 	4456 	0.038074
42.93 	0.039811 	4446 	0.039548
42.95 	0.042346 	4416 	0.041417
42.97 	0.043172 	4401 	0.042640
42.99 	0.036944 	4385 	0.036276
43.01 	0.036214 	4363 	0.035811
43.03 	0.033695 	4333 	0.033019
43.05 	0.039306 	4325 	0.038223
43.07 	0.040736 	4296 	0.040326
43.09 	0.038991 	4283 	0.038718
43.11 	0.034078 	4255 	0.033665
43.13 	0.046731 	4237 	0.046178
43.15 	0.038754 	4206 	0.038476
43.17 	0.040919 	4179 	0.040218
43.19 	0.038865 	4194 	0.038167
43.21 	0.035954 	4172 	0.035533
43.23 	0.040924 	4154 	0.040783
43.25 	0.038452 	4135 	0.038027
43.27 	0.041169 	4105 	0.040741
43.29 	0.046585 	4100 	0.046157
43.31 	0.032361 	4079 	0.032217
43.33 	0.039250 	4051 	0.039105
43.35 	0.037946 	4032 	0.037511
43.37 	0.041096 	4015 	0.040366
43.39 	0.045977 	4002 	0.045538
43.41 	0.043051 	3972 	0.042314
43.43 	0.038384 	3960 	0.038088
43.45 	0.034307 	3935 	0.034159
43.47 	0.044887 	3921 	0.044289
43.49 	0.037978 	3897 	0.037677
43.51 	0.039464 	3877 	0.038708
43.53 	0.037794 	3863 	0.037340
43.55 	0.043860 	2964 	0.043037
43.57 	0.034406 	2238 	0.034144
43.59 	0.042955 	1746 	0.042284
43.61 	0.034049 	1351 	0.034049
43.63 	0.031968 	1001 	0.030798
43.65 	0.029112 	687 	0.029112
43.67 	0.013944 	502 	0.013944
43.69 	0.024523 	367 	0.024523
43.71 	0.025105 	239 	0.025105
43.73 	0.033333 	120 	0.033333
43.75 	0.000000 	16 	0.000000