File: Example_Data/25SC_s1_0016.001.dat
#F C:\frames\spec\25SC_s1_0016.001
#C title =s:16 frm:1 25SC_s1
#C wavelength =0.15406

#S 1  fr_average C:\frames\spec\25SC_s1_0016.001 C:\win32app\speccom\mask.axs chi 0 180 0 360 0.02
#C 2 theta =0.000000 to 180 deg
#C   q   =0.000000 to 81.568 nm^-1
#C  chi  =0.000000 to 360 deg
#C collumns:
#C  1 position (2theta or chi in degrees)
#C  2 average intensity (sum of all counts in the region divided with number of pixels)
#C  3 Number of pixels in region)
#C  4 error (sum of sqrt(intensity) for all pixels divided by number)
#N 4
#L TTh  Int  N_pix  Err
32.99 	0.032787 	61 	0.032787
33.01 	0.051546 	873 	0.050875
33.03 	0.063983 	1391 	0.063562
33.05 	0.059761 	1757 	0.058761
33.07 	0.061951 	2050 	0.060522
33.09 	0.057946 	2347 	0.057697
33.11 	0.058550 	2579 	0.056960
33.13 	0.058718 	2793 	0.058089
33.15 	0.065022 	2999 	0.062809
33.17 	0.070291 	3201 	0.067440
33.19 	0.052364 	3342 	0.051663
33.21 	0.057043 	3436 	0.056702
33.23 	0.055918 	3523 	0.053590
33.25 	0.059524 	3612 	0.058875
33.27 	0.064463 	3630 	0.063468
33.29 	0.059759 	3648 	0.058795
33.31 	0.056011 	3660 	0.055051
33.33 	0.062670 	3686 	0.061054
33.35 	0.056578 	3694 	0.055627
33.37 	0.056004 	3714 	0.055216
33.39 	0.053097 	3729 	0.051684
33.41 	0.054545 	3740 	0.052979
33.43 	0.055304 	3761 	0.054033
33.45 	0.054333 	3773 	0.053091
33.47 	0.054502 	3798 	0.053577
33.49 	0.059858 	3809 	0.058295
33.51 	0.063958 	3815 	0.062576
33.53 	0.064827 	3841 	0.063149
33.55 	0.060370 	3843 	0.059455
33.57 	0.064741 	3877 	0.063054
33.59 	0.057732 	3880 	0.056524
33.61 	0.062164 	3909 	0.060965
33.63 	0.058688 	3919 	0.057642
33.65 	0.055457 	3931 	0.054861
33.67 	0.060445 	3954 	0.059408
33.69 	0.061472 	3953 	0.060583
33.71 	0.056855 	3975 	0.055824
33.73 	0.060689 	4004 	0.058861
33.75 	0.055264 	3999 	0.054385
33.77 	0.058882 	4025 	0.058154
33.79 	0.055679 	4041 	0.054954
33.81 	0.059931 	4038 	0.059060
33.83 	0.062716 	4050 	0.061848
33.85 	0.057819 	4099 	0.057390
33.87 	0.062758 	4111 	0.061595
33.89 	0.055084 	4121 	0.053615
33.91 	0.053989 	4149 	0.053424
33.93 	0.057817 	4151 	0.057112
33.95 	0.059316 	4181 	0.057915
33.97 	0.057518 	4190 	0.056399
33.99 	0.056905 	4200 	0.055789
34.01 	0.053881 	4213 	0.052908
34.03 	0.059378 	4244 	0.058550
34.05 	0.054092 	4252 	0.053679
34.07 	0.063261 	4268 	0.061340
34.09 	0.054363 	4286 	0.052837
34.11 	0.058113 	4302 	0.057296
34.13 	0.054318 	4308 	0.053230
34.15 	0.053336 	4331 	0.052525
34.17 	0.058391 	4350 	0.057852
34.19 	0.064649 	4362 	0.063306
34.21 	0.058568 	4371 	0.058300
34.23 	0.057592 	4393 	0.056525
34.25 	0.056767 	4404 	0.055969
34.27 	0.058797 	4422 	0.057737
34.29 	0.063585 	4435 	0.062132
34.31 	0.057425 	4458 	0.056636
34.33 	0.061284 	4471 	0.060345
34.35 	0.061775 	4484 	0.060469
34.37 	0.056780 	4491 	0.055976
34.39 	0.050422 	4502 	0.050032
34.41 	0.058551 	4526 	0.057256
34.43 	0.059044 	4539 	0.058011
34.45 	0.053804 	4535 	0.052125
34.47 	0.055749 	4592 	0.054729
34.49 	0.052425 	4597 	0.051916
34.51 	0.055145 	4606 	0.054382
34.53 	0.053629 	4643 	0.052620
34.55 	0.058367 	4643 	0.057737
34.57 	0.059227 	4660 	0.058599
34.59 	0.059465 	4675 	0.058463
34.61 	0.060677 	4697 	0.059180
34.63 	0.057325 	4710 	0.055667
34.65 	0.051472 	4721 	0.050852
34.67 	0.053153 	4741 	0.051918
34.69 	0.059739 	4754 	0.059246
34.71 	0.060218 	4766 	0.059235
34.73 	0.058283 	4787 	0.057549
34.75 	0.056988 	4808 	0.056379
34.77 	0.058946 	4818 	0.057608
34.79 	0.055763 	4824 	0.054771
34.81 	0.056553 	4845 	0.055707
34.83 	0.066434 	4862 	0.064747
34.85 	0.056891 	4869 	0.055808
34.87 	0.056286 	4868 	0.055203
34.89 	0.060631 	4882 	0.059791
34.91 	0.054691 	4882 	0.054211
34.93 	0.053276 	4899 	0.053037
34.95 	0.059509 	4890 	0.058551
34.97 	0.058548 	4902 	0.057831
34.99 	0.056565 	4897 	0.055608
35.01 	0.055454 	4923 	0.054245
35.03 	0.051790 	4943 	0.051435
35.05 	0.052961 	4947 	0.052488
35.07 	0.059717 	4940 	0.058887
35.09 	0.060973 	4953 	0.060027
35.11 	0.053770 	4947 	0.052467
35.13 	0.059298 	4958 	0.058471
35.15 	0.051651 	4937 	0.050702
35.17 	0.057016 	4946 	0.055713
35.19 	0.056860 	4942 	0.055911
35.21 	0.057432 	4945 	0.056721
35.23 	0.056825 	4945 	0.055877
35.25 	0.059478 	4943 	0.058056
35.27 	0.054568 	4948 	0.054094
35.29 	0.061678 	4945 	0.060494
35.31 	0.060004 	4933 	0.058342
35.33 	0.052195 	4943 	0.051721
35.35 	0.052408 	4942 	0.051815
35.37 	0.058919 	4939 	0.057851
35.39 	0.057432 	4945 	0.056603
35.41 	0.053796 	4926 	0.053321
35.43 	0.067910 	4933 	0.066485
35.45 	0.060563 	4937 	0.060207
35.47 	0.051714 	4931 	0.050763
35.49 	0.053768 	4910 	0.052933
35.51 	0.059886 	4926 	0.059054
35.53 	0.055971 	4949 	0.054768
35.55 	0.060667 	4945 	0.059582
35.57 	0.059193 	4933 	0.058124
35.59 	0.057634 	4945 	0.056923
35.61 	0.053015 	4942 	0.052541
35.63 	0.057657 	4943 	0.056591
35.65 	0.062892 	4945 	0.061826
35.67 	0.050587 	4942 	0.049619
35.69 	0.058027 	4946 	0.056704
35.71 	0.056512 	4937 	0.055187
35.73 	0.059968 	4936 	0.058899
35.75 	0.054553 	4931 	0.053959
35.77 	0.058372 	4951 	0.056952
35.79 	0.056569 	4932 	0.055500
35.81 	0.061018 	4933 	0.059593
35.83 	0.057825 	4946 	0.056522
35.85 	0.059372 	4935 	0.058304
35.87 	0.054641 	4923 	0.053809
35.89 	0.061816 	4934 	0.061222
35.91 	0.062716 	4927 	0.062359
35.93 	0.059671 	4927 	0.058601
35.95 	0.056539 	4917 	0.055943
35.97 	0.056189 	4912 	0.054400
35.99 	0.057704 	4939 	0.056854
36.01 	0.053550 	4930 	0.053312
36.03 	0.065750 	4943 	0.064327
36.05 	0.055612 	4945 	0.055375
36.07 	0.061146 	4939 	0.059822
36.09 	0.068219 	4940 	0.067151
36.11 	0.057821 	4929 	0.056989
36.13 	0.062323 	4942 	0.061256
36.15 	0.051225 	4939 	0.050513
36.17 	0.059898 	4925 	0.059304
36.19 	0.057895 	4940 	0.057420
36.21 	0.060256 	4929 	0.059661
36.23 	0.065653 	4935 	0.064704
36.25 	0.059300 	4941 	0.057877
36.27 	0.056041 	4925 	0.055188
36.29 	0.057595 	4931 	0.055813
36.31 	0.053977 	4928 	0.053007
36.33 	0.055544 	4933 	0.054713
36.35 	0.061879 	4929 	0.060928
36.37 	0.064595 	4923 	0.063385
36.39 	0.062792 	4921 	0.061344
36.41 	0.059028 	4896 	0.057712
36.43 	0.060877 	4928 	0.059450
36.45 	0.055375 	4930 	0.054187
36.47 	0.056929 	4936 	0.055979
36.49 	0.053824 	4942 	0.053350
36.51 	0.057977 	4933 	0.056414
36.53 	0.054623 	4943 	0.053438
36.55 	0.061295 	4927 	0.060463
36.57 	0.054722 	4934 	0.053535
36.59 	0.055679 	4939 	0.054730
36.61 	0.058812 	4931 	0.057742
36.63 	0.057392 	4931 	0.056323
36.65 	0.052717 	4932 	0.051886
36.67 	0.058012 	4930 	0.057299
36.69 	0.055184 	4929 	0.053857
36.71 	0.056899 	4921 	0.056423
36.73 	0.061320 	4925 	0.060130
36.75 	0.056230 	4944 	0.055163
36.77 	0.061598 	4919 	0.060288
36.79 	0.053038 	4921 	0.051848
36.81 	0.063263 	4916 	0.061356
36.83 	0.059817 	4915 	0.059340
36.85 	0.055329 	4898 	0.053874
36.87 	0.059264 	4944 	0.058434
36.89 	0.058381 	4916 	0.058023
36.91 	0.059502 	4941 	0.058672
36.93 	0.060446 	4930 	0.058763
36.95 	0.051085 	4933 	0.050491
36.97 	0.054114 	4934 	0.053639
36.99 	0.053090 	4935 	0.052022
37.01 	0.058990 	4933 	0.058278
37.03 	0.051990 	4924 	0.051039
37.05 	0.059265 	4927 	0.057957
37.07 	0.051469 	4935 	0.050638
37.09 	0.063312 	4928 	0.062836
37.11 	0.058967 	4935 	0.057661
37.13 	0.060317 	4924 	0.059365
37.15 	0.054797 	4909 	0.053843
37.17 	0.059789 	4934 	0.058958
37.19 	0.058477 	4925 	0.057407
37.21 	0.055725 	4917 	0.055248
37.23 	0.054494 	4918 	0.053144
37.25 	0.055997 	4911 	0.054665
37.27 	0.053944 	4894 	0.052986
37.29 	0.061460 	4930 	0.060272
37.31 	0.056738 	4935 	0.056144
37.33 	0.059468 	4927 	0.058517
37.35 	0.063183 	4938 	0.062116
37.37 	0.056627 	4927 	0.055557
37.39 	0.058812 	4931 	0.057742
37.41 	0.058000 	4931 	0.056575
37.43 	0.056975 	4932 	0.056381
37.45 	0.058083 	4924 	0.057607
37.47 	0.059241 	4929 	0.057914
37.49 	0.053016 	4923 	0.052283
37.51 	0.060207 	4933 	0.059494
37.53 	0.059362 	4919 	0.058885
37.55 	0.059838 	4930 	0.058531
37.57 	0.054619 	4925 	0.053668
37.59 	0.054120 	4915 	0.052451
37.61 	0.046526 	4922 	0.045911
37.63 	0.058142 	4919 	0.057427
37.65 	0.058357 	4918 	0.057642
37.67 	0.059339 	4904 	0.058125
37.69 	0.058187 	4898 	0.056493
37.71 	0.057821 	4929 	0.056989
37.73 	0.050314 	4929 	0.049720
37.75 	0.057490 	4940 	0.056541
37.77 	0.051016 	4920 	0.050064
37.79 	0.049899 	4930 	0.049186
37.81 	0.059396 	4933 	0.058327
37.83 	0.051423 	4920 	0.050589
37.85 	0.056075 	4922 	0.055123
37.87 	0.057502 	4939 	0.057027
37.89 	0.052589 	4925 	0.051399
37.91 	0.056187 	4930 	0.055117
37.93 	0.055092 	4919 	0.054497
37.95 	0.055273 	4921 	0.053944
37.97 	0.055184 	4929 	0.054332
37.99 	0.055985 	4912 	0.055270
38.01 	0.052151 	4928 	0.051319
38.03 	0.054186 	4909 	0.053470
38.05 	0.051168 	4925 	0.050216
38.07 	0.054594 	4909 	0.054116
38.09 	0.056581 	4878 	0.055980
38.11 	0.062006 	4935 	0.061175
38.13 	0.060968 	4937 	0.059900
38.15 	0.047784 	4918 	0.046950
38.17 	0.053144 	4930 	0.052431
38.19 	0.054361 	4930 	0.053648
38.21 	0.060126 	4923 	0.058797
38.23 	0.050628 	4938 	0.050035
38.25 	0.057555 	4917 	0.056483
38.27 	0.051318 	4930 	0.050487
38.29 	0.059911 	4924 	0.058721
38.31 	0.056424 	4927 	0.055116
38.33 	0.050975 	4924 	0.050241
38.35 	0.046469 	4928 	0.045756
38.37 	0.064175 	4924 	0.062748
38.39 	0.054186 	4909 	0.053112
38.41 	0.065407 	4923 	0.064455
38.43 	0.058991 	4916 	0.058157
38.45 	0.062017 	4918 	0.060588
38.47 	0.061545 	4907 	0.060828
38.49 	0.063564 	4877 	0.062963
38.51 	0.062449 	4932 	0.061024
38.53 	0.068980 	4929 	0.068029
38.55 	0.069895 	4936 	0.068945
38.57 	0.063579 	4923 	0.062746
38.59 	0.069659 	4924 	0.068469
38.61 	0.069489 	4936 	0.067947
38.63 	0.080016 	4924 	0.078113
38.65 	0.077471 	4918 	0.075287
38.67 	0.078995 	4937 	0.077433
38.69 	0.063998 	4922 	0.062927
38.71 	0.073924 	4924 	0.072258
38.73 	0.071167 	4918 	0.069738
38.75 	0.076517 	4927 	0.074615
38.77 	0.073126 	4923 	0.071222
38.79 	0.066883 	4934 	0.065933
38.81 	0.072272 	4912 	0.071079
38.83 	0.071559 	4919 	0.070487
38.85 	0.066775 	4912 	0.065344
38.87 	0.069232 	4911 	0.068040
38.89 	0.065755 	4897 	0.064917
38.91 	0.062819 	4903 	0.062102
38.93 	0.063791 	4938 	0.062961
38.95 	0.060187 	4918 	0.059472
38.97 	0.059826 	4931 	0.058974
38.99 	0.059348 	4937 	0.059110
39.01 	0.056527 	4918 	0.055693
39.03 	0.051480 	4934 	0.050767
39.05 	0.051777 	4925 	0.051063
39.07 	0.055240 	4924 	0.054526
39.09 	0.052407 	4923 	0.051693
39.11 	0.053336 	4931 	0.052861
39.13 	0.051595 	4923 	0.051000
39.15 	0.052899 	4915 	0.052065
39.17 	0.057525 	4937 	0.056556
39.19 	0.045556 	4917 	0.044961
39.21 	0.049695 	4910 	0.049456
39.23 	0.045482 	4925 	0.045006
39.25 	0.043275 	4922 	0.043156
39.27 	0.047658 	4910 	0.046942
39.29 	0.049582 	4901 	0.048626
39.31 	0.040336 	4884 	0.039376
39.33 	0.049483 	4931 	0.049008
39.35 	0.040122 	4935 	0.040003
39.37 	0.049097 	4929 	0.048978
39.39 	0.049097 	4929 	0.048384
39.41 	0.047860 	4931 	0.047029
39.43 	0.047030 	4933 	0.046555
39.45 	0.050761 	4925 	0.050048
39.47 	0.048345 	4923 	0.047274
39.49 	0.044800 	4933 	0.044207
39.51 	0.044273 	4924 	0.043421
39.53 	0.046516 	4923 	0.046278
39.55 	0.044521 	4919 	0.043926
39.57 	0.041962 	4933 	0.041606
39.59 	0.044381 	4912 	0.044381
39.61 	0.044282 	4923 	0.043806
39.63 	0.046323 	4922 	0.045609
39.65 	0.037556 	4926 	0.037199
39.67 	0.042337 	4913 	0.041383
39.69 	0.043735 	4916 	0.043496
39.71 	0.043309 	4895 	0.042831
39.73 	0.051548 	4908 	0.050832
39.75 	0.043425 	4928 	0.042950
39.77 	0.048024 	4935 	0.047431
39.79 	0.046894 	4926 	0.046299
39.81 	0.046682 	4927 	0.045968
39.83 	0.044994 	4934 	0.043925
39.85 	0.044449 	4927 	0.044092
39.87 	0.049137 	4925 	0.048067
39.89 	0.046413 	4934 	0.045819
39.91 	0.044291 	4922 	0.044053
39.93 	0.043549 	4937 	0.042837
39.95 	0.043540 	4915 	0.043302
39.97 	0.043628 	4928 	0.042915
39.99 	0.049067 	4932 	0.048473
40.01 	0.042294 	4918 	0.041698
40.03 	0.049716 	4928 	0.048884
40.05 	0.043522 	4917 	0.042927
40.07 	0.042454 	4923 	0.041859
40.09 	0.042107 	4916 	0.041154
40.11 	0.046379 	4916 	0.045545
40.13 	0.043709 	4896 	0.042752
40.15 	0.040505 	4913 	0.039789
40.17 	0.037541 	4928 	0.037065
40.19 	0.041591 	4929 	0.041353
40.21 	0.044782 	4935 	0.044426
40.23 	0.047040 	4932 	0.046446
40.25 	0.042683 	4920 	0.042326
40.27 	0.038485 	4937 	0.038129
40.29 	0.044246 	4927 	0.043533
40.31 	0.040089 	4939 	0.039259
40.33 	0.039132 	4932 	0.038538
40.35 	0.038626 	4919 	0.038030
40.37 	0.045445 	4929 	0.044376
40.39 	0.046644 	4931 	0.045931
40.41 	0.041421 	4925 	0.041064
40.43 	0.042259 	4922 	0.041545
40.45 	0.050071 	4933 	0.049358
40.47 	0.046157 	4918 	0.045800
40.49 	0.044661 	4926 	0.044066
40.51 	0.040634 	4922 	0.040158
40.53 	0.044548 	4916 	0.044072
40.55 	0.042380 	4908 	0.041783
40.57 	0.046626 	4890 	0.046027
40.59 	0.042941 	4937 	0.042585
40.61 	0.044580 	4935 	0.043749
40.63 	0.045639 	4930 	0.045639
40.65 	0.044764 	4937 	0.044408
40.67 	0.049270 	4932 	0.048676
40.69 	0.041321 	4937 	0.040846
40.71 	0.041160 	4932 	0.040566
40.73 	0.040398 	4926 	0.039684
40.75 	0.044210 	4931 	0.043854
40.77 	0.044341 	4939 	0.043867
40.79 	0.041633 	4924 	0.041276
40.81 	0.044525 	4941 	0.044170
40.83 	0.046469 	4928 	0.046113
40.85 	0.042851 	4924 	0.042613
40.87 	0.038149 	4928 	0.037555
40.89 	0.041979 	4931 	0.041267
40.91 	0.039204 	4923 	0.039085
40.93 	0.042359 	4934 	0.041647
40.95 	0.042337 	4913 	0.042098
40.97 	0.042445 	4924 	0.042088
40.99 	0.038180 	4924 	0.037704
41.01 	0.047028 	4912 	0.046789
41.03 	0.044037 	4905 	0.043081
41.05 	0.042747 	4936 	0.042272
41.07 	0.039351 	4930 	0.038638
41.09 	0.040696 	4939 	0.040341
41.11 	0.039919 	4935 	0.039444
41.13 	0.037682 	4936 	0.036852
41.15 	0.046347 	4941 	0.045517
41.17 	0.038711 	4934 	0.038355
41.19 	0.044828 	4930 	0.044590
41.21 	0.040105 	4937 	0.039987
41.23 	0.043531 	4939 	0.043057
41.25 	0.038922 	4933 	0.038565
41.27 	0.046441 	4931 	0.045491
41.29 	0.038961 	4928 	0.038723
41.31 	0.038719 	4933 	0.038481
41.33 	0.039903 	4937 	0.038954
41.35 	0.044350 	4938 	0.043875
41.37 	0.038993 	4924 	0.038636
41.39 	0.036894 	4933 	0.036301
41.41 	0.048112 	4926 	0.047755
41.43 	0.038750 	4929 	0.038275
41.45 	0.039886 	4914 	0.039528
41.47 	0.043443 	4926 	0.042729
41.49 	0.037817 	4892 	0.037218
41.51 	0.038866 	4940 	0.038511
41.53 	0.047128 	4944 	0.045825
41.55 	0.038298 	4935 	0.037942
41.57 	0.039668 	4941 	0.039194
41.59 	0.035678 	4933 	0.035203
41.61 	0.040985 	4953 	0.040394
41.63 	0.040097 	4938 	0.039741
41.65 	0.040779 	4929 	0.040185
41.67 	0.045344 	4940 	0.044751
41.69 	0.041035 	4947 	0.040305
41.71 	0.038508 	4934 	0.038152
41.73 	0.047407 	4936 	0.046932
41.75 	0.037939 	4929 	0.037463
41.77 	0.033799 	4941 	0.033325
41.79 	0.038835 	4944 	0.038479
41.81 	0.037682 	4936 	0.037564
41.83 	0.044034 	4928 	0.043559
41.85 	0.036445 	4939 	0.036089
41.87 	0.038298 	4935 	0.037823
41.89 	0.041962 	4933 	0.041606
41.91 	0.037885 	4936 	0.037410
41.93 	0.035077 	4932 	0.034721
41.95 	0.042385 	4931 	0.042266
41.97 	0.039479 	4914 	0.038883
41.99 	0.038940 	4905 	0.038701
42.01 	0.037637 	4942 	0.037044
42.03 	0.039077 	4939 	0.038365
42.05 	0.042205 	4952 	0.042087
42.07 	0.040308 	4937 	0.039833
42.09 	0.037995 	4948 	0.037403
42.11 	0.037209 	4945 	0.037091
42.13 	0.035187 	4945 	0.034832
42.15 	0.038477 	4938 	0.038003
42.17 	0.042904 	4918 	0.042189
42.19 	0.039324 	4908 	0.038846
42.21 	0.036319 	4901 	0.035721
42.23 	0.036795 	4892 	0.036196
42.25 	0.041931 	4889 	0.041332
42.27 	0.033648 	4874 	0.033287
42.29 	0.041127 	4863 	0.040645
42.31 	0.038105 	4855 	0.037984
42.33 	0.035168 	4834 	0.034562
42.35 	0.047747 	4838 	0.046899
42.37 	0.039959 	4830 	0.039231
42.39 	0.039134 	4804 	0.038382
42.41 	0.039342 	4804 	0.039098
42.43 	0.040693 	4792 	0.040448
42.45 	0.041457 	4776 	0.041089
42.47 	0.041973 	4765 	0.041604
42.49 	0.040714 	4765 	0.040714
42.51 	0.036896 	4743 	0.036402
42.53 	0.041455 	4728 	0.041207
42.55 	0.040144 	4708 	0.039522
42.57 	0.041438 	4730 	0.040942
42.59 	0.041658 	4729 	0.041410
42.61 	0.042056 	4708 	0.041434
42.63 	0.044383 	4709 	0.044134
42.65 	0.040342 	4685 	0.039196
42.67 	0.042058 	4684 	0.041683
42.69 	0.041934 	4674 	0.041558
42.71 	0.034527 	4663 	0.034527
42.73 	0.036853 	4640 	0.036348
42.75 	0.036387 	4617 	0.036260
42.77 	0.036957 	4600 	0.036702
42.79 	0.041467 	4582 	0.040955
42.81 	0.036607 	4562 	0.036093
42.83 	0.039683 	4536 	0.039424
42.85 	0.039532 	4528 	0.038885
42.87 	0.038008 	4499 	0.037488
42.89 	0.036384 	4480 	0.035992
42.91 	0.036131 	4456 	0.035342
42.93 	0.038237 	4446 	0.037973
42.95 	0.033741 	4416 	0.033210
42.97 	0.042490 	4401 	0.042091
42.99 	0.039225 	4385 	0.038690
43.01 	0.038276 	4363 	0.037605
43.03 	0.040157 	4333 	0.039616
43.05 	0.036532 	4325 	0.036125
43.07 	0.031425 	4296 	0.031152
43.09 	0.039458 	4283 	0.038911
43.11 	0.033373 	4255 	0.032959
43.13 	0.033514 	4237 	0.033376
43.15 	0.033048 	4206 	0.032491
43.17 	0.035894 	4179 	0.035613
43.19 	0.036242 	4194 	0.035963
43.21 	0.035954 	4172 	0.035673
43.23 	0.039721 	4154 	0.039298
43.25 	0.042080 	4135 	0.041655
43.27 	0.038733 	4105 	0.038162
43.29 	0.047805 	4100 	0.047091
43.31 	0.038980 	4079 	0.038837
43.33 	0.040484 	4051 	0.039761
43.35 	0.038938 	4032 	0.038648
43.37 	0.035866 	4015 	0.035720
43.39 	0.034483 	4002 	0.033873
43.41 	0.039023 	3972 	0.038728
43.43 	0.036869 	3960 	0.036573
43.45 	0.034562 	3935 	0.034264
43.47 	0.038256 	3921 	0.038256
43.49 	0.037978 	3897 	0.037527
43.51 	0.040753 	3877 	0.040300
43.53 	0.039865 	3863 	0.039410
43.55 	0.032726 	2964 	0.032528
43.57 	0.039768 	2238 	0.039506
43.59 	0.034364 	1746 	0.033693
43.61 	0.031828 	1351 	0.031828
43.63 	0.039960 	1001 	0.039960
43.65 	0.029112 	687 	0.029112
43.67 	0.041833 	502 	0.041833
43.69 	0.049046 	367 	0.049046
43.71 	0.029289 	239 	0.029289
43.73 	0.041667 	120 	0.041667
43.75 	0.062500 	16 	0.062500