File: Example_Data/25SC_s1_0014.003.dat
#F C:\frames\spec\25SC_s1_0014.003
#C title =s:14 frm:3 25SC_s1
#C wavelength =0.15406

#S 1  fr_average C:\frames\spec\25SC_s1_0014.003 C:\win32app\speccom\mask.axs chi 0 180 0 360 0.02
#C 2 theta =0.000000 to 180 deg
#C   q   =0.000000 to 81.568 nm^-1
#C  chi  =0.000000 to 360 deg
#C collumns:
#C  1 position (2theta or chi in degrees)
#C  2 average intensity (sum of all counts in the region divided with number of pixels)
#C  3 Number of pixels in region)
#C  4 error (sum of sqrt(intensity) for all pixels divided by number)
#N 4
#L TTh  Int  N_pix  Err
32.99 	0.065574 	61 	0.065574
33.01 	0.069874 	873 	0.067190
33.03 	0.059669 	1391 	0.059248
33.05 	0.068298 	1757 	0.066965
33.07 	0.065854 	2050 	0.065282
33.09 	0.055390 	2347 	0.054142
33.11 	0.062040 	2579 	0.061585
33.13 	0.065521 	2793 	0.064472
33.15 	0.055018 	2999 	0.053456
33.17 	0.055295 	3201 	0.054380
33.19 	0.060144 	3342 	0.059443
33.21 	0.061118 	3436 	0.060606
33.23 	0.055634 	3523 	0.055468
33.25 	0.057863 	3612 	0.057376
33.27 	0.060606 	3630 	0.059315
33.29 	0.057292 	3648 	0.056489
33.31 	0.062022 	3660 	0.060902
33.33 	0.058600 	3686 	0.057488
33.35 	0.057120 	3694 	0.055375
33.37 	0.065967 	3714 	0.064521
33.39 	0.060070 	3729 	0.058630
33.41 	0.055882 	3740 	0.054760
33.43 	0.056900 	3761 	0.056277
33.45 	0.064140 	3773 	0.063053
33.47 	0.060032 	3798 	0.059106
33.49 	0.058283 	3809 	0.057822
33.51 	0.061075 	3815 	0.059693
33.53 	0.059620 	3841 	0.058400
33.55 	0.059589 	3843 	0.057887
33.57 	0.063709 	3877 	0.062778
33.59 	0.058763 	3880 	0.057857
33.61 	0.057304 	3909 	0.055481
33.63 	0.054606 	3919 	0.053709
33.65 	0.062071 	3931 	0.060730
33.67 	0.053364 	3954 	0.052919
33.69 	0.064002 	3953 	0.062965
33.71 	0.057358 	3975 	0.056032
33.73 	0.056943 	4004 	0.056358
33.75 	0.063016 	3999 	0.061990
33.77 	0.060124 	4025 	0.059542
33.79 	0.057164 	4041 	0.056149
33.81 	0.059931 	4038 	0.058915
33.83 	0.063210 	4050 	0.062174
33.85 	0.061722 	4099 	0.060413
33.87 	0.058866 	4111 	0.058012
33.89 	0.066974 	4121 	0.065979
33.91 	0.056881 	4149 	0.055893
33.93 	0.057095 	4151 	0.056107
33.95 	0.062425 	4181 	0.059740
33.97 	0.057518 	4190 	0.056539
33.99 	0.053810 	4200 	0.053531
34.01 	0.052457 	4213 	0.051321
34.03 	0.069039 	4244 	0.068210
34.05 	0.055033 	4252 	0.053931
34.07 	0.055295 	4268 	0.054472
34.09 	0.057163 	4286 	0.056069
34.11 	0.065551 	4302 	0.064734
34.13 	0.062442 	4308 	0.061626
34.15 	0.054953 	4331 	0.054276
34.17 	0.056092 	4350 	0.054745
34.19 	0.056167 	4362 	0.054690
34.21 	0.061313 	4371 	0.060107
34.23 	0.056681 	4393 	0.055614
34.25 	0.056540 	4404 	0.055720
34.27 	0.057892 	4422 	0.056568
34.29 	0.061330 	4435 	0.060802
34.31 	0.060341 	4458 	0.059421
34.33 	0.067994 	4471 	0.066815
34.35 	0.063336 	4484 	0.062030
34.37 	0.062124 	4491 	0.060950
34.39 	0.058641 	4502 	0.057448
34.41 	0.053690 	4526 	0.052784
34.43 	0.059925 	4539 	0.058635
34.45 	0.052922 	4535 	0.052534
34.47 	0.058798 	4592 	0.057905
34.49 	0.061127 	4597 	0.060490
34.51 	0.058185 	4606 	0.057295
34.53 	0.063537 	4643 	0.062149
34.55 	0.058583 	4643 	0.057195
34.57 	0.056652 	4660 	0.055898
34.59 	0.054759 	4675 	0.054258
34.61 	0.063445 	4697 	0.062946
34.63 	0.060510 	4710 	0.059515
34.65 	0.060580 	4721 	0.059071
34.67 	0.057372 	4741 	0.056363
34.69 	0.067732 	4754 	0.066500
34.71 	0.056441 	4766 	0.055704
34.73 	0.059745 	4787 	0.058889
34.75 	0.060732 	4808 	0.059392
34.77 	0.055832 	4818 	0.054495
34.79 	0.067164 	4824 	0.065707
34.81 	0.058824 	4845 	0.058098
34.83 	0.058824 	4862 	0.057498
34.85 	0.057096 	4869 	0.056494
34.87 	0.057108 	4868 	0.055784
34.89 	0.054281 	4882 	0.053321
34.91 	0.065752 	4882 	0.063832
34.93 	0.063278 	4899 	0.061824
34.95 	0.056442 	4890 	0.055843
34.97 	0.060792 	4902 	0.059597
34.99 	0.064938 	4897 	0.062785
35.01 	0.066017 	4923 	0.064708
35.03 	0.056646 	4943 	0.055698
35.05 	0.065494 	4947 	0.064646
35.07 	0.056478 	4940 	0.056003
35.09 	0.054714 	4953 	0.054360
35.11 	0.058217 	4947 	0.057625
35.13 	0.063937 	4958 	0.062756
35.15 	0.060563 	4937 	0.059377
35.17 	0.058835 	4946 	0.058243
35.19 	0.057871 	4942 	0.057160
35.21 	0.067745 	4945 	0.066423
35.23 	0.051972 	4945 	0.051498
35.25 	0.061906 	4943 	0.060839
35.27 	0.061035 	4948 	0.060088
35.29 	0.062487 	4945 	0.061777
35.31 	0.063450 	4933 	0.061432
35.33 	0.058669 	4943 	0.058076
35.35 	0.058883 	4942 	0.057441
35.37 	0.056084 	4939 	0.055017
35.39 	0.061881 	4945 	0.060578
35.41 	0.061713 	4926 	0.060524
35.43 	0.058990 	4933 	0.058159
35.45 	0.058740 	4937 	0.057791
35.47 	0.059420 	4931 	0.058331
35.49 	0.061507 	4910 	0.059817
35.51 	0.063946 	4926 	0.063233
35.53 	0.055365 	4949 	0.054655
35.55 	0.061678 	4945 	0.060593
35.57 	0.060207 	4933 	0.058762
35.59 	0.065319 	4945 	0.063897
35.61 	0.059490 	4942 	0.057475
35.63 	0.065547 	4943 	0.064599
35.65 	0.055005 	4945 	0.053820
35.67 	0.059085 	4942 	0.058137
35.69 	0.062879 	4946 	0.061221
35.71 	0.060158 	4937 	0.059327
35.73 	0.057942 	4936 	0.057586
35.75 	0.058000 	4931 	0.057406
35.77 	0.058372 	4951 	0.057307
35.79 	0.065288 	4932 	0.064100
35.81 	0.057369 	4933 	0.056162
35.83 	0.058027 	4946 	0.057435
35.85 	0.062614 	4935 	0.061190
35.87 	0.062767 	4923 	0.060744
35.89 	0.054925 	4934 	0.053362
35.91 	0.056221 	4927 	0.055032
35.93 	0.060686 	4927 	0.060092
35.95 	0.058166 	4917 	0.057451
35.97 	0.065757 	4912 	0.064187
35.99 	0.057704 	4939 	0.056518
36.01 	0.061258 	4930 	0.059812
36.03 	0.067166 	4943 	0.064638
36.05 	0.062690 	4945 	0.061742
36.07 	0.057704 	4939 	0.056835
36.09 	0.057287 	4940 	0.056339
36.11 	0.062082 	4929 	0.061606
36.13 	0.061109 	4942 	0.060398
36.15 	0.056692 	4939 	0.055012
36.17 	0.056447 	4925 	0.054881
36.19 	0.052024 	4940 	0.050957
36.21 	0.057821 	4929 	0.056514
36.23 	0.063830 	4935 	0.063118
36.25 	0.060312 	4941 	0.059482
36.27 	0.057868 	4925 	0.057135
36.29 	0.060637 	4931 	0.059548
36.31 	0.057427 	4928 	0.056338
36.33 	0.061626 	4933 	0.060320
36.35 	0.057821 	4929 	0.056989
36.37 	0.056673 	4923 	0.055721
36.39 	0.060557 	4921 	0.059485
36.41 	0.059436 	4896 	0.058718
36.43 	0.054789 	4928 	0.054195
36.45 	0.060243 	4930 	0.059768
36.47 	0.064222 	4936 	0.062778
36.49 	0.062121 	4942 	0.061054
36.51 	0.056152 	4933 	0.055302
36.53 	0.054016 	4943 	0.053305
36.55 	0.057439 	4927 	0.056349
36.57 	0.054520 	4934 	0.053807
36.59 	0.062968 	4939 	0.062019
36.61 	0.056175 	4931 	0.055344
36.63 	0.060434 	4931 	0.059246
36.65 	0.059813 	4932 	0.058863
36.67 	0.057201 	4930 	0.056607
36.69 	0.054778 	4929 	0.053213
36.71 	0.055883 	4921 	0.055050
36.73 	0.057665 	4925 	0.056832
36.75 	0.053398 	4944 	0.052569
36.77 	0.058345 	4919 	0.056916
36.79 	0.063605 	4921 	0.063010
36.81 	0.060415 	4916 	0.059581
36.83 	0.060631 	4915 	0.059796
36.85 	0.055737 	4898 	0.055378
36.87 	0.055016 	4944 	0.054187
36.89 	0.055126 	4916 	0.054530
36.91 	0.053633 	4941 	0.052566
36.93 	0.060852 	4930 	0.059783
36.95 	0.056558 	4933 	0.055370
36.97 	0.054520 	4934 	0.053807
36.99 	0.058967 	4935 	0.058373
37.01 	0.062437 	4933 	0.061368
37.03 	0.057067 	4924 	0.055997
37.05 	0.058047 	4927 	0.057215
37.07 	0.061398 	4935 	0.060073
37.09 	0.058644 	4928 	0.058169
37.11 	0.056940 	4935 	0.055872
37.13 	0.058692 	4924 	0.058097
37.15 	0.055205 	4909 	0.054588
37.17 	0.056546 	4934 	0.055715
37.19 	0.060711 	4925 	0.059164
37.21 	0.047997 	4917 	0.047282
37.23 	0.054087 	4918 	0.053372
37.25 	0.063124 	4911 	0.061911
37.27 	0.052513 	4894 	0.052154
37.29 	0.057201 	4930 	0.055894
37.31 	0.058156 	4935 	0.057325
37.33 	0.058656 	4927 	0.057943
37.35 	0.051843 	4938 	0.051131
37.37 	0.058656 	4927 	0.057824
37.39 	0.056986 	4931 	0.056016
37.41 	0.055567 	4931 	0.054854
37.43 	0.057583 	4932 	0.057108
37.45 	0.048741 	4924 	0.048265
37.47 	0.050314 	4929 	0.049364
37.49 	0.054641 	4923 	0.053571
37.51 	0.054936 	4933 	0.053749
37.53 	0.051230 	4919 	0.050277
37.55 	0.059432 	4930 	0.059076
37.57 	0.051980 	4925 	0.050771
37.59 	0.050458 	4915 	0.050100
37.61 	0.049167 	4922 	0.048453
37.63 	0.061191 	4919 	0.060358
37.65 	0.050630 	4918 	0.049439
37.67 	0.054241 	4904 	0.053405
37.69 	0.052879 	4898 	0.052281
37.71 	0.052140 	4929 	0.051190
37.73 	0.049300 	4929 	0.048706
37.75 	0.053846 	4940 	0.052542
37.77 	0.053862 	4920 	0.053128
37.79 	0.050304 	4930 	0.049829
37.81 	0.056761 	4933 	0.055672
37.83 	0.052846 	4920 	0.051516
37.85 	0.049370 	4922 	0.048537
37.87 	0.055882 	4939 	0.055170
37.89 	0.051574 	4925 	0.050721
37.91 	0.057201 	4930 	0.055775
37.93 	0.050823 	4919 	0.049871
37.95 	0.046738 	4921 	0.046262
37.97 	0.053561 	4929 	0.052353
37.99 	0.054560 	4912 	0.053725
38.01 	0.057224 	4928 	0.055916
38.03 	0.053982 	4909 	0.053028
38.05 	0.056244 	4925 	0.055411
38.07 	0.055408 	4909 	0.054573
38.09 	0.057401 	4878 	0.056800
38.11 	0.054914 	4935 	0.053964
38.13 	0.053271 	4937 	0.053034
38.15 	0.054697 	4918 	0.053744
38.17 	0.056795 	4930 	0.055963
38.19 	0.060041 	4930 	0.058734
38.21 	0.051188 	4923 	0.050236
38.23 	0.055083 	4938 	0.053659
38.25 	0.059793 	4917 	0.058482
38.27 	0.063489 	4930 	0.062776
38.29 	0.060317 	4924 	0.059246
38.31 	0.055003 	4927 	0.053814
38.33 	0.053412 	4924 	0.052698
38.35 	0.060065 	4928 	0.059332
38.37 	0.058692 	4924 	0.057384
38.39 	0.056020 	4909 	0.055184
38.41 	0.056673 	4923 	0.056197
38.43 	0.065094 	4916 	0.063187
38.45 	0.064457 	4918 	0.063504
38.47 	0.060322 	4907 	0.058770
38.49 	0.053106 	4877 	0.052506
38.51 	0.051298 	4932 	0.050704
38.53 	0.061879 	4929 	0.060433
38.55 	0.060575 	4936 	0.059982
38.57 	0.054845 	4923 	0.054131
38.59 	0.051787 	4924 	0.050954
38.61 	0.059765 	4936 	0.059646
38.63 	0.057880 	4924 	0.056571
38.65 	0.056120 	4918 	0.055287
38.67 	0.060361 	4937 	0.059886
38.69 	0.056684 	4922 	0.055256
38.71 	0.054833 	4924 	0.053882
38.73 	0.055510 	4918 	0.055034
38.75 	0.050538 	4927 	0.049943
38.77 	0.055251 	4923 	0.055132
38.79 	0.055330 	4934 	0.054855
38.81 	0.051303 	4912 	0.050587
38.83 	0.057735 	4919 	0.056425
38.85 	0.048249 	4912 	0.047494
38.87 	0.050295 	4911 	0.049222
38.89 	0.050031 	4897 	0.049672
38.91 	0.054049 	4903 	0.053212
38.93 	0.046983 	4938 	0.046034
38.95 	0.051850 	4918 	0.051612
38.97 	0.053742 	4931 	0.053148
38.99 	0.049625 	4937 	0.048894
39.01 	0.050224 	4918 	0.049509
39.03 	0.053304 	4934 	0.052235
39.05 	0.048325 	4925 	0.048087
39.07 	0.055849 	4924 	0.055254
39.09 	0.047126 	4923 	0.046650
39.11 	0.050700 	4931 	0.049987
39.13 	0.045907 	4923 	0.045550
39.15 	0.047609 	4915 	0.046656
39.17 	0.049625 	4937 	0.049151
39.19 	0.052471 	4917 	0.051856
39.21 	0.052749 	4910 	0.051079
39.23 	0.038579 	4925 	0.038460
39.25 	0.050589 	4922 	0.049637
39.27 	0.055397 	4910 	0.054681
39.29 	0.050806 	4901 	0.050328
39.31 	0.052211 	4884 	0.051352
39.33 	0.045630 	4931 	0.045036
39.35 	0.054509 	4935 	0.053796
39.37 	0.048286 	4929 	0.047434
39.39 	0.051329 	4929 	0.051210
39.41 	0.043602 	4931 	0.043245
39.43 	0.056963 	4933 	0.056013
39.45 	0.048934 	4925 	0.048220
39.47 	0.049360 	4923 	0.048408
39.49 	0.044395 	4933 	0.043801
39.51 	0.048538 	4924 	0.047804
39.53 	0.044282 	4923 	0.043568
39.55 	0.042692 	4919 	0.042215
39.57 	0.040138 	4933 	0.039425
39.59 	0.051710 	4912 	0.051352
39.61 	0.056470 	4923 	0.055518
39.63 	0.052215 	4922 	0.051500
39.65 	0.054811 	4926 	0.054098
39.67 	0.047018 	4913 	0.046183
39.69 	0.048617 	4916 	0.047425
39.71 	0.052094 	4895 	0.051496
39.73 	0.047270 	4908 	0.046792
39.75 	0.052963 	4928 	0.052249
39.77 	0.054103 	4935 	0.053629
39.79 	0.041819 	4926 	0.041343
39.81 	0.050741 	4927 	0.050265
39.83 	0.047629 	4934 	0.047273
39.85 	0.050741 	4927 	0.050146
39.87 	0.049746 	4925 	0.049270
39.89 	0.050061 	4934 	0.049586
39.91 	0.050589 	4922 	0.049637
39.93 	0.046992 	4937 	0.046261
39.95 	0.048627 	4915 	0.047792
39.97 	0.048498 	4928 	0.047904
39.99 	0.052109 	4932 	0.051752
40.01 	0.048800 	4918 	0.048562
40.03 	0.046875 	4928 	0.046281
40.05 	0.042709 	4917 	0.042232
40.07 	0.048345 	4923 	0.047988
40.09 	0.046989 	4916 	0.046155
40.11 	0.050041 	4916 	0.049326
40.13 	0.053513 	4896 	0.052197
40.15 	0.046815 	4913 	0.046218
40.17 	0.051339 	4928 	0.050032
40.19 	0.048489 	4929 	0.047775
40.21 	0.044782 	4935 	0.044307
40.23 	0.050081 	4932 	0.049250
40.25 	0.053049 	4920 	0.052215
40.27 	0.045777 	4937 	0.045539
40.29 	0.046479 	4927 	0.046241
40.31 	0.040899 	4939 	0.040306
40.33 	0.046634 	4932 	0.046159
40.35 	0.047774 	4919 	0.047059
40.37 	0.050720 	4929 	0.050007
40.39 	0.049888 	4931 	0.049294
40.41 	0.048934 	4925 	0.048458
40.43 	0.044088 	4922 	0.043493
40.45 	0.049463 	4933 	0.048513
40.47 	0.045140 	4918 	0.044426
40.49 	0.039789 	4926 	0.039551
40.51 	0.043681 	4922 	0.043324
40.53 	0.041090 	4916 	0.040852
40.55 	0.045232 	4908 	0.044755
40.57 	0.048262 	4890 	0.048022
40.59 	0.046790 	4937 	0.045603
40.61 	0.042148 	4935 	0.041792
40.63 	0.043205 	4930 	0.042492
40.65 	0.041523 	4937 	0.041167
40.67 	0.042579 	4932 	0.042342
40.69 	0.043144 	4937 	0.042906
40.71 	0.048256 	4932 	0.047662
40.73 	0.046691 	4926 	0.046334
40.75 	0.048266 	4931 	0.047672
40.77 	0.040494 	4939 	0.040020
40.79 	0.053615 	4924 	0.052663
40.81 	0.046549 	4941 	0.046194
40.83 	0.049716 	4928 	0.049597
40.85 	0.048335 	4924 	0.047621
40.87 	0.046672 	4928 	0.046078
40.89 	0.046846 	4931 	0.046371
40.91 	0.042657 	4923 	0.042181
40.93 	0.044589 	4934 	0.043995
40.95 	0.051089 	4913 	0.050612
40.97 	0.044679 	4924 	0.044084
40.99 	0.042242 	4924 	0.041885
41.01 	0.042549 	4912 	0.042072
41.03 	0.048114 	4905 	0.047517
41.05 	0.040721 	4936 	0.040365
41.07 	0.043408 	4930 	0.042814
41.09 	0.045758 	4939 	0.045521
41.11 	0.050051 	4935 	0.048982
41.13 	0.046394 	4936 	0.045563
41.15 	0.048978 	4941 	0.048267
41.17 	0.044994 	4934 	0.044638
41.19 	0.045639 	4930 	0.045144
41.21 	0.045777 	4937 	0.044946
41.23 	0.046366 	4939 	0.046010
41.25 	0.049057 	4933 	0.048464
41.27 	0.046441 	4931 	0.045966
41.29 	0.048904 	4928 	0.048429
41.31 	0.047233 	4933 	0.046758
41.33 	0.043549 	4937 	0.043193
41.35 	0.044350 	4938 	0.043875
41.37 	0.040820 	4924 	0.040107
41.39 	0.037705 	4933 	0.037468
41.41 	0.050548 	4926 	0.049835
41.43 	0.042605 	4929 	0.041892
41.45 	0.044160 	4914 	0.043564
41.47 	0.049330 	4926 	0.048735
41.49 	0.045585 	4892 	0.045225
41.51 	0.046964 	4940 	0.046489
41.53 	0.044094 	4944 	0.043264
41.55 	0.039108 	4935 	0.038871
41.57 	0.040882 	4941 	0.040764
41.59 	0.046017 	4933 	0.045779
41.61 	0.044418 	4953 	0.044299
41.63 	0.045160 	4938 	0.044685
41.65 	0.044431 	4929 	0.044193
41.67 	0.043725 	4940 	0.043132
41.69 	0.047908 	4947 	0.047316
41.71 	0.042156 	4934 	0.041800
41.73 	0.040721 	4936 	0.039871
41.75 	0.048489 	4929 	0.048251
41.77 	0.041490 	4941 	0.040897
41.79 	0.045105 	4944 	0.044868
41.81 	0.045583 	4936 	0.045109
41.83 	0.043831 	4928 	0.043475
41.85 	0.044948 	4939 	0.044099
41.87 	0.041743 	4935 	0.041505
41.89 	0.048247 	4933 	0.047890
41.91 	0.037682 	4936 	0.037326
41.93 	0.041363 	4932 	0.041006
41.95 	0.041979 	4931 	0.041861
41.97 	0.047212 	4914 	0.046258
41.99 	0.044648 	4905 	0.043693
42.01 	0.042088 	4942 	0.041851
42.03 	0.047378 	4939 	0.046054
42.05 	0.040792 	4952 	0.040673
42.07 	0.044359 	4937 	0.043766
42.09 	0.041633 	4948 	0.041159
42.11 	0.043074 	4945 	0.042482
42.13 	0.043883 	4945 	0.043172
42.15 	0.040502 	4938 	0.039909
42.17 	0.042294 	4918 	0.041678
42.19 	0.033822 	4908 	0.033703
42.21 	0.044685 	4901 	0.043848
42.23 	0.044358 	4892 	0.044119
42.25 	0.040499 	4889 	0.040259
42.27 	0.037341 	4874 	0.036961
42.29 	0.039071 	4863 	0.038830
42.31 	0.037487 	4855 	0.036763
42.33 	0.041374 	4834 	0.041131
42.35 	0.038239 	4838 	0.037977
42.37 	0.045342 	4830 	0.045099
42.39 	0.040591 	4804 	0.040103
42.41 	0.039967 	4804 	0.039479
42.43 	0.043197 	4792 	0.042830
42.45 	0.042085 	4776 	0.041575
42.47 	0.043861 	4765 	0.043001
42.49 	0.040504 	4765 	0.039520
42.51 	0.039005 	4743 	0.038634
42.53 	0.041667 	4728 	0.041171
42.55 	0.044817 	4708 	0.044444
42.57 	0.040803 	4730 	0.040432
42.59 	0.041446 	4729 	0.040827
42.61 	0.038233 	4708 	0.037486
42.63 	0.037163 	4709 	0.036665
42.65 	0.039701 	4685 	0.039076
42.67 	0.040137 	4684 	0.039136
42.69 	0.041934 	4674 	0.041433
42.71 	0.041175 	4663 	0.041175
42.73 	0.038362 	4640 	0.037983
42.75 	0.043318 	4617 	0.042811
42.77 	0.040217 	4600 	0.039708
42.79 	0.039066 	4582 	0.038427
42.81 	0.039018 	4562 	0.038633
42.83 	0.042769 	4536 	0.042640
42.85 	0.041519 	4528 	0.040873
42.87 	0.040009 	4499 	0.039228
42.89 	0.037723 	4480 	0.037200
42.91 	0.039048 	4456 	0.038260
42.93 	0.041610 	4446 	0.041347
42.95 	0.039402 	4416 	0.038341
42.97 	0.045217 	4401 	0.044818
42.99 	0.044698 	4385 	0.044030
43.01 	0.044006 	4363 	0.043335
43.03 	0.046619 	4333 	0.046213
43.05 	0.045549 	4325 	0.044985
43.07 	0.039804 	4296 	0.039668
43.09 	0.044595 	4283 	0.043911
43.11 	0.046533 	4255 	0.046258
43.13 	0.039651 	4237 	0.039236
43.15 	0.043509 	4206 	0.042952
43.17 	0.048098 	4179 	0.047677
43.19 	0.045780 	4194 	0.044942
43.21 	0.036433 	4172 	0.036293
43.23 	0.039239 	4154 	0.038675
43.25 	0.037001 	4135 	0.036435
43.27 	0.043118 	4105 	0.042547
43.29 	0.034878 	4100 	0.034449
43.31 	0.044128 	4079 	0.043410
43.33 	0.041224 	4051 	0.040212
43.35 	0.036706 	4032 	0.036416
43.37 	0.049066 	4015 	0.048628
43.39 	0.044728 	4002 	0.044581
43.41 	0.045317 	3972 	0.044875
43.43 	0.044697 	3960 	0.044401
43.45 	0.043202 	3935 	0.042309
43.47 	0.044887 	3921 	0.044438
43.49 	0.043880 	3897 	0.043429
43.51 	0.039464 	3877 	0.039161
43.53 	0.040642 	3863 	0.039884
43.55 	0.033063 	2964 	0.033063
43.57 	0.050045 	2238 	0.049521
43.59 	0.042383 	1746 	0.041376
43.61 	0.037750 	1351 	0.037316
43.63 	0.041958 	1001 	0.041373
43.65 	0.039301 	687 	0.038449
43.67 	0.047809 	502 	0.046642
43.69 	0.046322 	367 	0.044725
43.71 	0.004184 	239 	0.004184
43.73 	0.033333 	120 	0.033333
43.75 	0.062500 	16 	0.062500