File: Example_Data/25SC_s1_0021.001.dat
#F C:\frames\spec\25SC_s1_0021.001
#C title =s:21 frm:1 25SC_s1
#C wavelength =0.15406

#S 1  fr_average C:\frames\spec\25SC_s1_0021.001 C:\win32app\speccom\mask.axs chi 0 180 0 360 0.02
#C 2 theta =0.000000 to 180 deg
#C   q   =0.000000 to 81.568 nm^-1
#C  chi  =0.000000 to 360 deg
#C collumns:
#C  1 position (2theta or chi in degrees)
#C  2 average intensity (sum of all counts in the region divided with number of pixels)
#C  3 Number of pixels in region)
#C  4 error (sum of sqrt(intensity) for all pixels divided by number)
#N 4
#L TTh  Int  N_pix  Err
32.99 	0.081967 	61 	0.081967
33.01 	0.056128 	873 	0.055457
33.03 	0.065421 	1391 	0.063315
33.05 	0.062038 	1757 	0.061371
33.07 	0.052683 	2050 	0.051254
33.09 	0.054538 	2347 	0.053789
33.11 	0.051958 	2579 	0.051277
33.13 	0.061583 	2793 	0.060114
33.15 	0.059020 	2999 	0.058238
33.17 	0.060918 	3201 	0.059637
33.19 	0.055655 	3342 	0.054604
33.21 	0.064028 	3436 	0.062636
33.23 	0.056202 	3523 	0.054179
33.25 	0.061739 	3612 	0.059793
33.27 	0.060882 	3630 	0.059106
33.29 	0.063048 	3648 	0.061442
33.31 	0.060929 	3660 	0.059489
33.33 	0.052632 	3686 	0.051678
33.35 	0.061992 	3694 	0.060882
33.37 	0.060312 	3714 	0.058735
33.39 	0.059802 	3729 	0.059173
33.41 	0.062032 	3740 	0.061406
33.43 	0.068333 	3761 	0.067710
33.45 	0.062815 	3773 	0.061883
33.47 	0.060821 	3798 	0.060050
33.49 	0.058546 	3809 	0.057444
33.51 	0.060813 	3815 	0.059277
33.53 	0.060141 	3841 	0.059073
33.55 	0.053864 	3843 	0.053254
33.57 	0.059582 	3877 	0.058676
33.59 	0.063402 	3880 	0.062798
33.61 	0.060629 	3909 	0.060030
33.63 	0.062006 	3919 	0.061258
33.65 	0.064615 	3931 	0.064019
33.67 	0.061457 	3954 	0.060420
33.69 	0.062231 	3953 	0.060749
33.71 	0.060126 	3975 	0.058652
33.73 	0.059940 	4004 	0.059062
33.75 	0.050263 	3999 	0.049823
33.77 	0.060124 	4025 	0.059542
33.79 	0.060381 	4041 	0.059076
33.81 	0.057949 	4038 	0.056475
33.83 	0.058025 	4050 	0.057157
33.85 	0.060259 	4099 	0.059401
33.87 	0.064218 	4111 	0.062793
33.89 	0.060180 	4121 	0.059185
33.91 	0.057845 	4149 	0.056857
33.93 	0.060467 	4151 	0.059621
33.95 	0.059316 	4181 	0.058335
33.97 	0.054177 	4190 	0.053478
33.99 	0.061190 	4200 	0.059633
34.01 	0.057204 	4213 	0.056370
34.03 	0.053959 	4244 	0.053268
34.05 	0.064205 	4252 	0.063654
34.07 	0.064667 	4268 	0.063569
34.09 	0.051097 	4286 	0.050277
34.11 	0.056253 	4302 	0.055027
34.13 	0.058496 	4308 	0.057000
34.15 	0.060494 	4331 	0.059547
34.17 	0.062529 	4350 	0.061182
34.19 	0.061210 	4362 	0.060539
34.21 	0.059483 	4371 	0.058947
34.23 	0.059640 	4393 	0.058018
34.25 	0.056312 	4404 	0.055359
34.27 	0.059701 	4422 	0.058355
34.29 	0.064487 	4435 	0.063166
34.31 	0.056752 	4458 	0.055964
34.33 	0.057034 	4471 	0.056117
34.35 	0.062444 	4484 	0.061138
34.37 	0.055890 	4491 	0.055107
34.39 	0.047979 	4502 	0.047198
34.41 	0.063411 	4526 	0.062505
34.43 	0.056841 	4539 	0.055937
34.45 	0.057111 	4535 	0.055820
34.47 	0.052700 	4592 	0.051425
34.49 	0.056559 	4597 	0.056049
34.51 	0.057751 	4606 	0.056077
34.53 	0.055352 	4643 	0.054217
34.55 	0.060737 	4643 	0.059475
34.57 	0.057296 	4660 	0.055788
34.59 	0.054118 	4675 	0.052593
34.61 	0.058335 	4697 	0.057213
34.63 	0.054565 	4710 	0.053694
34.65 	0.054438 	4721 	0.053569
34.67 	0.053575 	4741 	0.052957
34.69 	0.057846 	4754 	0.056614
34.71 	0.053714 	4766 	0.053099
34.73 	0.050762 	4787 	0.050151
34.75 	0.052829 	4808 	0.052219
34.77 	0.050851 	4818 	0.050486
34.79 	0.056385 	4824 	0.055413
34.81 	0.058617 	4845 	0.057771
34.83 	0.051625 	4862 	0.050762
34.85 	0.054837 	4869 	0.053874
34.87 	0.057518 	4868 	0.056796
34.89 	0.061041 	4882 	0.059701
34.91 	0.056329 	4882 	0.055249
34.93 	0.054705 	4899 	0.054466
34.95 	0.051329 	4890 	0.050850
34.97 	0.056508 	4902 	0.055552
34.99 	0.056974 	4897 	0.055858
35.01 	0.058298 	4923 	0.057465
35.03 	0.055837 	4943 	0.054414
35.05 	0.057004 	4947 	0.056294
35.07 	0.060121 	4940 	0.058580
35.09 	0.052292 	4953 	0.051345
35.11 	0.057813 	4947 	0.056866
35.13 	0.055264 	4958 	0.053728
35.15 	0.060361 	4937 	0.059411
35.17 	0.054994 	4946 	0.054402
35.19 	0.061716 	4942 	0.060175
35.21 	0.059656 	4945 	0.058571
35.23 	0.062690 	4945 	0.061268
35.25 	0.061501 	4943 	0.060889
35.27 	0.056791 	4948 	0.056317
35.29 	0.051567 	4945 	0.051212
35.31 	0.062234 	4933 	0.061165
35.33 	0.058062 	4943 	0.056995
35.35 	0.062323 	4942 	0.061256
35.37 	0.059324 	4939 	0.058138
35.39 	0.055612 	4945 	0.055019
35.41 	0.060901 	4926 	0.059950
35.43 	0.053314 	4933 	0.052008
35.45 	0.055702 	4937 	0.054515
35.47 	0.061448 	4931 	0.060260
35.49 	0.056212 	4910 	0.055615
35.51 	0.060901 	4926 	0.059474
35.53 	0.062033 	4949 	0.060494
35.55 	0.053589 	4945 	0.052879
35.57 	0.060004 	4933 	0.059173
35.59 	0.063296 	4945 	0.062092
35.61 	0.060097 	4942 	0.059030
35.63 	0.057860 	4943 	0.056556
35.65 	0.051163 	4945 	0.050570
35.67 	0.059288 	4942 	0.057984
35.69 	0.057016 	4946 	0.056305
35.71 	0.059550 	4937 	0.058601
35.73 	0.052269 	4936 	0.051201
35.75 	0.058406 	4931 	0.057931
35.77 	0.059180 	4951 	0.057524
35.79 	0.057786 	4932 	0.057073
35.81 	0.063248 	4933 	0.061704
35.83 	0.051355 	4946 	0.050762
35.85 	0.058156 	4935 	0.057563
35.87 	0.056267 	4923 	0.054958
35.89 	0.059789 	4934 	0.058839
35.91 	0.055409 	4927 	0.054577
35.93 	0.054597 	4927 	0.054122
35.95 	0.058979 	4917 	0.058622
35.97 	0.054967 	4912 	0.054371
35.99 	0.052642 	4939 	0.052168
36.01 	0.061460 	4930 	0.060391
36.03 	0.056039 	4943 	0.054498
36.05 	0.060465 	4945 	0.059399
36.07 	0.064588 	4939 	0.063046
36.09 	0.050810 	4940 	0.050335
36.11 	0.057212 	4929 	0.056618
36.13 	0.058681 	4942 	0.057732
36.15 	0.057097 	4939 	0.055911
36.17 	0.062335 	4925 	0.061502
36.19 	0.059919 	4940 	0.058595
36.21 	0.062284 	4929 	0.061453
36.23 	0.063222 	4935 	0.061560
36.25 	0.057681 	4941 	0.056139
36.27 	0.057462 	4925 	0.056729
36.29 	0.063070 	4931 	0.061645
36.31 	0.056818 	4928 	0.055392
36.33 	0.059193 	4933 	0.058362
36.35 	0.059444 	4929 	0.058256
36.37 	0.062360 	4923 	0.061170
36.39 	0.060150 	4921 	0.058484
36.41 	0.054126 	4896 	0.053647
36.43 	0.052354 	4928 	0.051165
36.45 	0.056795 	4930 	0.055726
36.47 	0.058752 	4936 	0.057803
36.49 	0.052610 	4942 	0.051899
36.51 	0.052301 	4933 	0.051826
36.53 	0.063120 	4943 	0.061460
36.55 	0.062716 	4927 	0.061883
36.57 	0.058168 	4934 	0.057080
36.59 	0.053047 	4939 	0.052336
36.61 	0.052728 	4931 	0.051896
36.63 	0.054350 	4931 	0.053004
36.65 	0.057786 	4932 	0.056836
36.67 	0.059026 	4930 	0.058432
36.69 	0.063502 	4929 	0.062294
36.71 	0.060557 	4921 	0.059485
36.73 	0.058274 	4925 	0.057679
36.75 	0.061893 	4944 	0.060234
36.77 	0.055702 	4919 	0.054254
36.79 	0.062182 	4921 	0.061330
36.81 	0.052889 	4916 	0.052174
36.83 	0.053306 	4915 	0.052591
36.85 	0.054512 	4898 	0.053555
36.87 	0.056028 	4944 	0.055435
36.89 	0.056143 	4916 	0.055071
36.91 	0.051609 	4941 	0.051490
36.93 	0.061866 	4930 	0.061252
36.95 	0.056963 	4933 	0.055875
36.97 	0.057762 	4934 	0.056931
36.99 	0.049037 	4935 	0.047969
37.01 	0.059396 	4933 	0.058565
37.03 	0.056661 	4924 	0.055710
37.05 	0.057033 	4927 	0.055844
37.07 	0.056940 	4935 	0.055872
37.09 	0.058036 	4928 	0.057679
37.11 	0.054103 	4935 	0.053272
37.13 	0.062957 	4924 	0.062481
37.15 	0.055408 	4909 	0.054454
37.17 	0.051885 	4934 	0.051291
37.19 	0.055228 	4925 	0.054753
37.21 	0.058166 	4917 	0.057093
37.23 	0.058764 	4918 	0.058168
37.25 	0.058440 	4911 	0.057367
37.27 	0.053535 	4894 	0.053176
37.29 	0.050913 	4930 	0.050675
37.31 	0.061803 	4935 	0.060854
37.33 	0.057033 	4927 	0.056438
37.35 	0.063589 	4938 	0.061908
37.37 	0.063528 	4927 	0.061962
37.39 	0.055567 	4931 	0.054854
37.41 	0.049888 	4931 	0.048700
37.43 	0.060827 	4932 	0.060352
37.45 	0.057677 	4924 	0.056487
37.47 	0.057821 	4929 	0.056633
37.49 	0.058095 	4923 	0.056905
37.51 	0.059193 	4933 	0.058481
37.53 	0.063021 	4919 	0.061949
37.55 	0.059026 	4930 	0.057838
37.57 	0.057259 	4925 	0.056188
37.59 	0.059613 	4915 	0.058541
37.61 	0.054449 	4922 	0.053973
37.63 	0.053263 	4919 	0.052548
37.65 	0.057950 	4918 	0.057593
37.67 	0.054445 	4904 	0.053968
37.69 	0.052470 	4898 	0.052231
37.71 	0.049706 	4929 	0.049349
37.73 	0.063502 	4929 	0.062432
37.75 	0.058300 	4940 	0.057825
37.77 	0.057520 	4920 	0.056429
37.79 	0.048276 	4930 	0.047801
37.81 	0.050274 	4933 	0.049561
37.83 	0.056707 	4920 	0.055874
37.85 	0.057091 	4922 	0.055762
37.87 	0.053857 	4939 	0.052908
37.89 	0.055025 	4925 	0.053955
37.91 	0.052130 	4930 	0.050942
37.93 	0.045741 	4919 	0.045384
37.95 	0.051616 	4921 	0.051258
37.97 	0.057415 	4929 	0.056465
37.99 	0.060261 	4912 	0.059187
38.01 	0.054992 	4928 	0.053922
38.03 	0.055001 	4909 	0.054146
38.05 	0.052589 	4925 	0.051875
38.07 	0.053779 	4909 	0.052585
38.09 	0.054736 	4878 	0.054015
38.11 	0.054914 	4935 	0.053727
38.13 	0.055702 	4937 	0.054753
38.15 	0.058764 	4918 	0.057811
38.17 	0.056998 	4930 	0.056285
38.19 	0.053955 	4930 	0.053480
38.21 	0.055251 	4923 	0.054418
38.23 	0.053665 	4938 	0.053072
38.25 	0.057555 	4917 	0.056602
38.27 	0.060852 	4930 	0.059783
38.29 	0.062754 	4924 	0.061445
38.31 	0.062513 	4927 	0.061086
38.33 	0.057880 	4924 	0.057047
38.35 	0.057427 	4928 	0.056357
38.37 	0.059301 	4924 	0.059063
38.39 	0.062742 	4909 	0.061768
38.41 	0.069876 	4923 	0.068448
38.43 	0.066314 	4916 	0.064765
38.45 	0.064050 	4918 	0.063574
38.47 	0.066639 	4907 	0.065684
38.49 	0.074021 	4877 	0.072700
38.51 	0.071776 	4932 	0.070588
38.53 	0.076283 	4929 	0.074738
38.55 	0.072326 	4936 	0.071020
38.57 	0.074751 	4923 	0.073323
38.59 	0.072908 	4924 	0.072194
38.61 	0.078606 	4936 	0.077301
38.63 	0.079204 	4924 	0.077776
38.65 	0.073810 	4918 	0.071647
38.67 	0.074539 	4937 	0.072048
38.69 	0.074970 	4922 	0.073184
38.71 	0.070877 	4924 	0.069549
38.73 	0.068117 	4918 	0.066410
38.75 	0.065151 	4927 	0.063843
38.77 	0.069470 	4923 	0.068280
38.79 	0.066883 	4934 	0.065814
38.81 	0.062704 	4912 	0.061730
38.83 	0.059972 	4919 	0.059495
38.85 	0.058428 	4912 	0.058190
38.87 	0.060273 	4911 	0.058961
38.89 	0.058403 	4897 	0.056848
38.91 	0.058536 	4903 	0.057102
38.93 	0.048603 	4938 	0.048010
38.95 	0.058967 	4918 	0.057895
38.97 	0.050700 	4931 	0.049987
38.99 	0.055904 	4937 	0.054955
39.01 	0.049817 	4918 	0.048626
39.03 	0.046615 	4934 	0.046140
39.05 	0.057056 	4925 	0.056342
39.07 	0.053818 	4924 	0.053085
39.09 	0.051595 	4923 	0.050762
39.11 	0.047049 	4931 	0.047049
39.13 	0.049563 	4923 	0.048849
39.15 	0.047406 	4915 	0.046452
39.17 	0.049828 	4937 	0.049472
39.19 	0.050031 	4917 	0.049673
39.21 	0.054175 	4910 	0.053459
39.23 	0.047107 	4925 	0.046631
39.25 	0.046729 	4922 	0.045539
39.27 	0.048473 	4910 	0.047399
39.29 	0.048357 	4901 	0.047879
39.31 	0.048321 	4884 	0.048081
39.33 	0.046644 	4931 	0.046168
39.35 	0.048632 	4935 	0.047801
39.37 	0.045445 	4929 	0.044970
39.39 	0.039359 	4929 	0.039240
39.41 	0.044007 	4931 	0.043513
39.43 	0.044395 	4933 	0.044157
39.45 	0.042640 	4925 	0.042402
39.47 	0.046313 	4923 	0.045342
39.49 	0.048044 	4933 	0.047331
39.51 	0.041430 	4924 	0.040954
39.53 	0.049360 	4923 	0.048408
39.55 	0.044115 	4919 	0.043757
39.57 	0.045408 	4933 	0.045052
39.59 	0.044788 	4912 	0.044192
39.61 	0.052001 	4923 	0.051882
39.63 	0.048761 	4922 	0.048285
39.65 	0.045676 	4926 	0.045200
39.67 	0.044169 	4913 	0.044049
39.69 	0.041904 	4916 	0.041666
39.71 	0.048825 	4895 	0.047629
39.73 	0.041769 	4908 	0.041530
39.75 	0.045049 	4928 	0.044454
39.77 	0.042351 	4935 	0.041994
39.79 	0.047300 	4926 	0.046705
39.81 	0.048711 	4927 	0.047998
39.83 	0.049858 	4934 	0.049027
39.85 	0.041202 	4927 	0.040964
39.87 	0.042234 	4925 	0.041639
39.89 	0.048439 	4934 	0.047252
39.91 	0.045307 	4922 	0.044355
39.93 	0.043346 	4937 	0.042753
39.95 	0.042319 	4915 	0.041724
39.97 	0.042614 	4928 	0.042257
39.99 	0.043390 	4932 	0.042915
40.01 	0.042700 	4918 	0.042581
40.03 	0.044237 	4928 	0.043999
40.05 	0.041489 	4917 	0.040893
40.07 	0.049157 	4923 	0.048324
40.09 	0.044955 	4916 	0.044240
40.11 	0.049024 	4916 	0.048904
40.13 	0.041054 	4896 	0.040695
40.15 	0.044372 	4913 	0.043895
40.17 	0.048498 	4928 	0.047429
40.19 	0.040576 	4929 	0.039982
40.21 	0.043769 	4935 	0.043413
40.23 	0.042782 	4932 	0.041832
40.25 	0.047154 	4920 	0.046559
40.27 	0.044764 	4937 	0.044408
40.29 	0.043231 	4927 	0.042637
40.31 	0.041101 	4939 	0.040864
40.33 	0.045620 	4932 	0.044908
40.35 	0.042488 	4919 	0.042131
40.37 	0.045445 	4929 	0.044495
40.39 	0.042182 	4931 	0.041826
40.41 	0.046701 	4925 	0.046344
40.43 	0.041447 	4922 	0.040851
40.45 	0.048449 	4933 	0.047855
40.47 	0.044124 	4918 	0.043766
40.49 	0.044052 	4926 	0.043457
40.51 	0.038602 	4922 	0.038245
40.53 	0.041904 	4916 	0.041666
40.55 	0.041157 	4908 	0.040680
40.57 	0.044990 	4890 	0.044031
40.59 	0.039498 	4937 	0.039023
40.61 	0.043769 	4935 	0.043650
40.63 	0.048276 	4930 	0.047325
40.65 	0.038687 	4937 	0.038450
40.67 	0.044201 	4932 	0.043607
40.69 	0.042941 	4937 	0.042466
40.71 	0.041971 	4932 	0.041496
40.73 	0.042225 	4926 	0.042106
40.75 	0.040763 	4931 	0.040406
40.77 	0.044138 	4939 	0.043427
40.79 	0.043258 	4924 	0.043139
40.81 	0.041085 	4941 	0.040729
40.83 	0.038352 	4928 	0.038115
40.85 	0.049147 	4924 	0.048195
40.87 	0.040584 	4928 	0.040109
40.89 	0.039546 	4931 	0.039189
40.91 	0.044688 	4923 	0.044093
40.93 	0.040332 	4934 	0.039857
40.95 	0.044372 	4913 	0.043637
40.97 	0.041836 	4924 	0.041241
40.99 	0.038587 	4924 	0.038111
41.01 	0.038681 	4912 	0.038323
41.03 	0.035270 	4905 	0.035151
41.05 	0.039708 	4936 	0.039115
41.07 	0.046450 	4930 	0.045619
41.09 	0.040089 	4939 	0.039615
41.11 	0.041135 	4935 	0.040185
41.13 	0.039911 	4936 	0.039674
41.15 	0.041692 	4941 	0.041099
41.17 	0.043373 	4934 	0.042898
41.19 	0.043813 	4930 	0.043338
41.21 	0.039093 	4937 	0.038737
41.23 	0.033813 	4939 	0.033575
41.25 	0.040543 	4933 	0.040187
41.27 	0.040965 	4931 	0.040728
41.29 	0.041802 	4928 	0.041208
41.31 	0.039124 	4933 	0.038649
41.33 	0.042333 	4937 	0.041859
41.35 	0.034832 	4938 	0.034595
41.37 	0.040617 	4924 	0.040260
41.39 	0.041760 	4933 	0.041522
41.41 	0.038165 	4926 	0.037927
41.43 	0.040779 	4929 	0.039928
41.45 	0.036427 	4914 	0.035711
41.47 	0.036744 	4926 	0.036387
41.49 	0.044563 	4892 	0.044203
41.51 	0.042510 	4940 	0.042154
41.53 	0.035801 	4944 	0.035682
41.55 	0.041540 	4935 	0.041303
41.57 	0.039870 	4941 	0.039870
41.59 	0.040949 	4933 	0.040474
41.61 	0.041995 	4953 	0.041640
41.63 	0.039490 	4938 	0.038659
41.65 	0.037533 	4929 	0.037295
41.67 	0.041903 	4940 	0.041191
41.69 	0.039822 	4947 	0.039467
41.71 	0.040130 	4934 	0.039892
41.73 	0.037277 	4936 	0.037040
41.75 	0.041591 	4929 	0.041115
41.77 	0.041085 	4941 	0.040848
41.79 	0.040858 	4944 	0.040265
41.81 	0.040316 	4936 	0.040197
41.83 	0.040990 	4928 	0.040753
41.85 	0.033408 	4939 	0.032815
41.87 	0.037487 	4935 	0.037131
41.89 	0.038516 	4933 	0.037685
41.91 	0.041937 	4936 	0.041818
41.93 	0.042376 	4932 	0.041901
41.95 	0.038735 	4931 	0.038497
41.97 	0.037648 	4914 	0.037290
41.99 	0.038940 	4905 	0.038223
42.01 	0.046742 	4942 	0.046150
42.03 	0.041101 	4939 	0.040390
42.05 	0.040388 	4952 	0.039678
42.07 	0.041321 	4937 	0.041202
42.09 	0.037187 	4948 	0.036713
42.11 	0.040849 	4945 	0.040494
42.13 	0.039232 	4945 	0.038857
42.15 	0.039085 	4938 	0.038116
42.17 	0.033347 	4918 	0.032632
42.19 	0.037897 	4908 	0.037659
42.21 	0.033259 	4901 	0.033019
42.23 	0.031276 	4892 	0.030797
42.25 	0.035590 	4889 	0.035350
42.27 	0.043701 	4874 	0.043221
42.29 	0.037425 	4863 	0.036944
42.31 	0.040371 	4855 	0.039888
42.33 	0.038891 	4834 	0.038406
42.35 	0.041133 	4838 	0.040769
42.37 	0.036853 	4830 	0.036610
42.39 	0.042256 	4804 	0.041891
42.41 	0.040175 	4804 	0.039809
42.43 	0.041528 	4792 	0.041161
42.45 	0.038317 	4776 	0.038194
42.47 	0.038195 	4765 	0.037580
42.49 	0.035677 	4765 	0.035431
42.51 	0.039005 	4743 	0.038758
42.53 	0.042513 	4728 	0.041769
42.55 	0.041844 	4708 	0.041201
42.57 	0.030444 	4730 	0.030072
42.59 	0.036794 	4729 	0.036547
42.61 	0.033135 	4708 	0.032762
42.63 	0.039924 	4709 	0.039675
42.65 	0.040982 	4685 	0.040357
42.67 	0.040991 	4684 	0.040740
42.69 	0.040650 	4674 	0.040400
42.71 	0.037315 	4663 	0.037315
42.73 	0.040517 	4640 	0.040391
42.75 	0.034871 	4617 	0.034617
42.77 	0.043261 	4600 	0.042879
42.79 	0.042558 	4582 	0.042174
42.81 	0.039237 	4562 	0.038724
42.83 	0.041005 	4536 	0.040489
42.85 	0.037765 	4528 	0.037506
42.87 	0.036453 	4499 	0.035932
42.89 	0.039732 	4480 	0.039601
42.91 	0.038824 	4456 	0.038430
42.93 	0.038911 	4446 	0.038121
42.95 	0.037138 	4416 	0.036740
42.97 	0.039536 	4401 	0.038738
42.99 	0.035348 	4385 	0.035214
43.01 	0.036214 	4363 	0.035811
43.03 	0.042465 	4333 	0.041789
43.05 	0.036069 	4325 	0.035798
43.07 	0.043296 	4296 	0.042456
43.09 	0.035256 	4283 	0.034982
43.11 	0.035488 	4255 	0.034799
43.13 	0.039415 	4237 	0.038585
43.15 	0.037090 	4206 	0.036811
43.17 	0.043312 	4179 	0.042891
43.19 	0.032904 	4194 	0.032485
43.21 	0.037872 	4172 	0.037029
43.23 	0.037073 	4154 	0.036791
43.25 	0.041596 	4135 	0.041171
43.27 	0.039951 	4105 	0.039214
43.29 	0.038293 	4100 	0.038007
43.31 	0.039961 	4079 	0.039961
43.33 	0.043199 	4051 	0.042765
43.35 	0.038690 	4032 	0.038545
43.37 	0.039103 	4015 	0.038812
43.39 	0.038981 	4002 	0.038688
43.41 	0.039023 	3972 	0.038728
43.43 	0.037374 	3960 	0.036634
43.45 	0.038628 	3935 	0.038479
43.47 	0.035195 	3921 	0.035195
43.49 	0.037465 	3897 	0.037014
43.51 	0.035595 	3877 	0.035141
43.53 	0.040642 	3863 	0.040339
43.55 	0.037787 	2964 	0.037589
43.57 	0.038874 	2238 	0.038351
43.59 	0.038946 	1746 	0.038275
43.61 	0.034049 	1351 	0.033615
43.63 	0.029970 	1001 	0.029970
43.65 	0.033479 	687 	0.032626
43.67 	0.027888 	502 	0.027888
43.69 	0.046322 	367 	0.046322
43.71 	0.041841 	239 	0.041841
43.73 	0.050000 	120 	0.050000
43.75 	0.000000 	16 	0.000000