File: Example_Data/25SC_s1_0026.003.dat
#F C:\frames\spec\25SC_s1_0026.003
#C title =s:26 frm:3 25SC_s1
#C wavelength =0.15406

#S 1  fr_average C:\frames\spec\25SC_s1_0026.003 C:\win32app\speccom\mask.axs chi 0 180 0 360 0.02
#C 2 theta =0.000000 to 180 deg
#C   q   =0.000000 to 81.568 nm^-1
#C  chi  =0.000000 to 360 deg
#C collumns:
#C  1 position (2theta or chi in degrees)
#C  2 average intensity (sum of all counts in the region divided with number of pixels)
#C  3 Number of pixels in region)
#C  4 error (sum of sqrt(intensity) for all pixels divided by number)
#N 4
#L TTh  Int  N_pix  Err
32.99 	0.098361 	61 	0.098361
33.01 	0.057274 	873 	0.056603
33.03 	0.056794 	1391 	0.056373
33.05 	0.056915 	1757 	0.056248
33.07 	0.062927 	2050 	0.061784
33.09 	0.057094 	2347 	0.056096
33.11 	0.060489 	2579 	0.059353
33.13 	0.060866 	2793 	0.060028
33.15 	0.054018 	2999 	0.053237
33.17 	0.058732 	3201 	0.058000
33.19 	0.057151 	3342 	0.056450
33.21 	0.059371 	3436 	0.058320
33.23 	0.060176 	3523 	0.058846
33.25 	0.057032 	3612 	0.055897
33.27 	0.055647 	3630 	0.054034
33.29 	0.058388 	3648 	0.057585
33.31 	0.049454 	3660 	0.048333
33.33 	0.058058 	3686 	0.056468
33.35 	0.051976 	3694 	0.051500
33.37 	0.057889 	3714 	0.056785
33.39 	0.059802 	3729 	0.058074
33.41 	0.058021 	3740 	0.057082
33.43 	0.059027 	3761 	0.057911
33.45 	0.059369 	3773 	0.058282
33.47 	0.063454 	3798 	0.061604
33.49 	0.059333 	3809 	0.058103
33.51 	0.060550 	3815 	0.059629
33.53 	0.060141 	3841 	0.059226
33.55 	0.059329 	3843 	0.057474
33.57 	0.054681 	3877 	0.053448
33.59 	0.069845 	3880 	0.068462
33.61 	0.058583 	3909 	0.057534
33.63 	0.059199 	3919 	0.058302
33.65 	0.068430 	3931 	0.067089
33.67 	0.058675 	3954 	0.057934
33.69 	0.062484 	3953 	0.061891
33.71 	0.061887 	3975 	0.060684
33.73 	0.057443 	4004 	0.056711
33.75 	0.054014 	3999 	0.052525
33.77 	0.055901 	4025 	0.054882
33.79 	0.059639 	4041 	0.058624
33.81 	0.057454 	4038 	0.057019
33.83 	0.064444 	4050 	0.062998
33.85 	0.059283 	4099 	0.057568
33.87 	0.070056 	4111 	0.068916
33.89 	0.063819 	4121 	0.063109
33.91 	0.058568 	4149 	0.057439
33.93 	0.058781 	4151 	0.057370
33.95 	0.063860 	4181 	0.063020
33.97 	0.064439 	4190 	0.063181
33.99 	0.060238 	4200 	0.059541
34.01 	0.058628 	4213 	0.057794
34.03 	0.054194 	4244 	0.052952
34.05 	0.062088 	4252 	0.060711
34.07 	0.060684 	4268 	0.059449
34.09 	0.063229 	4286 	0.062387
34.11 	0.062994 	4302 	0.061496
34.13 	0.057103 	4308 	0.056015
34.15 	0.060263 	4331 	0.059181
34.17 	0.063908 	4350 	0.062696
34.19 	0.056396 	4362 	0.055859
34.21 	0.057881 	4371 	0.056809
34.23 	0.062372 	4393 	0.061705
34.25 	0.060400 	4404 	0.059070
34.27 	0.061058 	4422 	0.060131
34.29 	0.059301 	4435 	0.058641
34.31 	0.060117 	4458 	0.059328
34.33 	0.058824 	4471 	0.058168
34.35 	0.059099 	4484 	0.058315
34.37 	0.054776 	4491 	0.053863
34.39 	0.054865 	4502 	0.053824
34.41 	0.056341 	4526 	0.055306
34.43 	0.059705 	4539 	0.058801
34.45 	0.057332 	4535 	0.056299
34.47 	0.059233 	4592 	0.058468
34.49 	0.056341 	4597 	0.055449
34.51 	0.055797 	4606 	0.055140
34.53 	0.055998 	4643 	0.054842
34.55 	0.061598 	4643 	0.059958
34.57 	0.055579 	4660 	0.054448
34.59 	0.064599 	4675 	0.063346
34.61 	0.055780 	4697 	0.054783
34.63 	0.057962 	4710 	0.056967
34.65 	0.059521 	4721 	0.058156
34.67 	0.056106 	4741 	0.055221
34.69 	0.059108 	4754 	0.057753
34.71 	0.056232 	4766 	0.055863
34.73 	0.055358 	4787 	0.054869
34.75 	0.055532 	4808 	0.053645
34.77 	0.064134 	4818 	0.062432
34.79 	0.062396 	4824 	0.061283
34.81 	0.047472 	4845 	0.046746
34.83 	0.052242 	4862 	0.051639
34.85 	0.059355 	4869 	0.058152
34.87 	0.055670 	4868 	0.054948
34.89 	0.056944 	4882 	0.055604
34.91 	0.052847 	4882 	0.052607
34.93 	0.057767 	4899 	0.056551
34.95 	0.053783 	4890 	0.052825
34.97 	0.059568 	4902 	0.058851
34.99 	0.051460 	4897 	0.050623
35.01 	0.054032 	4923 	0.053556
35.03 	0.058669 	4943 	0.057365
35.05 	0.053568 	4947 	0.052621
35.07 	0.058300 	4940 	0.056639
35.09 	0.056128 	4953 	0.055063
35.11 	0.056802 	4947 	0.055973
35.13 	0.056676 	4958 	0.055967
35.15 	0.059145 	4937 	0.058315
35.17 	0.059442 	4946 	0.057528
35.19 	0.058074 	4942 	0.056770
35.21 	0.052376 	4945 	0.051310
35.23 	0.055814 	4945 	0.054866
35.25 	0.051588 	4943 	0.050877
35.27 	0.060024 	4948 	0.058722
35.29 	0.056825 	4945 	0.056233
35.31 	0.055950 	4933 	0.054842
35.33 	0.056039 	4943 	0.054854
35.35 	0.060704 	4942 	0.059637
35.37 	0.060944 	4939 	0.060113
35.39 	0.054601 	4945 	0.053771
35.41 	0.062931 	4926 	0.061604
35.43 	0.061423 	4933 	0.060711
35.45 	0.057727 	4937 	0.056659
35.47 	0.054756 	4931 	0.053805
35.49 	0.059267 	4910 	0.058193
35.51 	0.056232 	4926 	0.055519
35.53 	0.059002 	4949 	0.058055
35.55 	0.058241 	4945 	0.057056
35.57 	0.054936 	4933 	0.054105
35.59 	0.056623 	4945 	0.055419
35.61 	0.061109 	4942 	0.060161
35.63 	0.066761 	4943 	0.065319
35.65 	0.052376 	4945 	0.051310
35.67 	0.053217 	4942 	0.051894
35.69 	0.059038 	4946 	0.057853
35.71 	0.057120 	4937 	0.056170
35.73 	0.060778 	4936 	0.060303
35.75 	0.057798 	4931 	0.056728
35.77 	0.053928 	4951 	0.053455
35.79 	0.054745 	4932 	0.053557
35.81 	0.056355 	4933 	0.056118
35.83 	0.061262 	4946 	0.060176
35.85 	0.053495 	4935 	0.052071
35.87 	0.053220 	4923 	0.052387
35.89 	0.046413 	4934 	0.045938
35.91 	0.057642 	4927 	0.056096
35.93 	0.058453 	4927 	0.057502
35.95 	0.055725 	4917 	0.054276
35.97 	0.052728 	4912 	0.051893
35.99 	0.057906 	4939 	0.056701
36.01 	0.055781 	4930 	0.054573
36.03 	0.053813 	4943 	0.053339
36.05 	0.058443 	4945 	0.057495
36.07 	0.055072 	4939 	0.054360
36.09 	0.058502 	4940 	0.056723
36.11 	0.060459 	4929 	0.059032
36.13 	0.051801 	4942 	0.050734
36.15 	0.055072 	4939 	0.054479
36.17 	0.059289 	4925 	0.058219
36.19 	0.060729 	4940 	0.058931
36.21 	0.050314 	4929 	0.049483
36.23 	0.053698 	4935 	0.052986
36.25 	0.052621 	4941 	0.051198
36.27 	0.057056 	4925 	0.056104
36.29 	0.057798 	4931 	0.056847
36.31 	0.054586 	4928 	0.053754
36.33 	0.059599 	4933 	0.058649
36.35 	0.055792 	4929 	0.054485
36.37 	0.050173 	4923 	0.049935
36.39 	0.060150 	4921 	0.058841
36.41 	0.057598 	4896 	0.056043
36.43 	0.061891 	4928 	0.060584
36.45 	0.057404 	4930 	0.055978
36.47 	0.050243 	4936 	0.049650
36.49 	0.053217 	4942 	0.052388
36.51 	0.057774 	4933 	0.057062
36.53 	0.051588 	4943 	0.050877
36.55 	0.052973 	4927 	0.052617
36.57 	0.055938 	4934 	0.054751
36.59 	0.051427 	4939 	0.050123
36.61 	0.050497 	4931 	0.049903
36.63 	0.052119 	4931 	0.051169
36.65 	0.061233 	4932 	0.060164
36.67 	0.053753 	4930 	0.053158
36.69 	0.052546 	4929 	0.051952
36.71 	0.058321 	4921 	0.057369
36.73 	0.050761 	4925 	0.049929
36.75 	0.052994 	4944 	0.052283
36.77 	0.051840 	4919 	0.051363
36.79 	0.055680 	4921 	0.054489
36.81 	0.051871 	4916 	0.051514
36.83 	0.057986 	4915 	0.057032
36.85 	0.055125 	4898 	0.054527
36.87 	0.053803 	4944 	0.052243
36.89 	0.049837 	4916 	0.049241
36.91 	0.053026 	4941 	0.052789
36.93 	0.053144 	4930 	0.052193
36.95 	0.047030 	4933 	0.046417
36.97 	0.058776 	4934 	0.056995
36.99 	0.055724 	4935 	0.055230
37.01 	0.052909 	4933 	0.052177
37.03 	0.059911 	4924 	0.059316
37.05 	0.052365 	4927 	0.051770
37.07 	0.057548 	4935 	0.056955
37.09 	0.056818 	4928 	0.056105
37.11 	0.056332 	4935 	0.055264
37.13 	0.051584 	4924 	0.051346
37.15 	0.055408 	4909 	0.054334
37.17 	0.055128 	4934 	0.054297
37.19 	0.054822 	4925 	0.053990
37.21 	0.050844 	4917 	0.050010
37.23 	0.052257 	4918 	0.051542
37.25 	0.056608 	4911 	0.056011
37.27 	0.050061 	4894 	0.048984
37.29 	0.049290 	4930 	0.048320
37.31 	0.051874 	4935 	0.051261
37.33 	0.047493 	4927 	0.046998
37.35 	0.049008 	4938 	0.048296
37.37 	0.054597 	4927 	0.053626
37.39 	0.050294 	4931 	0.048987
37.41 	0.050902 	4931 	0.050427
37.43 	0.051906 	4932 	0.050481
37.45 	0.049959 	4924 	0.049127
37.47 	0.055792 	4929 	0.054723
37.49 	0.049970 	4923 	0.049375
37.51 	0.051895 	4933 	0.050926
37.53 	0.051230 	4919 	0.050158
37.55 	0.059026 	4930 	0.058313
37.57 	0.050355 	4925 	0.049880
37.59 	0.045168 	4915 	0.044572
37.61 	0.057700 	4922 	0.056986
37.63 	0.051840 	4919 	0.050887
37.65 	0.051850 	4918 	0.051255
37.67 	0.053222 	4904 	0.052505
37.69 	0.054308 	4898 	0.053710
37.71 	0.050517 	4929 	0.049329
37.73 	0.054372 	4929 	0.053659
37.75 	0.046154 	4940 	0.045205
37.77 	0.048780 	4920 	0.048066
37.79 	0.056187 	4930 	0.054385
37.81 	0.045206 	4933 	0.044592
37.83 	0.049187 	4920 	0.048473
37.85 	0.053230 	4922 	0.052516
37.87 	0.053655 	4939 	0.052824
37.89 	0.046091 	4925 	0.045735
37.91 	0.050913 	4930 	0.050437
37.93 	0.053466 	4919 	0.052752
37.95 	0.052835 	4921 	0.052002
37.97 	0.055589 	4929 	0.054481
37.99 	0.049674 	4912 	0.049197
38.01 	0.055195 	4928 	0.054482
38.03 	0.050927 	4909 	0.050211
38.05 	0.052589 	4925 	0.051399
38.07 	0.053982 	4909 	0.052789
38.09 	0.048790 	4878 	0.048070
38.11 	0.054306 	4935 	0.053831
38.13 	0.053474 	4937 	0.052762
38.15 	0.053070 	4918 	0.052098
38.17 	0.047870 	4930 	0.047157
38.19 	0.051927 	4930 	0.051214
38.21 	0.054032 	4923 	0.053080
38.23 	0.053665 	4938 	0.052598
38.25 	0.054098 	4917 	0.053621
38.27 	0.056998 	4930 	0.055790
38.29 	0.060114 	4924 	0.058924
38.31 	0.059671 	4927 	0.058363
38.33 	0.060114 	4924 	0.059519
38.35 	0.053571 	4928 	0.052620
38.37 	0.061129 	4924 	0.060415
38.39 	0.062538 	4909 	0.061584
38.41 	0.060532 	4923 	0.059580
38.43 	0.057771 	4916 	0.056579
38.45 	0.063440 	4918 	0.062607
38.47 	0.064194 	4907 	0.063239
38.49 	0.058027 	4877 	0.057187
38.51 	0.051298 	4932 	0.050466
38.53 	0.059850 	4929 	0.059018
38.55 	0.056321 	4936 	0.055134
38.57 	0.061751 	4923 	0.060304
38.59 	0.057271 	4924 	0.056081
38.61 	0.054498 	4936 	0.054379
38.63 	0.057880 	4924 	0.057047
38.65 	0.053070 	4918 	0.052574
38.67 	0.053676 	4937 	0.053083
38.69 	0.050792 	4922 	0.050059
38.71 	0.050569 	4924 	0.050331
38.73 	0.055510 	4918 	0.054677
38.75 	0.051756 	4927 	0.051042
38.77 	0.052204 	4923 	0.051490
38.79 	0.050263 	4934 	0.049551
38.81 	0.055578 	4912 	0.054863
38.83 	0.051637 	4919 	0.049969
38.85 	0.050489 	4912 	0.049892
38.87 	0.049684 	4911 	0.048730
38.89 	0.053502 	4897 	0.052784
38.91 	0.048950 	4903 	0.048233
38.93 	0.045565 	4938 	0.045090
38.95 	0.045344 	4918 	0.044629
38.97 	0.051714 	4931 	0.050763
38.99 	0.046790 	4937 	0.046058
39.01 	0.045344 	4918 	0.044371
39.03 	0.046615 	4934 	0.045784
39.05 	0.048122 	4925 	0.047289
39.07 	0.046913 	4924 	0.046318
39.09 	0.047938 	4923 	0.047224
39.11 	0.047860 	4931 	0.047148
39.13 	0.055657 	4923 	0.054329
39.15 	0.046185 	4915 	0.045351
39.17 	0.048815 	4937 	0.048578
39.19 	0.039252 	4917 	0.038537
39.21 	0.050102 	4910 	0.049147
39.23 	0.051168 	4925 	0.050335
39.25 	0.047135 	4922 	0.047016
39.27 	0.051527 	4910 	0.050692
39.29 	0.044481 	4901 	0.043525
39.31 	0.046274 	4884 	0.045434
39.33 	0.044413 	4931 	0.043819
39.35 	0.049848 	4935 	0.049255
39.37 	0.045445 	4929 	0.044732
39.39 	0.047068 	4929 	0.046831
39.41 	0.047860 	4931 	0.047385
39.43 	0.046017 	4933 	0.045067
39.45 	0.048325 	4925 	0.047730
39.47 	0.046313 	4923 	0.045718
39.49 	0.050882 	4933 	0.050526
39.51 	0.045288 	4924 	0.044813
39.53 	0.045094 	4923 	0.044480
39.55 	0.041675 	4919 	0.040961
39.57 	0.049057 	4933 	0.048345
39.59 	0.042142 	4912 	0.041903
39.61 	0.049766 	4923 	0.049171
39.63 	0.043478 	4922 	0.042764
39.65 	0.048518 	4926 	0.048161
39.67 	0.046000 	4913 	0.045523
39.69 	0.050854 	4916 	0.050616
39.71 	0.048008 	4895 	0.047170
39.73 	0.046659 	4908 	0.046181
39.75 	0.044846 	4928 	0.044370
39.77 	0.044174 	4935 	0.043699
39.79 	0.043849 	4926 	0.043254
39.81 	0.048102 	4927 	0.047389
39.83 	0.048845 	4934 	0.048251
39.85 	0.049929 	4927 	0.049216
39.87 	0.051574 	4925 	0.050860
39.89 	0.047223 	4934 	0.046748
39.91 	0.050183 	4922 	0.049092
39.93 	0.045169 	4937 	0.043983
39.95 	0.046592 	4915 	0.045996
39.97 	0.048093 	4928 	0.047260
39.99 	0.043593 	4932 	0.042880
40.01 	0.047174 	4918 	0.047055
40.03 	0.052151 	4928 	0.050962
40.05 	0.047793 	4917 	0.047436
40.07 	0.050579 	4923 	0.050103
40.09 	0.052075 	4916 	0.051479
40.11 	0.046176 	4916 	0.046176
40.13 	0.046569 	4896 	0.045970
40.15 	0.048443 	4913 	0.048324
40.17 	0.044034 	4928 	0.043440
40.19 	0.050314 	4929 	0.049245
40.21 	0.038906 	4935 	0.038668
40.23 	0.048054 	4932 	0.047578
40.25 	0.042276 	4920 	0.042276
40.27 	0.042739 	4937 	0.042264
40.29 	0.045667 	4927 	0.045072
40.31 	0.045151 	4939 	0.044914
40.33 	0.047851 	4932 	0.047019
40.35 	0.042692 	4919 	0.042215
40.37 	0.048489 	4929 	0.048013
40.39 	0.041168 	4931 	0.041168
40.41 	0.049340 	4925 	0.048389
40.43 	0.038399 	4922 	0.038042
40.45 	0.041962 	4933 	0.041369
40.47 	0.045140 	4918 	0.044545
40.49 	0.049330 	4926 	0.048498
40.51 	0.049777 	4922 	0.049062
40.53 	0.041090 	4916 	0.040256
40.55 	0.042176 	4908 	0.041818
40.57 	0.047853 	4890 	0.047493
40.59 	0.045777 	4937 	0.045065
40.61 	0.046606 	4935 	0.046012
40.63 	0.048479 	4930 	0.047885
40.65 	0.045979 	4937 	0.045267
40.67 	0.047040 	4932 	0.046090
40.69 	0.049220 	4937 	0.048370
40.71 	0.041363 	4932 	0.040769
40.73 	0.042022 	4926 	0.041784
40.75 	0.041979 	4931 	0.041247
40.77 	0.046568 	4939 	0.045975
40.79 	0.051584 	4924 	0.051108
40.81 	0.041085 	4941 	0.040255
40.83 	0.042411 	4928 	0.041460
40.85 	0.047116 	4924 	0.046283
40.87 	0.045860 	4928 	0.045504
40.89 	0.045427 	4931 	0.045071
40.91 	0.044485 	4923 	0.044366
40.93 	0.045399 	4934 	0.044687
40.95 	0.048646 	4913 	0.047812
40.97 	0.041633 	4924 	0.041038
40.99 	0.039196 	4924 	0.038839
41.01 	0.041735 	4912 	0.041496
41.03 	0.040979 	4905 	0.040620
41.05 	0.044773 	4936 	0.044180
41.07 	0.044016 	4930 	0.043184
41.09 	0.047985 	4939 	0.047274
41.11 	0.047011 	4935 	0.046418
41.13 	0.041937 	4936 	0.041462
41.15 	0.042704 	4941 	0.042230
41.17 	0.047629 	4934 	0.047273
41.19 	0.040365 	4930 	0.040127
41.21 	0.048815 	4937 	0.048103
41.23 	0.045758 	4939 	0.045402
41.25 	0.037097 	4933 	0.036741
41.27 	0.045427 	4931 	0.044714
41.29 	0.049310 	4928 	0.048716
41.31 	0.040949 	4933 	0.040592
41.33 	0.043751 	4937 	0.043395
41.35 	0.042122 	4938 	0.041766
41.37 	0.040617 	4924 	0.040142
41.39 	0.046017 	4933 	0.045542
41.41 	0.040601 	4926 	0.040482
41.43 	0.047474 	4929 	0.046623
41.45 	0.044567 	4914 	0.044090
41.47 	0.043037 	4926 	0.042542
41.49 	0.042927 	4892 	0.042209
41.51 	0.040688 	4940 	0.040095
41.53 	0.039846 	4944 	0.039728
41.55 	0.044377 	4935 	0.044258
41.57 	0.044525 	4941 	0.044051
41.59 	0.045814 	4933 	0.045339
41.61 	0.039168 	4953 	0.038340
41.63 	0.043742 	4938 	0.042675
41.65 	0.040373 	4929 	0.039898
41.67 	0.044737 	4940 	0.044144
41.69 	0.041035 	4947 	0.040443
41.71 	0.042156 	4934 	0.041682
41.73 	0.038493 	4936 	0.038137
41.75 	0.037939 	4929 	0.037582
41.77 	0.046347 	4941 	0.045517
41.79 	0.042273 	4944 	0.041800
41.81 	0.039708 	4936 	0.039234
41.83 	0.042411 	4928 	0.041341
41.85 	0.038064 	4939 	0.037827
41.87 	0.044174 	4935 	0.043462
41.89 	0.039124 	4933 	0.038649
41.91 	0.037682 	4936 	0.037208
41.93 	0.048054 	4932 	0.047222
41.95 	0.039749 	4931 	0.039273
41.97 	0.046805 	4914 	0.046328
41.99 	0.039755 	4905 	0.039517
42.01 	0.036423 	4942 	0.035948
42.03 	0.040696 	4939 	0.040341
42.05 	0.039580 	4952 	0.039225
42.07 	0.042536 	4937 	0.041587
42.09 	0.041633 	4948 	0.041396
42.11 	0.040243 	4945 	0.039532
42.13 	0.044287 	4945 	0.043695
42.15 	0.045362 	4938 	0.044532
42.17 	0.039854 	4918 	0.039139
42.19 	0.042176 	4908 	0.041937
42.21 	0.048153 	4901 	0.047436
42.23 	0.043949 	4892 	0.043231
42.25 	0.041113 	4889 	0.040753
42.27 	0.042675 	4874 	0.042195
42.29 	0.036603 	4863 	0.036362
42.31 	0.039547 	4855 	0.038944
42.33 	0.039512 	4834 	0.039269
42.35 	0.041959 	4838 	0.041596
42.37 	0.038716 	4830 	0.038474
42.39 	0.042881 	4804 	0.042027
42.41 	0.035387 	4804 	0.035143
42.43 	0.041736 	4792 	0.041003
42.45 	0.036223 	4776 	0.036100
42.47 	0.039035 	4765 	0.038789
42.49 	0.039664 	4765 	0.039050
42.51 	0.040059 	4743 	0.039421
42.53 	0.040186 	4728 	0.039567
42.55 	0.040144 	4708 	0.039647
42.57 	0.037632 	4730 	0.037240
42.59 	0.041446 	4729 	0.040951
42.61 	0.035896 	4708 	0.035523
42.63 	0.036526 	4709 	0.036153
42.65 	0.040128 	4685 	0.040003
42.67 	0.042699 	4684 	0.041823
42.69 	0.041078 	4674 	0.040828
42.71 	0.041819 	4663 	0.041442
42.73 	0.039871 	4640 	0.039492
42.75 	0.038986 	4617 	0.038733
42.77 	0.039783 	4600 	0.039528
42.79 	0.042994 	4582 	0.042611
42.81 	0.042087 	4562 	0.041702
42.83 	0.037257 	4536 	0.037257
42.85 	0.040415 	4528 	0.039768
42.87 	0.046455 	4499 	0.045413
42.89 	0.040625 	4480 	0.040233
42.91 	0.043537 	4456 	0.043274
42.93 	0.039811 	4446 	0.039284
42.95 	0.041440 	4416 	0.041175
42.97 	0.042945 	4401 	0.042812
42.99 	0.043101 	4385 	0.042701
43.01 	0.036672 	4363 	0.036672
43.03 	0.038541 	4333 	0.037573
43.05 	0.039075 	4325 	0.038804
43.07 	0.041201 	4296 	0.040383
43.09 	0.040859 	4283 	0.040175
43.11 	0.040893 	4255 	0.040342
43.13 	0.036110 	4237 	0.035696
43.15 	0.039230 	4206 	0.039090
43.17 	0.038047 	4179 	0.037767
43.19 	0.042918 	4194 	0.042220
43.21 	0.045302 	4172 	0.044179
43.23 	0.043813 	4154 	0.042967
43.25 	0.044015 	4135 	0.043165
43.27 	0.045067 	4105 	0.043925
43.29 	0.038780 	4100 	0.038352
43.31 	0.035058 	4079 	0.034770
43.33 	0.040978 	4051 	0.040833
43.35 	0.039187 	4032 	0.038896
43.37 	0.035367 	4015 	0.034930
43.39 	0.037981 	4002 	0.037396
43.41 	0.042296 	3972 	0.041116
43.43 	0.041919 	3960 	0.041623
43.45 	0.036086 	3935 	0.035789
43.47 	0.042846 	3921 	0.042249
43.49 	0.037465 	3897 	0.037164
43.51 	0.042817 	3877 	0.042061
43.53 	0.041160 	3863 	0.041008
43.55 	0.040486 	2964 	0.039893
43.57 	0.036640 	2238 	0.036640
43.59 	0.047537 	1746 	0.046866
43.61 	0.048113 	1351 	0.048113
43.63 	0.038961 	1001 	0.038961
43.65 	0.036390 	687 	0.034685
43.67 	0.031873 	502 	0.031873
43.69 	0.049046 	367 	0.049046
43.71 	0.029289 	239 	0.029289
43.73 	0.050000 	120 	0.050000
43.75 	0.000000 	16 	0.000000