File: Example_Data/25SC_s1_0037.002.dat
#F C:\frames\spec\25SC_s1_0037.002
#C title =s:37 frm:2 25SC_s1
#C wavelength =0.15406

#S 1  fr_average C:\frames\spec\25SC_s1_0037.002 C:\win32app\speccom\mask.axs chi 0 180 0 360 0.02
#C 2 theta =0.000000 to 180 deg
#C   q   =0.000000 to 81.568 nm^-1
#C  chi  =0.000000 to 360 deg
#C collumns:
#C  1 position (2theta or chi in degrees)
#C  2 average intensity (sum of all counts in the region divided with number of pixels)
#C  3 Number of pixels in region)
#C  4 error (sum of sqrt(intensity) for all pixels divided by number)
#N 4
#L TTh  Int  N_pix  Err
32.99 	0.065574 	61 	0.065574
33.01 	0.044674 	873 	0.043332
33.03 	0.055356 	1391 	0.054514
33.05 	0.058623 	1757 	0.056289
33.07 	0.050732 	2050 	0.049874
33.09 	0.063485 	2347 	0.061988
33.11 	0.057387 	2579 	0.055797
33.13 	0.063731 	2793 	0.062228
33.15 	0.054685 	2999 	0.053708
33.17 	0.050922 	3201 	0.050007
33.19 	0.060144 	3342 	0.058713
33.21 	0.057625 	3436 	0.055864
33.23 	0.063014 	3523 	0.062017
33.25 	0.054264 	3612 	0.053615
33.27 	0.054545 	3630 	0.053739
33.29 	0.053728 	3648 	0.053728
33.31 	0.057377 	3660 	0.055937
33.33 	0.055073 	3686 	0.053802
33.35 	0.051164 	3694 	0.050847
33.37 	0.057351 	3714 	0.057035
33.39 	0.058729 	3729 	0.057446
33.41 	0.047594 	3740 	0.046027
33.43 	0.056900 	3761 	0.055758
33.45 	0.055924 	3773 	0.055147
33.47 	0.058452 	3798 	0.057681
33.49 	0.059858 	3809 	0.058782
33.51 	0.053735 	3815 	0.052968
33.53 	0.061703 	3841 	0.060330
33.55 	0.056987 	3843 	0.056377
33.57 	0.054939 	3877 	0.054184
33.59 	0.058763 	3880 	0.057404
33.61 	0.055001 	3909 	0.053628
33.63 	0.059454 	3919 	0.057785
33.65 	0.059527 	3931 	0.058484
33.67 	0.055387 	3954 	0.054350
33.69 	0.056160 	3953 	0.055419
33.71 	0.057358 	3975 	0.056474
33.73 	0.060440 	4004 	0.059123
33.75 	0.055514 	3999 	0.054635
33.77 	0.056646 	4025 	0.056500
33.79 	0.051472 	4041 	0.051327
33.81 	0.054730 	4038 	0.054295
33.83 	0.065185 	4050 	0.064173
33.85 	0.056111 	4099 	0.055111
33.87 	0.056434 	4111 	0.055271
33.89 	0.058238 	4121 	0.057528
33.91 	0.053748 	4149 	0.053042
33.93 	0.056613 	4151 	0.055343
33.95 	0.057642 	4181 	0.057221
33.97 	0.056325 	4190 	0.055765
33.99 	0.056190 	4200 	0.055912
34.01 	0.055068 	4213 	0.054651
34.03 	0.056079 	4244 	0.055113
34.05 	0.056679 	4252 	0.055577
34.07 	0.055295 	4268 	0.054746
34.09 	0.053663 	4286 	0.053116
34.11 	0.056718 	4302 	0.056037
34.13 	0.055478 	4308 	0.054526
34.15 	0.056107 	4331 	0.055160
34.17 	0.059540 	4350 	0.058598
34.19 	0.061210 	4362 	0.059733
34.21 	0.065889 	4371 	0.065085
34.23 	0.060323 	4393 	0.058856
34.25 	0.054723 	4404 	0.053127
34.27 	0.054274 	4422 	0.053612
34.29 	0.057046 	4435 	0.056122
34.31 	0.058098 	4458 	0.057572
34.33 	0.050772 	4471 	0.049592
34.35 	0.053078 	4484 	0.052032
34.37 	0.060788 	4491 	0.059353
34.39 	0.052421 	4502 	0.051640
34.41 	0.059434 	4526 	0.058378
34.43 	0.054417 	4539 	0.053514
34.45 	0.061963 	4535 	0.060671
34.47 	0.054225 	4592 	0.053204
34.49 	0.055688 	4597 	0.054669
34.51 	0.054060 	4606 	0.052915
34.53 	0.051475 	4643 	0.050971
34.55 	0.054491 	4643 	0.053734
34.57 	0.053863 	4660 	0.052585
34.59 	0.056471 	4675 	0.054967
34.61 	0.054503 	4697 	0.053879
34.63 	0.056688 	4710 	0.056190
34.65 	0.055073 	4721 	0.054080
34.67 	0.051677 	4741 	0.051430
34.69 	0.055322 	4754 	0.054459
34.71 	0.054343 	4766 	0.053729
34.73 	0.053478 	4787 	0.053233
34.75 	0.054077 	4808 	0.053711
34.77 	0.053964 	4818 	0.053356
34.79 	0.055970 	4824 	0.055120
34.81 	0.054902 	4845 	0.054056
34.83 	0.052859 	4862 	0.052256
34.85 	0.052783 	4869 	0.051580
34.87 	0.054437 	4868 	0.054076
34.89 	0.055100 	4882 	0.054020
34.91 	0.057354 	4882 	0.057114
34.93 	0.055930 	4899 	0.055093
34.95 	0.052352 	4890 	0.051633
34.97 	0.054672 	4902 	0.053596
34.99 	0.052073 	4897 	0.051355
35.01 	0.053220 	4923 	0.052863
35.03 	0.053004 	4943 	0.052293
35.05 	0.060441 	4947 	0.059730
35.07 	0.056883 	4940 	0.056053
35.09 	0.051686 	4953 	0.050976
35.11 	0.060239 	4947 	0.058936
35.13 	0.058088 	4958 	0.057261
35.15 	0.059753 	4937 	0.058685
35.17 	0.054185 	4946 	0.052764
35.19 	0.052408 	4942 	0.051697
35.21 	0.054196 	4945 	0.053485
35.23 	0.058645 	4945 	0.057204
35.25 	0.052195 	4943 	0.051365
35.27 	0.052951 	4948 	0.051767
35.29 	0.050758 	4945 	0.050521
35.31 	0.055747 	4933 	0.054441
35.33 	0.056241 	4943 	0.055056
35.35 	0.062323 	4942 	0.060901
35.37 	0.054464 	4939 	0.053871
35.39 	0.063701 	4945 	0.062161
35.41 	0.055014 	4926 	0.054063
35.43 	0.054733 	4933 	0.054377
35.45 	0.052056 	4937 	0.051700
35.47 	0.054553 	4931 	0.053602
35.49 	0.058452 	4910 	0.057498
35.51 	0.051766 	4926 	0.051172
35.53 	0.050515 	4949 	0.049805
35.55 	0.058443 	4945 	0.057732
35.57 	0.049260 	4933 	0.048785
35.59 	0.052781 	4945 	0.051221
35.61 	0.058883 	4942 	0.057915
35.63 	0.049565 	4943 	0.048143
35.65 	0.052578 	4945 	0.051868
35.67 	0.049777 	4942 	0.049066
35.69 	0.055600 	4946 	0.054535
35.71 	0.056512 	4937 	0.056037
35.73 	0.052674 	4936 	0.051606
35.75 	0.056581 	4931 	0.056106
35.77 	0.054736 	4951 	0.053908
35.79 	0.045215 	4932 	0.043889
35.81 	0.053923 	4933 	0.053091
35.83 	0.051759 	4946 	0.050693
35.85 	0.055319 	4935 	0.054469
35.87 	0.053423 	4923 	0.052709
35.89 	0.057357 	4934 	0.056645
35.91 	0.053379 	4927 	0.052904
35.93 	0.059265 	4927 	0.057938
35.95 	0.052064 	4917 	0.050635
35.97 	0.057818 	4912 	0.057102
35.99 	0.052642 	4939 	0.051792
36.01 	0.052941 	4930 	0.052109
36.03 	0.054825 	4943 	0.054706
36.05 	0.052376 	4945 	0.051547
36.07 	0.056894 	4939 	0.056182
36.09 	0.055466 	4940 	0.054754
36.11 	0.059038 	4929 	0.057236
36.13 	0.055645 	4942 	0.054934
36.15 	0.053250 	4939 	0.052657
36.17 	0.060711 	4925 	0.059145
36.19 	0.055466 	4940 	0.054517
36.21 	0.052749 	4929 	0.052155
36.23 	0.059574 	4935 	0.058625
36.25 	0.052823 	4941 	0.052112
36.27 	0.055431 	4925 	0.054104
36.29 	0.048672 	4931 	0.048315
36.31 	0.051542 	4928 	0.050829
36.33 	0.056558 	4933 	0.055489
36.35 	0.057618 	4929 	0.056667
36.37 	0.051391 	4923 	0.050440
36.39 	0.055477 	4921 	0.055357
36.41 	0.053922 	4896 	0.053323
36.43 	0.056412 	4928 	0.055343
36.45 	0.055375 	4930 	0.053831
36.47 	0.054295 	4936 	0.053089
36.49 	0.052003 	4942 	0.050936
36.51 	0.052504 	4933 	0.051554
36.53 	0.054420 	4943 	0.053709
36.55 	0.058250 	4927 	0.057418
36.57 	0.054925 	4934 	0.054094
36.59 	0.057906 	4939 	0.056839
36.61 	0.055161 	4931 	0.054211
36.63 	0.058406 	4931 	0.057099
36.65 	0.054136 	4932 	0.053186
36.67 	0.055984 	4930 	0.055014
36.69 	0.048691 	4929 	0.047860
36.71 	0.054664 	4921 	0.053235
36.73 	0.050964 	4925 	0.049299
36.75 	0.050364 	4944 	0.050246
36.77 	0.054483 	4919 	0.053649
36.79 	0.056493 	4921 	0.055302
36.81 	0.053499 	4916 	0.051950
36.83 	0.050458 	4915 	0.049743
36.85 	0.051450 	4898 	0.050852
36.87 	0.052994 	4944 	0.051690
36.89 	0.057567 	4916 	0.056852
36.91 	0.048573 	4941 	0.047032
36.93 	0.049696 	4930 	0.049220
36.95 	0.048247 	4933 	0.047059
36.97 	0.052088 	4934 	0.051375
36.99 	0.049037 	4935 	0.048563
37.01 	0.050882 	4933 	0.049694
37.03 	0.054224 	4924 	0.053154
37.05 	0.050538 	4927 	0.050300
37.07 	0.056535 	4935 	0.055941
37.09 	0.054789 	4928 	0.053719
37.11 	0.055522 	4935 	0.053979
37.13 	0.047116 	4924 	0.046283
37.15 	0.054186 	4909 	0.053093
37.17 	0.056344 	4934 	0.055513
37.19 	0.046904 	4925 	0.046309
37.21 	0.052064 	4917 	0.051092
37.23 	0.053070 	4918 	0.051522
37.25 	0.050906 	4911 	0.050190
37.27 	0.049040 	4894 	0.048202
37.29 	0.056592 	4930 	0.055879
37.31 	0.050253 	4935 	0.049304
37.33 	0.048914 	4927 	0.048320
37.35 	0.046983 	4938 	0.046271
37.37 	0.050944 	4927 	0.050587
37.39 	0.046846 	4931 	0.046015
37.41 	0.047658 	4931 	0.047182
37.43 	0.050081 	4932 	0.048993
37.45 	0.051787 	4924 	0.051073
37.47 	0.050720 	4929 	0.050245
37.49 	0.050782 	4923 	0.050187
37.51 	0.051895 	4933 	0.050945
37.53 	0.053873 	4919 	0.053277
37.55 	0.046045 	4930 	0.045193
37.57 	0.054416 	4925 	0.053940
37.59 	0.050051 	4915 	0.049097
37.61 	0.056887 	4922 	0.056173
37.63 	0.046554 	4919 	0.046078
37.65 	0.050020 	4918 	0.049306
37.67 	0.046697 	4904 	0.046099
37.69 	0.051041 	4898 	0.049945
37.71 	0.052343 	4929 	0.051016
37.73 	0.052546 	4929 	0.052190
37.75 	0.049595 	4940 	0.048647
37.77 	0.053659 	4920 	0.052468
37.79 	0.047870 	4930 	0.046801
37.81 	0.047638 	4933 	0.046926
37.83 	0.050610 	4920 	0.049419
37.85 	0.048964 	4922 	0.048845
37.87 	0.049200 	4939 	0.049082
37.89 	0.055025 	4925 	0.053836
37.91 	0.046856 	4930 	0.046262
37.93 	0.054686 	4919 	0.053019
37.95 	0.050193 	4921 	0.049360
37.97 	0.051532 	4929 	0.051175
37.99 	0.051303 	4912 	0.050349
38.01 	0.046063 	4928 	0.045469
38.03 	0.057446 	4909 	0.056491
38.05 	0.049137 	4925 	0.047829
38.07 	0.043593 	4909 	0.043235
38.09 	0.048175 	4878 	0.047335
38.11 	0.050659 	4935 	0.050184
38.13 	0.050030 	4937 	0.049437
38.15 	0.055510 	4918 	0.054438
38.17 	0.055781 	4930 	0.054474
38.19 	0.055578 	4930 	0.054628
38.21 	0.055251 	4923 	0.053942
38.23 	0.050628 	4938 	0.050272
38.25 	0.054505 	4917 	0.053433
38.27 	0.060041 	4930 	0.059090
38.29 	0.055849 	4924 	0.055254
38.31 	0.058047 	4927 	0.057453
38.33 	0.065191 	4924 	0.063763
38.35 	0.058442 	4928 	0.057372
38.37 	0.058083 	4924 	0.057250
38.39 	0.058871 	4909 	0.057440
38.41 	0.060329 	4923 	0.059496
38.43 	0.067941 	4916 	0.066631
38.45 	0.061407 	4918 	0.059978
38.47 	0.064194 	4907 	0.063000
38.49 	0.063769 	4877 	0.062207
38.51 	0.064882 	4932 	0.064764
38.53 	0.066139 	4929 	0.065188
38.55 	0.063209 	4936 	0.061429
38.57 	0.060735 	4923 	0.059664
38.59 	0.054630 	4924 	0.053640
38.61 	0.060778 	4936 	0.059710
38.63 	0.059301 	4924 	0.058330
38.65 	0.052460 	4918 	0.051746
38.67 	0.052258 	4937 	0.051665
38.69 	0.056887 	4922 	0.055816
38.71 	0.051381 	4924 	0.050786
38.73 	0.055104 	4918 	0.054508
38.75 	0.051959 	4927 	0.051007
38.77 	0.048548 	4923 	0.048072
38.79 	0.050061 	4934 	0.049348
38.81 	0.050285 	4912 	0.049569
38.83 	0.054889 	4919 	0.054175
38.85 	0.048453 	4912 	0.047856
38.87 	0.050499 	4911 	0.049902
38.89 	0.044721 	4897 	0.043864
38.91 	0.046094 	4903 	0.045855
38.93 	0.049008 	4938 	0.047821
38.95 	0.050834 	4918 	0.050595
38.97 	0.053539 	4931 	0.053064
38.99 	0.044156 	4937 	0.043800
39.01 	0.044734 	4918 	0.044257
39.03 	0.047831 	4934 	0.047713
39.05 	0.048731 	4925 	0.048374
39.07 	0.044273 	4924 	0.044035
39.09 	0.049360 	4923 	0.048765
39.11 	0.045630 	4931 	0.045036
39.13 	0.047532 	4923 	0.046818
39.15 	0.042319 	4915 	0.041366
39.17 	0.049220 	4937 	0.048746
39.19 	0.045149 	4917 	0.044673
39.21 	0.043381 	4910 	0.042784
39.23 	0.050964 	4925 	0.050727
39.25 	0.044291 	4922 	0.043696
39.27 	0.046843 	4910 	0.046008
39.29 	0.044685 	4901 	0.043968
39.31 	0.050369 	4884 	0.050129
39.33 	0.044413 	4931 	0.043819
39.35 	0.046201 	4935 	0.045251
39.37 	0.041185 	4929 	0.040709
39.39 	0.044634 	4929 	0.043921
39.41 	0.040357 	4931 	0.039882
39.43 	0.040543 	4933 	0.040425
39.45 	0.049543 	4925 	0.049067
39.47 	0.042860 	4923 	0.041789
39.49 	0.042165 	4933 	0.041571
39.51 	0.043054 	4924 	0.042460
39.53 	0.041235 	4923 	0.040878
39.55 	0.042488 	4919 	0.042131
39.57 	0.045408 	4933 	0.044815
39.59 	0.048249 	4912 	0.047057
39.61 	0.043063 	4923 	0.042111
39.63 	0.038805 	4922 	0.038567
39.65 	0.046894 	4926 	0.046299
39.67 	0.042744 	4913 	0.042505
39.69 	0.041294 	4916 	0.040936
39.71 	0.041675 	4895 	0.040478
39.73 	0.046251 	4908 	0.045654
39.75 	0.043831 	4928 	0.042880
39.77 	0.044580 	4935 	0.044342
39.79 	0.046285 	4926 	0.045453
39.81 	0.049117 	4927 	0.048760
39.83 	0.043170 	4934 	0.042576
39.85 	0.040796 	4927 	0.040419
39.87 	0.044467 	4925 	0.043872
39.89 	0.045602 	4934 	0.045246
39.91 	0.043885 	4922 	0.043290
39.93 	0.044561 	4937 	0.043968
39.95 	0.043947 	4915 	0.043232
39.97 	0.046266 	4928 	0.045672
39.99 	0.042985 	4932 	0.042747
40.01 	0.045954 	4918 	0.045120
40.03 	0.042614 	4928 	0.042138
40.05 	0.040675 	4917 	0.040199
40.07 	0.046110 	4923 	0.045396
40.09 	0.040277 	4916 	0.039681
40.11 	0.044142 	4916 	0.043427
40.13 	0.044526 	4896 	0.044167
40.15 	0.045593 	4913 	0.044759
40.17 	0.043831 	4928 	0.043712
40.19 	0.042605 	4929 	0.042248
40.21 	0.039919 	4935 	0.039069
40.23 	0.041971 	4932 	0.041377
40.25 	0.041260 	4920 	0.040546
40.27 	0.037067 	4937 	0.036948
40.29 	0.041202 	4927 	0.040825
40.31 	0.037862 	4939 	0.037506
40.33 	0.040754 	4932 	0.040160
40.35 	0.045334 	4919 	0.044739
40.37 	0.039765 	4929 	0.039408
40.39 	0.039749 	4931 	0.039155
40.41 	0.042437 	4925 	0.041366
40.43 	0.043478 	4922 	0.042764
40.45 	0.041962 	4933 	0.041725
40.47 	0.040870 	4918 	0.040036
40.49 	0.044255 	4926 	0.043898
40.51 	0.045916 	4922 	0.045321
40.53 	0.042921 	4916 	0.042306
40.55 	0.040139 	4908 	0.039661
40.57 	0.046830 	4890 	0.046591
40.59 	0.045169 	4937 	0.044576
40.61 	0.038703 	4935 	0.037635
40.63 	0.038134 	4930 	0.037659
40.65 	0.037270 	4937 	0.037032
40.67 	0.043998 	4932 	0.043523
40.69 	0.044764 	4937 	0.044289
40.71 	0.044201 	4932 	0.043845
40.73 	0.044661 	4926 	0.044304
40.75 	0.043805 	4931 	0.042854
40.77 	0.039482 	4939 	0.039126
40.79 	0.041633 	4924 	0.041157
40.81 	0.036025 	4941 	0.035650
40.83 	0.040179 	4928 	0.039822
40.85 	0.038790 	4924 	0.038552
40.87 	0.043628 	4928 	0.042677
40.89 	0.042385 	4931 	0.041296
40.91 	0.036766 	4923 	0.036647
40.93 	0.035266 	4934 	0.034909
40.95 	0.044372 	4913 	0.043895
40.97 	0.041227 	4924 	0.040632
40.99 	0.047116 	4924 	0.046045
41.01 	0.038477 	4912 	0.038119
41.03 	0.044444 	4905 	0.044086
41.05 	0.041734 	4936 	0.041141
41.07 	0.035497 	4930 	0.035140
41.09 	0.040899 	4939 	0.040543
41.11 	0.040122 	4935 	0.039528
41.13 	0.043963 	4936 	0.043607
41.15 	0.041692 	4941 	0.041099
41.17 	0.038306 	4934 	0.038187
41.19 	0.039959 	4930 	0.039484
41.21 	0.036257 	4937 	0.036138
41.23 	0.039887 	4939 	0.039056
41.25 	0.040138 	4933 	0.039900
41.27 	0.045021 	4931 	0.044546
41.29 	0.040381 	4928 	0.040005
41.31 	0.039935 	4933 	0.039579
41.33 	0.041726 	4937 	0.041014
41.35 	0.040502 	4938 	0.040146
41.37 	0.041024 	4924 	0.040310
41.39 	0.042773 	4933 	0.042179
41.41 	0.043443 	4926 	0.042848
41.43 	0.035910 	4929 	0.035078
41.45 	0.039683 	4914 	0.038967
41.47 	0.038368 	4926 	0.037654
41.49 	0.040679 	4892 	0.040319
41.51 	0.037449 	4940 	0.037331
41.53 	0.037015 	4944 	0.036659
41.55 	0.040324 	4935 	0.040087
41.57 	0.038859 	4941 	0.038503
41.59 	0.039124 	4933 	0.039006
41.61 	0.043206 	4953 	0.043088
41.63 	0.037667 	4938 	0.037074
41.65 	0.044431 	4929 	0.044193
41.67 	0.037045 	4940 	0.036926
41.69 	0.040024 	4947 	0.039669
41.71 	0.040130 	4934 	0.040011
41.73 	0.040721 	4936 	0.040247
41.75 	0.041388 	4929 	0.040437
41.77 	0.038251 	4941 	0.038014
41.79 	0.040655 	4944 	0.040300
41.81 	0.042139 	4936 	0.041764
41.83 	0.040584 	4928 	0.039990
41.85 	0.039279 	4939 	0.038923
41.87 	0.042351 	4935 	0.041362
41.89 	0.037908 	4933 	0.037552
41.91 	0.039100 	4936 	0.038270
41.93 	0.037916 	4932 	0.037559
41.95 	0.035895 	4931 	0.035282
41.97 	0.035409 	4914 	0.034932
41.99 	0.041590 	4905 	0.040754
42.01 	0.036018 	4942 	0.035899
42.03 	0.031788 	4939 	0.031432
42.05 	0.038166 	4952 	0.037930
42.07 	0.042131 	4937 	0.041656
42.09 	0.041431 	4948 	0.041194
42.11 	0.041052 	4945 	0.040104
42.13 	0.038423 	4945 	0.037811
42.15 	0.037870 	4938 	0.037276
42.17 	0.037007 	4918 	0.036173
42.19 	0.041565 	4908 	0.040849
42.21 	0.037951 	4901 	0.037712
42.23 	0.036590 	4892 	0.036471
42.25 	0.033749 	4889 	0.033749
42.27 	0.034469 	4874 	0.034228
42.29 	0.037425 	4863 	0.037185
42.31 	0.036045 	4855 	0.035442
42.33 	0.040753 	4834 	0.040268
42.35 	0.035759 	4838 	0.035516
42.37 	0.041201 	4830 	0.040594
42.39 	0.036220 	4804 	0.035976
42.41 	0.042881 	4804 	0.042515
42.43 	0.037145 	4792 	0.036901
42.45 	0.037270 	4776 	0.036902
42.47 	0.040294 	4765 	0.040048
42.49 	0.037146 	4765 	0.036777
42.51 	0.039216 	4743 	0.038845
42.53 	0.035533 	4728 	0.035161
42.55 	0.041631 	4708 	0.041009
42.57 	0.040381 	4730 	0.039885
42.59 	0.036371 	4729 	0.035876
42.61 	0.033985 	4708 	0.033363
42.63 	0.038862 	4709 	0.037991
42.65 	0.033084 	4685 	0.032709
42.67 	0.032237 	4684 	0.031987
42.69 	0.039367 	4674 	0.038740
42.71 	0.035385 	4663 	0.035134
42.73 	0.038793 	4640 	0.038162
42.75 	0.039203 	4617 	0.038822
42.77 	0.039130 	4600 	0.038748
42.79 	0.038411 	4582 	0.038283
42.81 	0.035949 	4562 	0.035564
42.83 	0.035053 	4536 	0.034665
42.85 	0.037544 	4528 	0.037156
42.87 	0.038675 	4499 	0.038154
42.89 	0.033482 	4480 	0.033351
42.91 	0.038600 	4456 	0.038205
42.93 	0.039361 	4446 	0.039361
42.95 	0.032609 	4416 	0.032189
42.97 	0.036128 	4401 	0.035840
42.99 	0.037856 	4385 	0.037434
43.01 	0.034609 	4363 	0.033938
43.03 	0.034387 	4333 	0.033846
43.05 	0.034451 	4325 	0.034045
43.07 	0.037244 	4296 	0.037244
43.09 	0.036657 	4283 	0.035836
43.11 	0.038543 	4255 	0.038405
43.13 	0.035166 	4237 	0.034752
43.15 	0.031859 	4206 	0.031441
43.17 	0.032544 	4179 	0.032123
43.19 	0.042918 	4194 	0.041801
43.21 	0.034995 	4172 	0.034434
43.23 	0.037554 	4154 	0.036685
43.25 	0.039420 	4135 	0.038995
43.27 	0.043849 	4105 	0.043706
43.29 	0.034878 	4100 	0.034592
43.31 	0.033587 	4079 	0.033299
43.33 	0.039003 	4051 	0.038714
43.35 	0.031746 	4032 	0.031601
43.37 	0.038854 	4015 	0.038417
43.39 	0.039730 	4002 	0.039584
43.41 	0.041289 	3972 	0.040994
43.43 	0.034091 	3960 	0.033795
43.45 	0.039898 	3935 	0.039303
43.47 	0.036980 	3921 	0.036383
43.49 	0.036952 	3897 	0.036200
43.51 	0.037400 	3877 	0.037098
43.53 	0.037018 	3863 	0.036563
43.55 	0.039811 	2964 	0.039218
43.57 	0.042002 	2238 	0.042002
43.59 	0.037228 	1746 	0.036892
43.61 	0.045892 	1351 	0.045025
43.63 	0.024975 	1001 	0.024975
43.65 	0.034934 	687 	0.034934
43.67 	0.023904 	502 	0.023904
43.69 	0.046322 	367 	0.046322
43.71 	0.029289 	239 	0.029289
43.73 	0.033333 	120 	0.033333
43.75 	0.062500 	16 	0.062500