File: Example_Data/25SC_s1_0043.003.dat
#F C:\frames\spec\25SC_s1_0043.003
#C title =s:43 frm:3 25SC_s1
#C wavelength =0.15406

#S 1  fr_average C:\frames\spec\25SC_s1_0043.003 C:\win32app\speccom\mask.axs chi 0 180 0 360 0.02
#C 2 theta =0.000000 to 180 deg
#C   q   =0.000000 to 81.568 nm^-1
#C  chi  =0.000000 to 360 deg
#C collumns:
#C  1 position (2theta or chi in degrees)
#C  2 average intensity (sum of all counts in the region divided with number of pixels)
#C  3 Number of pixels in region)
#C  4 error (sum of sqrt(intensity) for all pixels divided by number)
#N 4
#L TTh  Int  N_pix  Err
32.99 	0.032787 	61 	0.032787
33.01 	0.046964 	873 	0.046964
33.03 	0.064702 	1391 	0.063017
33.05 	0.070575 	1757 	0.069908
33.07 	0.062927 	2050 	0.061212
33.09 	0.057946 	2347 	0.057198
33.11 	0.060101 	2579 	0.058965
33.13 	0.057286 	2793 	0.057286
33.15 	0.064355 	2999 	0.063183
33.17 	0.061231 	3201 	0.059950
33.19 	0.054159 	3342 	0.053283
33.21 	0.059953 	3436 	0.058419
33.23 	0.057337 	3523 	0.056007
33.25 	0.057032 	3612 	0.056221
33.27 	0.059504 	3630 	0.058375
33.29 	0.060033 	3648 	0.059043
33.31 	0.056557 	3660 	0.056237
33.33 	0.054259 	3686 	0.053306
33.35 	0.057932 	3694 	0.056663
33.37 	0.065159 	3714 	0.064528
33.39 	0.054706 	3729 	0.054706
33.41 	0.062567 	3740 	0.061131
33.43 	0.060888 	3761 	0.059772
33.45 	0.064670 	3773 	0.062937
33.47 	0.054502 	3798 	0.053885
33.49 	0.055395 	3809 	0.054472
33.51 	0.064744 	3815 	0.063363
33.53 	0.061182 	3841 	0.060267
33.55 	0.059329 	3843 	0.058109
33.57 	0.059582 	3877 	0.057920
33.59 	0.062887 	3880 	0.061226
33.61 	0.059350 	3909 	0.058151
33.63 	0.059454 	3919 	0.058557
33.65 	0.061562 	3931 	0.060519
33.67 	0.065503 	3954 	0.064294
33.69 	0.060207 	3953 	0.059318
33.71 	0.065157 	3975 	0.063978
33.73 	0.056693 	4004 	0.055816
33.75 	0.056264 	3999 	0.055385
33.77 	0.053665 	4025 	0.052646
33.79 	0.057412 	4041 	0.056687
33.81 	0.059188 	4038 	0.057544
33.83 	0.057284 	4050 	0.055693
33.85 	0.061234 	4099 	0.059805
33.87 	0.063002 	4111 	0.062004
33.89 	0.065033 	4121 	0.063304
33.91 	0.064835 	4149 	0.063564
33.93 	0.059504 	4151 	0.058939
33.95 	0.055489 	4181 	0.054648
33.97 	0.059666 	4190 	0.058967
33.99 	0.060000 	4200 	0.059163
34.01 	0.060052 	4213 	0.058801
34.03 	0.049953 	4244 	0.049263
34.05 	0.055033 	4252 	0.054069
34.07 	0.053655 	4268 	0.052397
34.09 	0.062996 	4286 	0.061219
34.11 	0.054858 	4302 	0.054177
34.13 	0.068477 	4308 	0.067639
34.15 	0.055876 	4331 	0.055200
34.17 	0.062529 	4350 	0.061317
34.19 	0.061669 	4362 	0.060707
34.21 	0.055594 	4371 	0.054790
34.23 	0.057136 	4393 	0.056181
34.25 	0.059491 	4404 	0.058560
34.27 	0.056309 	4422 	0.055250
34.29 	0.055242 	4435 	0.054164
34.31 	0.061687 	4458 	0.061293
34.33 	0.057929 	4471 	0.056750
34.35 	0.060437 	4484 	0.059000
34.37 	0.061234 	4491 	0.059277
34.39 	0.059529 	4502 	0.058597
34.41 	0.061423 	4526 	0.060387
34.43 	0.056620 	4539 	0.056362
34.45 	0.059757 	4535 	0.058982
34.47 	0.060976 	4592 	0.059572
34.49 	0.053513 	4597 	0.052494
34.51 	0.060573 	4606 	0.059556
34.53 	0.055568 	4643 	0.054180
34.55 	0.062029 	4643 	0.061146
34.57 	0.054506 	4660 	0.053375
34.59 	0.057968 	4675 	0.057216
34.61 	0.055354 	4697 	0.054357
34.63 	0.057113 	4710 	0.055351
34.65 	0.058886 	4721 	0.057521
34.67 	0.064332 	4741 	0.062726
34.69 	0.057215 	4754 	0.056352
34.71 	0.054553 	4766 	0.053693
34.73 	0.058283 	4787 	0.057426
34.75 	0.057404 	4808 	0.056186
34.77 	0.052304 	4818 	0.051331
34.79 	0.064262 	4824 	0.062805
34.81 	0.060062 	4845 	0.058248
34.83 	0.054916 	4862 	0.054193
34.85 	0.059560 	4869 	0.058217
34.87 	0.055053 	4868 	0.054452
34.89 	0.057558 	4882 	0.056478
34.91 	0.058992 	4882 	0.058032
34.93 	0.053889 	4899 	0.053769
34.95 	0.059305 	4890 	0.058107
34.97 	0.053448 	4902 	0.052372
34.99 	0.067388 	4897 	0.066312
35.01 	0.057688 	4923 	0.056855
35.03 	0.060894 	4943 	0.060183
35.05 	0.059834 	4947 	0.058887
35.07 	0.057490 	4940 	0.057134
35.09 	0.058348 	4953 	0.057402
35.11 	0.058217 	4947 	0.057270
35.13 	0.064139 	4958 	0.062839
35.15 	0.056107 	4937 	0.055039
35.17 	0.056005 	4946 	0.054288
35.19 	0.060907 	4942 	0.059228
35.21 	0.058038 	4945 	0.056597
35.23 	0.056825 	4945 	0.055048
35.25 	0.057253 	4943 	0.055949
35.27 	0.061237 	4948 	0.059915
35.29 	0.057230 	4945 	0.056756
35.31 	0.058180 	4933 	0.057705
35.33 	0.060287 	4943 	0.058609
35.35 	0.056860 	4942 	0.056148
35.37 	0.060539 	4939 	0.059471
35.39 	0.057836 	4945 	0.056415
35.41 	0.060698 	4926 	0.059390
35.43 	0.055342 	4933 	0.055104
35.45 	0.055094 	4937 	0.054264
35.47 	0.056986 	4931 	0.055917
35.49 	0.059063 	4910 	0.057989
35.51 	0.053796 	4926 	0.052726
35.53 	0.056779 	4949 	0.055477
35.55 	0.054196 	4945 	0.053485
35.57 	0.051895 	4933 	0.050945
35.59 	0.056825 	4945 	0.056114
35.61 	0.059895 	4942 	0.058216
35.63 	0.060085 	4943 	0.059137
35.65 	0.056016 	4945 	0.055068
35.67 	0.050992 	4942 	0.050280
35.69 	0.051152 	4946 	0.049949
35.71 	0.056107 	4937 	0.055514
35.73 	0.059968 	4936 	0.058899
35.75 	0.062462 	4931 	0.061155
35.77 	0.051505 	4951 	0.051150
35.79 	0.054947 	4932 	0.053997
35.81 	0.055747 	4933 	0.054441
35.83 	0.059240 	4946 	0.058766
35.85 	0.051266 	4935 	0.050416
35.87 	0.056470 	4923 	0.055994
35.89 	0.052898 	4934 	0.052305
35.91 	0.058453 	4927 	0.057502
35.93 	0.056018 	4927 	0.055067
35.95 	0.057352 	4917 	0.056280
35.97 	0.052524 	4912 	0.051570
35.99 	0.057299 	4939 	0.056706
36.01 	0.056389 	4930 	0.055320
36.03 	0.053207 	4943 	0.052851
36.05 	0.053994 	4945 	0.052809
36.07 	0.054060 	4939 	0.052992
36.09 	0.055870 	4940 	0.054280
36.11 	0.051938 	4929 	0.051462
36.13 	0.054634 	4942 	0.053923
36.15 	0.054667 	4939 	0.054430
36.17 	0.054619 	4925 	0.053906
36.19 	0.059919 	4940 	0.059326
36.21 	0.056807 	4929 	0.055955
36.23 	0.059169 	4935 	0.058457
36.25 	0.060514 	4941 	0.059447
36.27 	0.053401 	4925 	0.052568
36.29 	0.052728 	4931 	0.052134
36.31 	0.051745 	4928 	0.050556
36.33 	0.063045 	4933 	0.062332
36.35 	0.054169 	4929 	0.053575
36.37 	0.058501 	4923 	0.057529
36.39 	0.056086 	4921 	0.054896
36.41 	0.052900 	4896 	0.052541
36.43 	0.060268 	4928 	0.059198
36.45 	0.050913 	4930 	0.049824
36.47 	0.053890 	4936 	0.052822
36.49 	0.053824 	4942 	0.052876
36.51 	0.059396 	4933 	0.058526
36.53 	0.053409 	4943 	0.052935
36.55 	0.054597 	4927 	0.054003
36.57 	0.060803 	4934 	0.059972
36.59 	0.052237 	4939 	0.051644
36.61 	0.055364 	4931 	0.054295
36.63 	0.054553 	4931 	0.053721
36.65 	0.053731 	4932 	0.053493
36.67 	0.049696 	4930 	0.048151
36.69 	0.053966 	4929 	0.053134
36.71 	0.058525 	4921 	0.057691
36.73 	0.056853 	4925 	0.056377
36.75 	0.056028 	4944 	0.054843
36.77 	0.057532 	4919 	0.056937
36.79 	0.056696 	4921 	0.055743
36.81 	0.052482 	4916 	0.051767
36.83 	0.049847 	4915 	0.049113
36.85 	0.052470 	4898 	0.051633
36.87 	0.056634 	4944 	0.055449
36.89 	0.057160 	4916 	0.056207
36.91 	0.056264 	4941 	0.055197
36.93 	0.056187 	4930 	0.055355
36.95 	0.054936 	4933 	0.054699
36.97 	0.053912 	4934 	0.052962
36.99 	0.051672 	4935 	0.051078
37.01 	0.055139 	4933 	0.054545
37.03 	0.053615 	4924 	0.052901
37.05 	0.053379 	4927 	0.052547
37.07 	0.056332 	4935 	0.055264
37.09 	0.054383 	4928 	0.053194
37.11 	0.056738 	4935 	0.055393
37.13 	0.053209 	4924 	0.052257
37.15 	0.054186 	4909 	0.053470
37.17 	0.053304 	4934 	0.052116
37.19 	0.049543 	4925 	0.048829
37.21 	0.054098 	4917 	0.053026
37.23 	0.052054 	4918 	0.051101
37.25 	0.057218 	4911 	0.055738
37.27 	0.056804 	4894 	0.056206
37.29 	0.050101 	4930 	0.049151
37.31 	0.050253 	4935 	0.048829
37.33 	0.055206 	4927 	0.054493
37.35 	0.048805 	4938 	0.047975
37.37 	0.049320 	4927 	0.048845
37.39 	0.052728 	4931 	0.052015
37.41 	0.054147 	4931 	0.053316
37.43 	0.056367 	4932 	0.056129
37.45 	0.055443 	4924 	0.054134
37.47 	0.052546 	4929 	0.051358
37.49 	0.050985 	4923 	0.050152
37.51 	0.051287 	4933 	0.050575
37.53 	0.048587 	4919 	0.047873
37.55 	0.049696 	4930 	0.048270
37.57 	0.050964 	4925 	0.050132
37.59 	0.053917 	4915 	0.053201
37.61 	0.049777 	4922 	0.048824
37.63 	0.052856 	4919 	0.052142
37.65 	0.049410 	4918 	0.048438
37.67 	0.054241 	4904 	0.053644
37.69 	0.052266 	4898 	0.051309
37.71 	0.051532 	4929 	0.050938
37.73 	0.054575 	4929 	0.054218
37.75 	0.049393 	4940 	0.048800
37.77 	0.055081 	4920 	0.054248
37.79 	0.053753 	4930 	0.052564
37.81 	0.053720 	4933 	0.053126
37.83 	0.052642 	4920 	0.051194
37.85 	0.043478 	4922 	0.042883
37.87 	0.048795 	4939 	0.048439
37.89 	0.052589 	4925 	0.051856
37.91 	0.051521 	4930 	0.050808
37.93 	0.052856 	4919 	0.052142
37.95 	0.047958 	4921 	0.047124
37.97 	0.050720 	4929 	0.050126
37.99 	0.052728 	4912 	0.052370
38.01 	0.041599 	4928 	0.040767
38.03 	0.056223 	4909 	0.054911
38.05 	0.049543 	4925 	0.048948
38.07 	0.053371 	4909 	0.052775
38.09 	0.055351 	4878 	0.054390
38.11 	0.050051 	4935 	0.049319
38.13 	0.054689 	4937 	0.053859
38.15 	0.058357 	4918 	0.057762
38.17 	0.053753 	4930 	0.052901
38.19 	0.053144 	4930 	0.052075
38.21 	0.048345 	4923 	0.047611
38.23 	0.055691 	4938 	0.054742
38.25 	0.055318 	4917 	0.054127
38.27 	0.054361 	4930 	0.053767
38.29 	0.056458 	4924 	0.055487
38.31 	0.056627 	4927 	0.056032
38.33 	0.060114 	4924 	0.058686
38.35 	0.060877 	4928 	0.060025
38.37 	0.059301 	4924 	0.058231
38.39 	0.059483 	4909 	0.058528
38.41 	0.061751 	4923 	0.061037
38.43 	0.069569 	4916 	0.067901
38.45 	0.063847 	4918 	0.062656
38.47 	0.060526 	4907 	0.059929
38.49 	0.062743 	4877 	0.061662
38.51 	0.066302 	4932 	0.065114
38.53 	0.055184 	4929 	0.054233
38.55 	0.059360 	4936 	0.058410
38.57 	0.058095 	4923 	0.056667
38.59 	0.055240 	4924 	0.054526
38.61 	0.051661 	4936 	0.050712
38.63 	0.061535 	4924 	0.059989
38.65 	0.058967 	4918 	0.058252
38.67 	0.052664 	4937 	0.052070
38.69 	0.049777 	4922 	0.049062
38.71 	0.052803 	4924 	0.051712
38.73 	0.047987 	4918 	0.047391
38.75 	0.052567 	4927 	0.051497
38.77 	0.060938 	4923 	0.059818
38.79 	0.052493 	4934 	0.051781
38.81 	0.053542 	4912 	0.053304
38.83 	0.051840 	4919 	0.051721
38.85 	0.047842 	4912 	0.047604
38.87 	0.049481 	4911 	0.049123
38.89 	0.047376 	4897 	0.046539
38.91 	0.050581 	4903 	0.049745
38.93 	0.049818 	4938 	0.049225
38.95 	0.045140 	4918 	0.044426
38.97 	0.048874 	4931 	0.047805
38.99 	0.045169 	4937 	0.044813
39.01 	0.050020 	4918 	0.049306
39.03 	0.052898 	4934 	0.051830
39.05 	0.053604 	4925 	0.052653
39.07 	0.054224 	4924 	0.053154
39.09 	0.043063 	4923 	0.042706
39.11 	0.046441 	4931 	0.045728
39.13 	0.051391 	4923 	0.050559
39.15 	0.047813 	4915 	0.047574
39.17 	0.044156 	4937 	0.043326
39.19 	0.052268 	4917 	0.052029
39.21 	0.046029 	4910 	0.045313
39.23 	0.041624 	4925 	0.040792
39.25 	0.046119 	4922 	0.045643
39.27 	0.047251 	4910 	0.046773
39.29 	0.048357 	4901 	0.047401
39.31 	0.052007 	4884 	0.051287
39.33 	0.045832 	4931 	0.045239
39.35 	0.042553 	4935 	0.041960
39.37 	0.047068 	4929 	0.046355
39.39 	0.049300 	4929 	0.048587
39.41 	0.050700 	4931 	0.050106
39.43 	0.045611 	4933 	0.045136
39.45 	0.051980 	4925 	0.050909
39.47 	0.044485 	4923 	0.043890
39.49 	0.043989 	4933 	0.043376
39.51 	0.043258 	4924 	0.043258
39.53 	0.052813 	4923 	0.051980
39.55 	0.049807 	4919 	0.049211
39.57 	0.045408 	4933 	0.045052
39.59 	0.050896 	4912 	0.049942
39.61 	0.048141 	4923 	0.047665
39.63 	0.048761 	4922 	0.048166
39.65 	0.047503 	4926 	0.046175
39.67 	0.052310 	4913 	0.051237
39.69 	0.049024 	4916 	0.048189
39.71 	0.047395 	4895 	0.047276
39.73 	0.053382 	4908 	0.052308
39.75 	0.050731 	4928 	0.050255
39.77 	0.050659 	4935 	0.049946
39.79 	0.048924 	4926 	0.048211
39.81 	0.051350 	4927 	0.050755
39.83 	0.047426 	4934 	0.046951
39.85 	0.043637 	4927 	0.043518
39.87 	0.052386 	4925 	0.052029
39.89 	0.048034 	4934 	0.047559
39.91 	0.042056 	4922 	0.041818
39.93 	0.048410 	4937 	0.047461
39.95 	0.047609 	4915 	0.047252
39.97 	0.049107 	4928 	0.047800
39.99 	0.045215 	4932 	0.044740
40.01 	0.049004 	4918 	0.048527
40.03 	0.048498 	4928 	0.047785
40.05 	0.047183 	4917 	0.046468
40.07 	0.050782 	4923 	0.050306
40.09 	0.045362 	4916 	0.044766
40.11 	0.046786 	4916 	0.046309
40.13 	0.046160 	4896 	0.045801
40.15 	0.045593 	4913 	0.044520
40.17 	0.048295 	4928 	0.047582
40.19 	0.045445 	4929 	0.044832
40.21 	0.051672 	4935 	0.051316
40.23 	0.048662 	4932 	0.048305
40.25 	0.048577 	4920 	0.048320
40.27 	0.050435 	4937 	0.049842
40.29 	0.044246 	4927 	0.043652
40.31 	0.046366 	4939 	0.045773
40.33 	0.045418 	4932 	0.045299
40.35 	0.050417 	4919 	0.050059
40.37 	0.047880 	4929 	0.047048
40.39 	0.046238 	4931 	0.046119
40.41 	0.044264 	4925 	0.043669
40.43 	0.043681 	4922 	0.043443
40.45 	0.047638 	4933 	0.046926
40.47 	0.044530 	4918 	0.043677
40.49 	0.048518 	4926 	0.047904
40.51 	0.047745 	4922 	0.047507
40.53 	0.052889 	4916 	0.052650
40.55 	0.045640 	4908 	0.045023
40.57 	0.045808 	4890 	0.045089
40.59 	0.046384 	4937 	0.045791
40.61 	0.048227 	4935 	0.047633
40.63 	0.047667 	4930 	0.046836
40.65 	0.045372 	4937 	0.045016
40.67 	0.045823 	4932 	0.045348
40.69 	0.041523 	4937 	0.041049
40.71 	0.044201 	4932 	0.043607
40.73 	0.045879 	4926 	0.045284
40.75 	0.049077 	4931 	0.047889
40.77 	0.042316 	4939 	0.041723
40.79 	0.044070 	4924 	0.043475
40.81 	0.049585 	4941 	0.049229
40.83 	0.045860 	4928 	0.045504
40.85 	0.053412 	4924 	0.052817
40.87 	0.042817 	4928 	0.042103
40.89 	0.046846 	4931 	0.046015
40.91 	0.047735 	4923 	0.047021
40.93 	0.049250 	4934 	0.048281
40.95 	0.051903 	4913 	0.050830
40.97 	0.046507 	4924 	0.045674
40.99 	0.041227 	4924 	0.040513
41.01 	0.047231 	4912 	0.046396
41.03 	0.048114 	4905 	0.047517
41.05 	0.047812 	4936 	0.047456
41.07 	0.046247 	4930 	0.045653
41.09 	0.040494 	4939 	0.040257
41.11 	0.044782 	4935 	0.044189
41.13 	0.045178 	4936 	0.044704
41.15 	0.048168 	4941 	0.047338
41.17 	0.047831 	4934 	0.047119
41.19 	0.037525 	4930 	0.037169
41.21 	0.046182 	4937 	0.045707
41.23 	0.039684 	4939 	0.039091
41.25 	0.041557 	4933 	0.041082
41.27 	0.045630 	4931 	0.044917
41.29 	0.046063 	4928 	0.045588
41.31 	0.044598 	4933 	0.043885
41.33 	0.048410 	4937 	0.047579
41.35 	0.041717 	4938 	0.041361
41.37 	0.042039 	4924 	0.041087
41.39 	0.036489 	4933 	0.036133
41.41 	0.043037 	4926 	0.042561
41.43 	0.043619 	4929 	0.043263
41.45 	0.040497 	4914 	0.039901
41.47 	0.044052 	4926 	0.043814
41.49 	0.038226 	4892 	0.037986
41.51 	0.044939 	4940 	0.044584
41.53 	0.042880 	4944 	0.042288
41.55 	0.049037 	4935 	0.048325
41.57 	0.040882 	4941 	0.040645
41.59 	0.041151 	4933 	0.041033
41.61 	0.050474 	4953 	0.049883
41.63 	0.040097 	4938 	0.039385
41.65 	0.044228 	4929 	0.043872
41.67 	0.046154 	4940 	0.045917
41.69 	0.048919 	4947 	0.048090
41.71 	0.042156 	4934 	0.041682
41.73 	0.040721 	4936 	0.040365
41.75 	0.041185 	4929 	0.040828
41.77 	0.043918 	4941 	0.043325
41.79 	0.041869 	4944 	0.041277
41.81 	0.043760 	4936 	0.042929
41.83 	0.044034 	4928 	0.043064
41.85 	0.038469 	4939 	0.038114
41.87 	0.045390 	4935 	0.044777
41.89 	0.043179 	4933 	0.043060
41.91 	0.044773 	4936 	0.043785
41.93 	0.039943 	4932 	0.039468
41.95 	0.046238 	4931 	0.045763
41.97 	0.036630 	4914 	0.035676
41.99 	0.040163 	4905 	0.039805
42.01 	0.038244 	4942 	0.037769
42.03 	0.042114 	4939 	0.041877
42.05 	0.045234 	4952 	0.044643
42.07 	0.044359 	4937 	0.044240
42.09 	0.035368 	4948 	0.035131
42.11 	0.043074 	4945 	0.042600
42.13 	0.041052 	4945 	0.040578
42.15 	0.042122 	4938 	0.041766
42.17 	0.044530 	4918 	0.043935
42.19 	0.046047 	4908 	0.045809
42.21 	0.044481 	4901 	0.044122
42.23 	0.042723 	4892 	0.042004
42.25 	0.041113 	4889 	0.040274
42.27 	0.039598 	4874 	0.039357
42.29 	0.043183 	4863 	0.042581
42.31 	0.045932 	4855 	0.045449
42.33 	0.044063 	4834 	0.043336
42.35 	0.043613 	4838 	0.042887
42.37 	0.037267 	4830 	0.036539
42.39 	0.038926 	4804 	0.038682
42.41 	0.036012 	4804 	0.035524
42.43 	0.040693 	4792 	0.040204
42.45 	0.035595 	4776 	0.035472
42.47 	0.031689 	4765 	0.031566
42.49 	0.037566 	4765 	0.037197
42.51 	0.039216 	4743 	0.038845
42.53 	0.044416 	4728 	0.044292
42.55 	0.042056 	4708 	0.041434
42.57 	0.035518 	4730 	0.034899
42.59 	0.040812 	4729 	0.040193
42.61 	0.043118 	4708 	0.042745
42.63 	0.043958 	4709 	0.043585
42.65 	0.038634 	4685 	0.038509
42.67 	0.037788 	4684 	0.037538
42.69 	0.041720 	4674 	0.041219
42.71 	0.045679 	4663 	0.045051
42.73 	0.036638 	4640 	0.036385
42.75 	0.040069 	4617 	0.039562
42.77 	0.036739 	4600 	0.036230
42.79 	0.042340 	4582 	0.041317
42.81 	0.039237 	4562 	0.039109
42.83 	0.042549 	4536 	0.042161
42.85 	0.039973 	4528 	0.039715
42.87 	0.041787 	4499 	0.041657
42.89 	0.039286 	4480 	0.038632
42.91 	0.036355 	4456 	0.036093
42.93 	0.038462 	4446 	0.038066
42.95 	0.045063 	4416 	0.044665
42.97 	0.044308 	4401 	0.043110
42.99 	0.036260 	4385 	0.035592
43.01 	0.045611 	4363 	0.044940
43.03 	0.040157 	4333 	0.039616
43.05 	0.032139 	4325 	0.032139
43.07 	0.034218 	4296 	0.033945
43.09 	0.039458 	4283 	0.038501
43.11 	0.043243 	4255 	0.042830
43.13 	0.039651 	4237 	0.039651
43.15 	0.043272 	4206 	0.042993
43.17 	0.038765 	4179 	0.038485
43.19 	0.037911 	4194 	0.037353
43.21 	0.041467 	4172 	0.041046
43.23 	0.044535 	4154 	0.043971
43.25 	0.043773 	4135 	0.043631
43.27 	0.043118 	4105 	0.042405
43.29 	0.042927 	4100 	0.041641
43.31 	0.041432 	4079 	0.041288
43.33 	0.043693 	4051 	0.042970
43.35 	0.042907 	4032 	0.041744
43.37 	0.041594 	4015 	0.041156
43.39 	0.041479 	4002 	0.040747
43.41 	0.045569 	3972 	0.045127
43.43 	0.040909 	3960 	0.040613
43.45 	0.037357 	3935 	0.037059
43.47 	0.038766 	3921 	0.038616
43.49 	0.039261 	3897 	0.038810
43.51 	0.045654 	3877 	0.045201
43.53 	0.032617 	3863 	0.032314
43.55 	0.036775 	2964 	0.036379
43.57 	0.046470 	2238 	0.045161
43.59 	0.044101 	1746 	0.044101
43.61 	0.039970 	1351 	0.039103
43.63 	0.047952 	1001 	0.047367
43.65 	0.039301 	687 	0.038449
43.67 	0.041833 	502 	0.041833
43.69 	0.024523 	367 	0.024523
43.71 	0.012552 	239 	0.012552
43.73 	0.066667 	120 	0.066667
43.75 	0.000000 	16 	0.000000