File: Example_Data/25SC_s1_0002.005.dat
#F C:\frames\spec\25SC_s1_0002.005
#C title =s:2 frm:5 25SC_s1
#C wavelength =0.15406

#S 1  fr_average C:\frames\spec\25SC_s1_0002.005 C:\win32app\speccom\mask.axs chi 0 180 0 360 0.02
#C 2 theta =0.000000 to 180 deg
#C   q   =0.000000 to 81.568 nm^-1
#C  chi  =0.000000 to 360 deg
#C collumns:
#C  1 position (2theta or chi in degrees)
#C  2 average intensity (sum of all counts in the region divided with number of pixels)
#C  3 Number of pixels in region)
#C  4 error (sum of sqrt(intensity) for all pixels divided by number)
#N 4
#L TTh  Int  N_pix  Err
32.99 	0.065574 	61 	0.065574
33.01 	0.071019 	873 	0.069677
33.03 	0.074047 	1391 	0.072715
33.05 	0.066591 	1757 	0.065924
33.07 	0.069756 	2050 	0.068899
33.09 	0.076694 	2347 	0.074697
33.11 	0.075223 	2579 	0.073860
33.13 	0.071608 	2793 	0.070978
33.15 	0.072357 	2999 	0.070795
33.17 	0.064042 	3201 	0.062761
33.19 	0.076900 	3342 	0.075673
33.21 	0.068685 	3436 	0.068514
33.23 	0.059041 	3523 	0.057212
33.25 	0.071429 	3612 	0.069456
33.27 	0.063636 	3630 	0.062507
33.29 	0.072368 	3648 	0.071405
33.31 	0.073497 	3660 	0.071577
33.33 	0.071351 	3686 	0.069921
33.35 	0.067407 	3694 	0.066455
33.37 	0.068928 	3714 	0.067641
33.39 	0.075623 	3729 	0.073215
33.41 	0.077807 	3740 	0.076711
33.43 	0.067801 	3761 	0.066555
33.45 	0.070766 	3773 	0.069213
33.47 	0.073986 	3798 	0.072752
33.49 	0.069572 	3809 	0.068496
33.51 	0.073132 	3815 	0.071136
33.53 	0.078365 	3841 	0.076840
33.55 	0.073901 	3843 	0.072351
33.57 	0.079701 	3877 	0.077737
33.59 	0.076804 	3880 	0.075143
33.61 	0.075211 	3909 	0.073413
33.63 	0.068895 	3919 	0.067400
33.65 	0.073009 	3931 	0.071817
33.67 	0.065250 	3954 	0.064658
33.69 	0.071338 	3953 	0.070153
33.71 	0.084528 	3975 	0.082023
33.73 	0.077423 	4004 	0.075058
33.75 	0.076769 	3999 	0.075451
33.77 	0.076770 	4025 	0.075145
33.79 	0.067558 	4041 	0.065939
33.81 	0.069341 	4038 	0.067891
33.83 	0.073333 	4050 	0.072176
33.85 	0.074896 	4099 	0.072610
33.87 	0.065434 	4111 	0.064271
33.89 	0.066246 	4121 	0.064825
33.91 	0.069414 	4149 	0.068285
33.93 	0.064563 	4151 	0.063716
33.95 	0.067209 	4181 	0.065785
33.97 	0.069451 	4190 	0.067773
33.99 	0.071905 	4200 	0.070650
34.01 	0.074294 	4213 	0.072881
34.03 	0.066682 	4244 	0.065578
34.05 	0.070085 	4252 	0.068271
34.07 	0.066073 	4268 	0.064975
34.09 	0.075128 	4286 	0.072372
34.11 	0.066481 	4302 	0.065505
34.13 	0.068477 	4308 	0.066143
34.15 	0.081275 	4331 	0.079088
34.17 	0.072414 	4350 	0.071202
34.19 	0.069922 	4362 	0.068557
34.21 	0.070922 	4371 	0.069046
34.23 	0.072843 	4393 	0.070843
34.25 	0.072207 	4404 	0.070079
34.27 	0.080507 	4422 	0.077549
34.29 	0.075761 	4435 	0.075101
34.31 	0.065725 	4458 	0.065068
34.33 	0.070230 	4471 	0.069182
34.35 	0.065566 	4484 	0.064913
34.37 	0.075039 	4491 	0.073452
34.39 	0.070635 	4502 	0.069855
34.41 	0.074017 	4526 	0.072334
34.43 	0.068958 	4539 	0.067796
34.45 	0.063286 	4535 	0.062511
34.47 	0.070340 	4592 	0.069064
34.49 	0.065042 	4597 	0.063513
34.51 	0.070560 	4606 	0.069119
34.53 	0.069782 	4643 	0.068647
34.55 	0.079259 	4643 	0.077367
34.57 	0.073391 	4660 	0.072008
34.59 	0.071658 	4675 	0.069883
34.61 	0.068554 	4697 	0.067432
34.63 	0.068153 	4710 	0.066785
34.65 	0.072654 	4721 	0.071289
34.67 	0.073191 	4741 	0.071709
34.69 	0.067312 	4754 	0.066080
34.71 	0.075955 	4766 	0.073742
34.73 	0.068728 	4787 	0.067994
34.75 	0.068220 	4808 	0.067001
34.77 	0.071606 	4818 	0.069661
34.79 	0.064055 	4824 	0.062962
34.81 	0.072239 	4845 	0.070527
34.83 	0.081448 	4862 	0.078637
34.85 	0.076812 	4869 	0.074848
34.87 	0.066968 	4868 	0.065765
34.89 	0.070258 	4882 	0.069058
34.91 	0.074355 	4882 	0.072175
34.93 	0.071035 	4899 	0.069122
34.95 	0.067076 	4890 	0.065758
34.97 	0.076091 	4902 	0.074538
34.99 	0.068409 	4897 	0.067692
35.01 	0.074142 	4923 	0.072833
35.03 	0.069998 	4943 	0.068102
35.05 	0.072367 	4947 	0.070591
35.07 	0.073279 	4940 	0.072568
35.09 	0.075712 	4953 	0.073701
35.11 	0.065696 	4947 	0.064394
35.13 	0.065349 	4958 	0.064049
35.15 	0.069678 	4937 	0.068017
35.17 	0.070158 	4946 	0.068855
35.19 	0.073250 	4942 	0.072045
35.21 	0.074621 	4945 	0.073081
35.23 	0.073205 	4945 	0.071073
35.25 	0.065952 	4943 	0.064767
35.27 	0.079830 	4948 	0.078410
35.29 	0.065521 	4945 	0.064455
35.31 	0.071356 	4933 	0.069694
35.33 	0.068177 	4943 	0.067229
35.35 	0.065561 	4942 	0.064257
35.37 	0.070662 	4939 	0.069120
35.39 	0.079879 	4945 	0.077490
35.41 	0.072067 	4926 	0.070877
35.43 	0.072572 	4933 	0.070672
35.45 	0.070083 	4937 	0.067947
35.47 	0.073413 	4931 	0.071988
35.49 	0.079837 	4910 	0.078286
35.51 	0.069631 	4926 	0.067966
35.53 	0.068701 	4949 	0.067044
35.55 	0.063701 	4945 	0.062161
35.57 	0.072167 	4933 	0.070129
35.59 	0.074216 	4945 	0.072558
35.61 	0.071631 	4942 	0.070090
35.63 	0.076472 	4943 	0.075287
35.65 	0.073205 	4945 	0.071409
35.67 	0.078713 	4942 	0.077291
35.69 	0.075212 	4946 	0.072943
35.71 	0.071501 	4937 	0.070176
35.73 	0.072123 	4936 	0.070699
35.75 	0.078077 	4931 	0.075108
35.77 	0.069481 	4951 	0.068061
35.79 	0.076034 	4932 	0.074114
35.81 	0.077235 	4933 	0.075572
35.83 	0.083906 	4946 	0.081854
35.85 	0.074164 	4935 	0.072384
35.87 	0.071907 	4923 	0.070479
35.89 	0.074179 	4934 	0.072042
35.91 	0.078547 	4927 	0.076644
35.93 	0.072052 	4927 	0.070625
35.95 	0.069555 	4917 	0.068244
35.97 	0.069829 	4912 	0.068517
35.99 	0.071674 	4939 	0.070370
36.01 	0.072414 	4930 	0.070631
36.03 	0.064536 	4943 	0.063351
36.05 	0.066127 	4945 	0.064943
36.07 	0.072687 	4939 	0.071026
36.09 	0.071255 	4940 	0.069457
36.11 	0.080138 	4929 	0.078831
36.13 	0.075273 	4942 	0.073950
36.15 	0.073092 	4939 	0.071787
36.17 	0.070660 	4925 	0.069352
36.19 	0.065385 	4940 	0.064080
36.21 	0.069385 	4929 	0.067702
36.23 	0.077609 	4935 	0.076066
36.25 	0.069419 	4941 	0.067878
36.27 	0.077360 	4925 	0.075576
36.29 	0.081525 	4931 	0.079030
36.31 	0.069399 	4928 	0.067597
36.33 	0.068721 	4933 	0.067058
36.35 	0.075066 	4929 	0.074353
36.37 	0.071501 	4923 	0.070430
36.39 	0.070514 	4921 	0.069562
36.41 	0.079453 	4896 	0.077538
36.43 	0.066964 	4928 	0.066132
36.45 	0.073631 	4930 	0.071849
36.47 	0.070908 	4936 	0.070077
36.49 	0.078915 	4942 	0.077493
36.51 	0.074194 	4933 	0.071938
36.53 	0.067570 	4943 	0.066385
36.55 	0.067384 	4927 	0.066908
36.57 	0.070126 	4934 	0.069651
36.59 	0.075116 	4939 	0.073575
36.61 	0.077875 	4931 	0.076172
36.63 	0.070574 	4931 	0.069267
36.65 	0.063666 	4932 	0.062834
36.67 	0.073834 	4930 	0.072388
36.69 	0.073646 	4929 	0.071844
36.71 	0.063199 	4921 	0.062108
36.73 	0.078579 	4925 	0.077132
36.75 	0.068770 	4944 	0.067941
36.77 	0.066477 	4919 	0.064909
36.79 	0.068279 	4921 	0.066850
36.81 	0.079129 	4916 	0.076707
36.83 	0.071414 	4915 	0.069815
36.85 	0.070641 	4898 	0.068967
36.87 	0.071602 	4944 	0.069924
36.89 	0.073230 	4916 	0.071443
36.91 	0.073669 	4941 	0.072128
36.93 	0.070588 	4930 	0.069519
36.95 	0.069329 	4933 	0.068617
36.97 	0.073166 	4934 	0.071860
36.99 	0.069706 	4935 	0.068400
37.01 	0.073789 	4933 	0.072226
37.03 	0.068643 	4924 	0.067811
37.05 	0.066369 	4927 	0.064923
37.07 	0.070314 	4935 	0.068652
37.09 	0.071023 	4928 	0.069477
37.11 	0.070517 	4935 	0.069567
37.13 	0.067222 	4924 	0.065913
37.15 	0.065594 	4909 	0.065236
37.17 	0.068504 	4934 	0.067554
37.19 	0.071066 	4925 	0.069877
37.21 	0.070368 	4917 	0.069534
37.23 	0.067710 	4918 	0.066281
37.25 	0.063531 	4911 	0.062318
37.27 	0.065182 	4894 	0.063865
37.29 	0.067343 	4930 	0.066868
37.31 	0.065653 	4935 	0.064823
37.33 	0.069210 	4927 	0.067070
37.35 	0.071689 	4938 	0.069791
37.37 	0.069210 	4927 	0.068378
37.39 	0.065707 	4931 	0.064638
37.41 	0.070168 	4931 	0.068723
37.43 	0.069546 	4932 	0.067527
37.45 	0.060723 	4924 	0.060485
37.47 	0.081152 	4929 	0.079707
37.49 	0.067235 	4923 	0.065550
37.51 	0.064261 	4933 	0.062678
37.53 	0.072169 	4919 	0.070502
37.55 	0.065923 	4930 	0.064854
37.57 	0.069645 	4925 	0.068098
37.59 	0.064903 	4915 	0.062877
37.61 	0.068468 	4922 	0.067159
37.63 	0.061395 	4919 	0.060561
37.65 	0.068930 	4918 	0.067739
37.67 	0.064845 	4904 	0.063531
37.69 	0.062270 	4898 	0.060716
37.71 	0.065328 	4929 	0.064020
37.73 	0.070197 	4929 	0.068414
37.75 	0.063158 	4940 	0.061972
37.77 	0.071951 	4920 	0.070403
37.79 	0.059635 	4930 	0.058447
37.81 	0.063045 	4933 	0.060739
37.83 	0.065041 	4920 	0.064326
37.85 	0.059529 	4922 	0.058438
37.87 	0.062968 	4939 	0.061901
37.89 	0.070660 	4925 	0.069332
37.91 	0.068966 	4930 	0.066946
37.93 	0.059972 	4919 	0.059138
37.95 	0.067872 	4921 	0.066444
37.97 	0.066139 	4929 	0.064951
37.99 	0.061075 	4912 	0.059386
38.01 	0.064123 	4928 	0.062935
38.03 	0.063149 	4909 	0.062195
38.05 	0.064772 	4925 	0.063463
38.07 	0.061520 	4909 	0.060326
38.09 	0.067651 	4878 	0.066190
38.11 	0.057751 	4935 	0.057157
38.13 	0.067652 	4937 	0.065873
38.15 	0.068727 	4918 	0.067893
38.17 	0.064097 	4930 	0.063008
38.19 	0.068154 	4930 	0.066966
38.21 	0.066220 	4923 	0.064296
38.23 	0.066221 	4938 	0.064798
38.25 	0.074232 	4917 	0.071611
38.27 	0.067951 	4930 	0.066288
38.29 	0.081438 	4924 	0.079296
38.31 	0.074690 	4927 	0.073264
38.33 	0.079813 	4924 	0.077672
38.35 	0.072037 	4928 	0.070373
38.37 	0.071487 	4924 	0.070178
38.39 	0.073742 	4909 	0.072549
38.41 	0.075361 	4923 	0.073933
38.43 	0.080553 	4916 	0.078101
38.45 	0.073404 	4918 	0.071736
38.47 	0.073568 	4907 	0.072375
38.49 	0.076481 	4877 	0.074079
38.51 	0.082725 	4932 	0.081419
38.53 	0.077703 	4929 	0.076277
38.55 	0.084076 	4936 	0.082415
38.57 	0.076986 	4923 	0.074725
38.59 	0.075548 	4924 	0.073863
38.61 	0.072731 	4936 	0.071188
38.63 	0.066816 	4924 	0.065507
38.65 	0.072997 	4918 	0.071925
38.67 	0.069475 	4937 	0.067795
38.69 	0.073344 	4922 	0.071321
38.71 	0.066206 	4924 	0.065849
38.73 	0.072590 	4918 	0.071280
38.75 	0.068602 	4927 	0.067650
38.77 	0.069470 	4923 	0.068518
38.79 	0.062019 	4934 	0.060950
38.81 	0.053339 	4912 	0.052365
38.83 	0.065460 	4919 	0.064151
38.85 	0.059650 	4912 	0.058795
38.87 	0.062716 	4911 	0.060927
38.89 	0.062079 	4897 	0.061122
38.91 	0.060575 	4903 	0.059858
38.93 	0.063183 	4938 	0.061997
38.95 	0.061407 	4918 	0.060454
38.97 	0.055972 	4931 	0.055616
38.99 	0.062386 	4937 	0.061793
39.01 	0.055104 	4918 	0.054270
39.03 	0.064653 	4934 	0.063585
39.05 	0.056244 	4925 	0.055292
39.07 	0.060114 	4924 	0.058686
39.09 	0.053829 	4923 	0.053472
39.11 	0.054350 	4931 	0.053400
39.13 	0.055251 	4923 	0.053784
39.15 	0.054934 	4915 	0.053722
39.17 	0.053271 	4937 	0.052322
39.19 	0.057149 	4917 	0.056791
39.21 	0.057637 	4910 	0.056683
39.23 	0.062335 	4925 	0.061383
39.25 	0.055668 	4922 	0.054578
39.27 	0.054990 	4910 	0.053916
39.29 	0.051826 	4901 	0.051587
39.31 	0.052416 	4884 	0.051576
39.33 	0.063679 	4931 	0.062134
39.35 	0.054103 	4935 	0.052798
39.37 	0.049300 	4929 	0.048944
39.39 	0.060661 	4929 	0.059711
39.41 	0.056175 	4931 	0.055700
39.43 	0.052504 	4933 	0.052029
39.45 	0.053604 	4925 	0.053009
39.47 	0.053220 	4923 	0.052625
39.49 	0.057369 	4933 	0.056300
39.51 	0.059098 	4924 	0.058147
39.53 	0.055048 	4923 	0.053977
39.55 	0.057532 	4919 	0.056937
39.57 	0.057977 	4933 	0.057027
39.59 	0.051507 	4912 	0.050433
39.61 	0.052813 	4923 	0.051861
39.63 	0.061764 	4922 	0.060454
39.65 	0.058668 	4926 	0.057697
39.67 	0.056177 	4913 	0.055462
39.69 	0.054109 	4916 	0.053037
39.71 	0.058223 	4895 	0.057026
39.73 	0.055827 	4908 	0.054395
39.75 	0.063312 	4928 	0.062242
39.77 	0.063019 	4935 	0.062169
39.79 	0.058668 	4926 	0.057955
39.81 	0.061092 	4927 	0.060379
39.83 	0.053506 	4934 	0.052556
39.85 	0.052162 	4927 	0.051092
39.87 	0.058680 	4925 	0.057491
39.89 	0.055736 	4934 	0.055142
39.91 	0.052621 	4922 	0.051669
39.93 	0.055297 	4937 	0.054585
39.95 	0.058189 	4915 	0.057236
39.97 	0.051745 	4928 	0.051270
39.99 	0.059002 	4932 	0.057933
40.01 	0.058357 	4918 	0.057166
40.03 	0.057427 	4928 	0.056595
40.05 	0.057555 	4917 	0.056841
40.07 	0.055048 	4923 	0.054572
40.09 	0.058381 	4916 	0.057308
40.11 	0.056753 	4916 	0.056515
40.13 	0.052083 	4896 	0.051485
40.15 	0.051089 	4913 	0.050016
40.17 	0.056412 	4928 	0.055798
40.19 	0.059241 	4929 	0.058528
40.21 	0.050051 	4935 	0.049813
40.23 	0.052109 	4932 	0.051515
40.25 	0.053252 	4920 	0.052538
40.27 	0.050233 	4937 	0.049284
40.29 	0.053988 	4927 	0.052799
40.31 	0.052440 	4939 	0.051590
40.33 	0.053122 	4932 	0.052529
40.35 	0.050213 	4919 	0.049499
40.37 	0.055995 	4929 	0.055163
40.39 	0.057798 	4931 	0.057085
40.41 	0.056447 	4925 	0.055000
40.43 	0.057294 	4922 	0.056223
40.45 	0.055544 	4933 	0.054713
40.47 	0.049207 	4918 	0.048850
40.49 	0.060901 	4926 	0.059593
40.51 	0.051199 	4922 	0.050366
40.53 	0.050651 	4916 	0.049698
40.55 	0.051141 	4908 	0.050186
40.57 	0.053374 	4890 	0.052296
40.59 	0.053676 	4937 	0.052846
40.61 	0.053495 	4935 	0.052170
40.63 	0.048682 	4930 	0.047850
40.65 	0.056715 	4937 	0.055291
40.67 	0.057380 	4932 	0.056311
40.69 	0.053069 	4937 	0.052594
40.71 	0.054947 	4932 	0.054096
40.73 	0.047706 	4926 	0.046993
40.75 	0.052525 	4931 	0.051337
40.77 	0.055477 	4939 	0.054647
40.79 	0.057474 	4924 	0.056760
40.81 	0.057681 	4941 	0.056219
40.83 	0.054586 	4928 	0.053873
40.85 	0.050772 	4924 	0.050177
40.87 	0.057630 	4928 	0.057154
40.89 	0.050091 	4931 	0.049378
40.91 	0.050376 	4923 	0.049543
40.93 	0.053912 	4934 	0.053199
40.95 	0.060655 	4913 	0.059582
40.97 	0.053818 	4924 	0.052628
40.99 	0.059911 	4924 	0.058820
41.01 	0.051507 	4912 	0.050791
41.03 	0.052599 	4905 	0.051525
41.05 	0.055713 	4936 	0.054408
41.07 	0.051927 	4930 	0.051095
41.09 	0.053047 	4939 	0.052336
41.11 	0.049443 	4935 	0.048731
41.13 	0.055308 	4936 	0.054596
41.15 	0.047359 	4941 	0.046648
41.17 	0.052290 	4934 	0.051578
41.19 	0.053753 	4930 	0.053277
41.21 	0.053879 	4937 	0.052811
41.23 	0.050213 	4939 	0.049382
41.25 	0.050274 	4933 	0.049205
41.27 	0.049483 	4931 	0.048770
41.29 	0.054586 	4928 	0.053754
41.31 	0.054328 	4933 	0.053616
41.33 	0.050435 	4937 	0.050317
41.35 	0.051843 	4938 	0.051368
41.37 	0.049147 	4924 	0.048433
41.39 	0.053923 	4933 	0.052854
41.41 	0.052781 	4926 	0.051592
41.43 	0.051126 	4929 	0.050532
41.45 	0.051893 	4914 	0.050919
41.47 	0.053390 	4926 	0.052300
41.49 	0.050082 	4892 	0.049124
41.51 	0.051619 	4940 	0.050770
41.53 	0.052387 	4944 	0.051676
41.55 	0.044985 	4935 	0.044510
41.57 	0.053430 	4941 	0.052838
41.59 	0.053112 	4933 	0.052518
41.61 	0.049465 	4953 	0.048755
41.63 	0.047793 	4938 	0.047437
41.65 	0.050314 	4929 	0.050077
41.67 	0.056478 	4940 	0.055766
41.69 	0.047504 	4947 	0.046911
41.71 	0.050061 	4934 	0.049467
41.73 	0.053282 	4936 	0.052926
41.75 	0.051329 	4929 	0.050378
41.77 	0.049383 	4941 	0.048434
41.79 	0.050971 	4944 	0.049786
41.81 	0.049635 	4936 	0.048567
41.83 	0.042411 	4928 	0.041698
41.85 	0.051022 	4939 	0.049679
41.87 	0.049645 	4935 	0.049270
41.89 	0.055950 	4933 	0.055237
41.91 	0.053079 	4936 	0.052130
41.93 	0.052109 	4932 	0.051871
41.95 	0.048874 	4931 	0.048399
41.97 	0.054335 	4914 	0.053619
41.99 	0.055454 	4905 	0.054498
42.01 	0.048159 	4942 	0.047566
42.03 	0.050618 	4939 	0.049669
42.05 	0.050485 	4952 	0.049657
42.07 	0.045372 	4937 	0.044640
42.09 	0.047494 	4948 	0.047257
42.11 	0.046714 	4945 	0.046003
42.13 	0.050961 	4945 	0.050013
42.15 	0.056703 	4938 	0.055398
42.17 	0.049410 	4918 	0.048696
42.19 	0.046659 	4908 	0.046062
42.21 	0.053254 	4901 	0.052179
42.23 	0.050082 	4892 	0.049603
42.25 	0.052158 	4889 	0.051319
42.27 	0.054780 	4874 	0.053198
42.29 	0.050586 	4863 	0.049863
42.31 	0.048404 	4855 	0.047680
42.33 	0.053579 	4834 	0.052852
42.35 	0.054155 	4838 	0.053549
42.37 	0.045756 	4830 	0.045028
42.39 	0.047044 	4804 	0.046434
42.41 	0.053913 	4804 	0.053304
42.43 	0.055509 	4792 	0.054776
42.45 	0.045436 	4776 	0.044945
42.47 	0.050787 	4765 	0.050049
42.49 	0.044281 	4765 	0.043421
42.51 	0.050601 	4743 	0.049736
42.53 	0.052453 	4728 	0.051834
42.55 	0.050977 	4708 	0.049982
42.57 	0.044186 	4730 	0.043567
42.59 	0.049482 	4729 	0.048986
42.61 	0.048853 	4708 	0.048106
42.63 	0.043534 	4709 	0.043160
42.65 	0.049306 	4685 	0.049056
42.67 	0.044833 	4684 	0.044208
42.69 	0.054557 	4674 	0.053930
42.71 	0.052756 	4663 	0.051730
42.73 	0.045905 	4640 	0.045274
42.75 	0.048733 	4617 	0.048479
42.77 	0.049130 	4600 	0.048621
42.79 	0.053034 	4582 	0.052394
42.81 	0.045156 	4562 	0.044514
42.83 	0.050265 	4536 	0.049748
42.85 	0.054329 	4528 	0.053552
42.87 	0.049567 	4499 	0.048655
42.89 	0.047768 	4480 	0.046983
42.91 	0.058124 	4456 	0.056809
42.93 	0.051057 	4446 	0.050113
42.95 	0.047781 	4416 	0.046698
42.97 	0.056351 	4401 	0.055419
42.99 	0.052452 	4385 	0.051784
43.01 	0.049736 	4363 	0.049065
43.03 	0.043388 	4333 	0.042712
43.05 	0.049017 	4325 	0.047798
43.07 	0.049581 	4296 	0.049036
43.09 	0.052066 	4283 	0.051246
43.11 	0.049824 	4255 	0.049273
43.13 	0.051215 	4237 	0.050386
43.15 	0.051593 	4206 	0.050897
43.17 	0.045705 	4179 	0.045284
43.19 	0.042680 	4194 	0.042401
43.21 	0.051774 	4172 	0.051072
43.23 	0.047906 	4154 	0.047201
43.25 	0.048609 	4135 	0.048184
43.27 	0.044336 	4105 	0.044051
43.29 	0.048293 	4100 	0.047435
43.31 	0.049032 	4079 	0.048026
43.33 	0.044187 	4051 	0.043608
43.35 	0.046627 	4032 	0.045901
43.37 	0.047821 	4015 	0.047821
43.39 	0.042479 	4002 	0.041893
43.41 	0.042044 	3972 	0.041454
43.43 	0.045707 	3960 	0.044820
43.45 	0.054130 	3935 	0.052790
43.47 	0.047692 	3921 	0.047393
43.49 	0.043367 	3897 	0.042765
43.51 	0.049523 	3877 	0.049070
43.53 	0.049961 	3863 	0.049810
43.55 	0.047908 	2964 	0.047908
43.57 	0.053619 	2238 	0.053096
43.59 	0.035510 	1746 	0.035174
43.61 	0.045152 	1351 	0.045152
43.63 	0.040959 	1001 	0.040959
43.65 	0.045124 	687 	0.044271
43.67 	0.039841 	502 	0.039841
43.69 	0.029973 	367 	0.029973
43.71 	0.054393 	239 	0.054393
43.73 	0.041667 	120 	0.041667
43.75 	0.000000 	16 	0.000000