File: Example_Data/25SC_s1_0032.000.dat
#F C:\frames\spec\25SC_s1_0032.000
#C title =s:32 frm:0 25SC_s1
#C wavelength =0.15406

#S 1  fr_average C:\frames\spec\25SC_s1_0032.000 C:\win32app\speccom\mask.axs chi 0 180 0 360 0.02
#C 2 theta =0.000000 to 180 deg
#C   q   =0.000000 to 81.568 nm^-1
#C  chi  =0.000000 to 360 deg
#C collumns:
#C  1 position (2theta or chi in degrees)
#C  2 average intensity (sum of all counts in the region divided with number of pixels)
#C  3 Number of pixels in region)
#C  4 error (sum of sqrt(intensity) for all pixels divided by number)
#N 4
#L TTh  Int  N_pix  Err
32.99 	0.081967 	61 	0.081967
33.01 	0.059565 	873 	0.058223
33.03 	0.056794 	1391 	0.055040
33.05 	0.062038 	1757 	0.060371
33.07 	0.052195 	2050 	0.052195
33.09 	0.063059 	2347 	0.061811
33.11 	0.065142 	2579 	0.064460
33.13 	0.058718 	2793 	0.058089
33.15 	0.072357 	2999 	0.070990
33.17 	0.055920 	3201 	0.054975
33.19 	0.062238 	3342 	0.060982
33.21 	0.059662 	3436 	0.058469
33.23 	0.057905 	3523 	0.056741
33.25 	0.057863 	3612 	0.057538
33.27 	0.058953 	3630 	0.057662
33.29 	0.073191 	3648 	0.071264
33.31 	0.058470 	3660 	0.057190
33.33 	0.059414 	3686 	0.058302
33.35 	0.063346 	3694 	0.061734
33.37 	0.061928 	3714 	0.060666
33.39 	0.057388 	3729 	0.056446
33.41 	0.063904 	3740 	0.062807
33.43 	0.056102 	3761 	0.055012
33.45 	0.069441 	3773 	0.068199
33.47 	0.056345 	3798 	0.055086
33.49 	0.067997 	3809 	0.065844
33.51 	0.058978 	3815 	0.058210
33.53 	0.058058 	3841 	0.057600
33.55 	0.065053 	3843 	0.063377
33.57 	0.053392 	3877 	0.052485
33.59 	0.065979 	3880 	0.064923
33.61 	0.067536 	3909 	0.065888
33.63 	0.071192 	3919 	0.069846
33.65 	0.062579 	3931 	0.060940
33.67 	0.060951 	3954 	0.060062
33.69 	0.059449 	3953 	0.058115
33.71 	0.053836 	3975 	0.052658
33.73 	0.055944 	4004 	0.055651
33.75 	0.059515 	3999 	0.057904
33.77 	0.060870 	4025 	0.060287
33.79 	0.054689 	4041 	0.054110
33.81 	0.060921 	4038 	0.059906
33.83 	0.062963 	4050 	0.062095
33.85 	0.055867 	4099 	0.054724
33.87 	0.065191 	4111 	0.064194
33.89 	0.054841 	4121 	0.053988
33.91 	0.065317 	4149 	0.063482
33.93 	0.062636 	4151 	0.060519
33.95 	0.053337 	4181 	0.052636
33.97 	0.063007 	4190 	0.062425
33.99 	0.062381 	4200 	0.060707
34.01 	0.059340 	4213 	0.058483
34.03 	0.051838 	4244 	0.051125
34.05 	0.058796 	4252 	0.057533
34.07 	0.061153 	4268 	0.059918
34.09 	0.058563 	4286 	0.058153
34.11 	0.059042 	4302 	0.057681
34.13 	0.052925 	4308 	0.051973
34.15 	0.060263 	4331 	0.059046
34.17 	0.060690 	4350 	0.059747
34.19 	0.055479 	4362 	0.054673
34.21 	0.062686 	4371 	0.061748
34.23 	0.061689 	4393 	0.060222
34.25 	0.060627 	4404 	0.059430
34.27 	0.058118 	4422 	0.057191
34.29 	0.060654 	4435 	0.059597
34.31 	0.063257 	4458 	0.061264
34.33 	0.068888 	4471 	0.066792
34.35 	0.056200 	4484 	0.055547
34.37 	0.055222 	4491 	0.054309
34.39 	0.060195 	4502 	0.059155
34.41 	0.057004 	4526 	0.055839
34.43 	0.057281 	4539 	0.057023
34.45 	0.060198 	4535 	0.058606
34.47 	0.054878 	4592 	0.053730
34.49 	0.058299 	4597 	0.057534
34.51 	0.053843 	4606 	0.053080
34.53 	0.061813 	4643 	0.060552
34.55 	0.055998 	4643 	0.054863
34.57 	0.061588 	4660 	0.060331
34.59 	0.057968 	4675 	0.057216
34.61 	0.059613 	4697 	0.058490
34.63 	0.051380 	4710 	0.050758
34.65 	0.056979 	4721 	0.056235
34.67 	0.057583 	4741 	0.056594
34.69 	0.053639 	4754 	0.052530
34.71 	0.055602 	4766 	0.054496
34.73 	0.060581 	4787 	0.059724
34.75 	0.060108 	4808 	0.059255
34.77 	0.055625 	4818 	0.054510
34.79 	0.059080 	4824 	0.057987
34.81 	0.055728 	4845 	0.054639
34.83 	0.058001 	4862 	0.057278
34.85 	0.057096 	4869 	0.056494
34.87 	0.060600 	4868 	0.059758
34.89 	0.060631 	4882 	0.059551
34.91 	0.058378 	4882 	0.057158
34.93 	0.059196 	4899 	0.058359
34.95 	0.055624 	4890 	0.054665
34.97 	0.055080 	4902 	0.054482
34.99 	0.058403 	4897 	0.057446
35.01 	0.056063 	4923 	0.055349
35.03 	0.062715 	4943 	0.061648
35.05 	0.057813 	4947 	0.056747
35.07 	0.063968 	4940 	0.063019
35.09 	0.053503 	4953 	0.052912
35.11 	0.061249 	4947 	0.060065
35.13 	0.052844 	4958 	0.052017
35.15 	0.057930 	4937 	0.056743
35.17 	0.056611 	4946 	0.055664
35.19 	0.057467 	4942 	0.056025
35.21 	0.058847 	4945 	0.057900
35.23 	0.054601 	4945 	0.053771
35.25 	0.058467 	4943 	0.057400
35.27 	0.059014 	4948 	0.058303
35.29 	0.060667 	4945 	0.059838
35.31 	0.057166 	4933 	0.056097
35.33 	0.060287 	4943 	0.058807
35.35 	0.056050 	4942 	0.054983
35.37 	0.055477 	4939 	0.054528
35.39 	0.059252 	4945 	0.058423
35.41 	0.061307 	4926 	0.060118
35.43 	0.059599 	4933 	0.058292
35.45 	0.061778 	4937 	0.061066
35.47 	0.057595 	4931 	0.055912
35.49 	0.058452 	4910 	0.057856
35.51 	0.067803 	4926 	0.066376
35.53 	0.055769 	4949 	0.054447
35.55 	0.055410 	4945 	0.054462
35.57 	0.048044 	4933 	0.047450
35.59 	0.056623 	4945 	0.055201
35.61 	0.056657 	4942 	0.055827
35.63 	0.060085 	4943 	0.058663
35.65 	0.057432 	4945 	0.056484
35.67 	0.052206 	4942 	0.051257
35.69 	0.053376 	4946 	0.052666
35.71 	0.055297 	4937 	0.054110
35.73 	0.049433 	4936 	0.048483
35.75 	0.055770 	4931 	0.054819
35.77 	0.061402 	4951 	0.060219
35.79 	0.051500 	4932 	0.051263
35.81 	0.051085 	4933 	0.050728
35.83 	0.057016 	4946 	0.056167
35.85 	0.059169 	4935 	0.058576
35.87 	0.059313 	4923 	0.058005
35.89 	0.059384 	4934 	0.058790
35.91 	0.061498 	4927 	0.060547
35.93 	0.057033 	4927 	0.055844
35.95 	0.055725 	4917 	0.054256
35.97 	0.055375 	4912 	0.054162
35.99 	0.060134 	4939 	0.059066
36.01 	0.054361 	4930 	0.053767
36.03 	0.060894 	4943 	0.060183
36.05 	0.061678 	4945 	0.060731
36.07 	0.058311 	4939 	0.057699
36.09 	0.057490 	4940 	0.056541
36.11 	0.061473 	4929 	0.060503
36.13 	0.056253 	4942 	0.055423
36.15 	0.057299 	4939 	0.056687
36.17 	0.063147 	4925 	0.062077
36.19 	0.061741 	4940 	0.060417
36.21 	0.057415 	4929 	0.055989
36.23 	0.058967 	4935 	0.058136
36.25 	0.061121 	4941 	0.059699
36.27 	0.064365 	4925 	0.063394
36.29 	0.052322 	4931 	0.051847
36.31 	0.061688 	4928 	0.060975
36.33 	0.060612 	4933 	0.059148
36.35 	0.057415 	4929 	0.056445
36.37 	0.059517 	4923 	0.058327
36.39 	0.058321 	4921 	0.056873
36.41 	0.055556 	4896 	0.054718
36.43 	0.062297 	4928 	0.061584
36.45 	0.058621 	4930 	0.058264
36.47 	0.053079 	4936 	0.052130
36.49 	0.060907 	4942 	0.059721
36.51 	0.055342 	4933 	0.054748
36.53 	0.052397 	4943 	0.051686
36.55 	0.053176 	4927 	0.052820
36.57 	0.059789 	4934 	0.059196
36.59 	0.060741 	4939 	0.059318
36.61 	0.057798 	4931 	0.056372
36.63 	0.054553 	4931 	0.053365
36.65 	0.060827 	4932 	0.060352
36.67 	0.059026 	4930 	0.057937
36.69 	0.063502 	4929 	0.062056
36.71 	0.056696 	4921 	0.055863
36.73 	0.058477 	4925 	0.057764
36.75 	0.055218 	4944 	0.054981
36.77 	0.063834 	4919 	0.062881
36.79 	0.061370 	4921 	0.060060
36.81 	0.057567 	4916 	0.056256
36.83 	0.069786 	4915 	0.068952
36.85 	0.061454 	4898 	0.060616
36.87 	0.055016 	4944 	0.054305
36.89 	0.062042 	4916 	0.061327
36.91 	0.058895 	4941 	0.057591
36.93 	0.062272 	4930 	0.061440
36.95 	0.060612 	4933 	0.059543
36.97 	0.058168 	4934 	0.057099
36.99 	0.064235 	4935 	0.063167
37.01 	0.050274 	4933 	0.049561
37.03 	0.058489 	4924 	0.058013
37.05 	0.059874 	4927 	0.058785
37.07 	0.059574 	4935 	0.058862
37.09 	0.057224 	4928 	0.056392
37.11 	0.059372 	4935 	0.058185
37.13 	0.061738 	4924 	0.060787
37.15 	0.056020 	4909 	0.054588
37.17 	0.063235 	4934 	0.061929
37.19 	0.059086 	4925 	0.058135
37.21 	0.062436 	4917 	0.060749
37.23 	0.059577 	4918 	0.058267
37.25 	0.058440 	4911 	0.057367
37.27 	0.062730 	4894 	0.062131
37.29 	0.051724 	4930 	0.051368
37.31 	0.052685 	4935 	0.051953
37.33 	0.057439 	4927 	0.056250
37.35 	0.060551 	4938 	0.059483
37.37 	0.052973 	4927 	0.052855
37.39 	0.055770 	4931 	0.055176
37.41 	0.060637 	4931 	0.059449
37.43 	0.059002 	4932 	0.057815
37.45 	0.057677 	4924 	0.056725
37.47 	0.052343 	4929 	0.051155
37.49 	0.058501 	4923 	0.057668
37.51 	0.053112 	4933 	0.052637
37.53 	0.055092 	4919 	0.053902
37.55 	0.052130 	4930 	0.051417
37.57 	0.061320 	4925 	0.060368
37.59 	0.051679 	4915 	0.050944
37.61 	0.054856 	4922 	0.053904
37.63 	0.058142 	4919 	0.057189
37.65 	0.051444 	4918 	0.050114
37.67 	0.057708 	4904 	0.056394
37.69 	0.059820 	4898 	0.058864
37.71 	0.058024 	4929 	0.057192
37.73 	0.056401 	4929 	0.054975
37.75 	0.057085 	4940 	0.056492
37.77 	0.057927 	4920 	0.057093
37.79 	0.054361 	4930 	0.053292
37.81 	0.057977 	4933 	0.057027
37.83 	0.058943 	4920 	0.058110
37.85 	0.058106 	4922 	0.056797
37.87 	0.056084 	4939 	0.054780
37.89 	0.055635 	4925 	0.054544
37.91 	0.050710 	4930 	0.050235
37.93 	0.061395 	4919 	0.060204
37.95 	0.059744 	4921 	0.058911
37.97 	0.055386 	4929 	0.054060
37.99 	0.056800 	4912 	0.055726
38.01 	0.056615 	4928 	0.056021
38.03 	0.057649 	4909 	0.056814
38.05 	0.056853 	4925 	0.056139
38.07 	0.056427 	4909 	0.055353
38.09 	0.056786 	4878 	0.056185
38.11 	0.059980 	4935 	0.059268
38.13 	0.057322 	4937 	0.056254
38.15 	0.056527 	4918 	0.055693
38.17 	0.060446 	4930 	0.059615
38.19 	0.063286 	4930 	0.062454
38.21 	0.062157 	4923 	0.060967
38.23 	0.059133 	4938 	0.058540
38.25 	0.065690 	4917 	0.064499
38.27 	0.070791 	4930 	0.068870
38.29 	0.061738 	4924 	0.060430
38.31 	0.062513 	4927 	0.061443
38.33 	0.071893 	4924 	0.070584
38.35 	0.072646 	4928 	0.071576
38.37 	0.073314 	4924 	0.071986
38.39 	0.071909 	4909 	0.070238
38.41 	0.074954 	4923 	0.073169
38.43 	0.071806 	4916 	0.070576
38.45 	0.079097 	4918 	0.077311
38.47 	0.082128 	4907 	0.080059
38.49 	0.084068 	4877 	0.081666
38.51 	0.084753 	4932 	0.082496
38.53 	0.089470 	4929 	0.086560
38.55 	0.083063 	4936 	0.081007
38.57 	0.084298 	4923 	0.081799
38.59 	0.076970 	4924 	0.075899
38.61 	0.077998 	4936 	0.076218
38.63 	0.080626 	4924 	0.078960
38.65 	0.079301 	4918 	0.077375
38.67 	0.075957 	4937 	0.073920
38.69 	0.077408 	4922 	0.075384
38.71 	0.072502 	4924 	0.070837
38.73 	0.070557 	4918 	0.069485
38.75 	0.063325 	4927 	0.062255
38.77 	0.068657 	4923 	0.067348
38.79 	0.073166 	4934 	0.072216
38.81 	0.061686 	4912 	0.060016
38.83 	0.062208 	4919 	0.061255
38.85 	0.058836 	4912 	0.057285
38.87 	0.061087 	4911 	0.060133
38.89 	0.052685 	4897 	0.051728
38.91 	0.053029 	4903 	0.052173
38.93 	0.048400 	4938 	0.047807
38.95 	0.056527 	4918 	0.055098
38.97 	0.051105 	4931 	0.050630
38.99 	0.052056 	4937 	0.051344
39.01 	0.059374 	4918 	0.058659
39.03 	0.049453 	4934 	0.048859
39.05 	0.048731 	4925 	0.048017
39.07 	0.048132 	4924 	0.047537
39.09 	0.044485 	4923 	0.043890
39.11 	0.049280 	4931 	0.048567
39.13 	0.046516 	4923 	0.046397
39.15 	0.050051 	4915 	0.049693
39.17 	0.050841 	4937 	0.049872
39.19 	0.053081 	4917 	0.052485
39.21 	0.042159 	4910 	0.041682
39.23 	0.045076 	4925 	0.044125
39.25 	0.053434 	4922 	0.052719
39.27 	0.047658 	4910 	0.046703
39.29 	0.048357 	4901 	0.047640
39.31 	0.053440 	4884 	0.052960
39.33 	0.047252 	4931 	0.046658
39.35 	0.046606 	4935 	0.046131
39.37 	0.050517 	4929 	0.049923
39.39 	0.046257 	4929 	0.045544
39.41 	0.049280 	4931 	0.048805
39.43 	0.047638 	4933 	0.047282
39.45 	0.046497 	4925 	0.045903
39.47 	0.048345 	4923 	0.047869
39.49 	0.045814 	4933 	0.045339
39.51 	0.044882 	4924 	0.044149
39.53 	0.043266 	4923 	0.042552
39.55 	0.040455 	4919 	0.039622
39.57 	0.051490 	4933 	0.050777
39.59 	0.043974 	4912 	0.043497
39.61 	0.048954 	4923 	0.048240
39.63 	0.043885 	4922 	0.043290
39.65 	0.046082 	4926 	0.045487
39.67 	0.047425 	4913 	0.046114
39.69 	0.047396 	4916 	0.046920
39.71 	0.045557 	4895 	0.045078
39.73 	0.046455 	4908 	0.045977
39.75 	0.049919 	4928 	0.049206
39.77 	0.044174 	4935 	0.043818
39.79 	0.048721 	4926 	0.048364
39.81 	0.045464 	4927 	0.045226
39.83 	0.047223 	4934 	0.046392
39.85 	0.049929 	4927 	0.049216
39.87 	0.042843 	4925 	0.042248
39.89 	0.046210 	4934 	0.045498
39.91 	0.044088 	4922 	0.043612
39.93 	0.046992 	4937 	0.046992
39.95 	0.043744 	4915 	0.043386
39.97 	0.041599 	4928 	0.041361
39.99 	0.048256 	4932 	0.047425
40.01 	0.044734 	4918 	0.044495
40.03 	0.047687 	4928 	0.047092
40.05 	0.045556 	4917 	0.044722
40.07 	0.052204 	4923 	0.051589
40.09 	0.035801 	4916 	0.035801
40.11 	0.042921 	4916 	0.042325
40.13 	0.044730 	4896 	0.043893
40.15 	0.044576 	4913 	0.044218
40.17 	0.045049 	4928 	0.044217
40.19 	0.045445 	4929 	0.045089
40.21 	0.044985 	4935 	0.044391
40.23 	0.043593 	4932 	0.042880
40.25 	0.046748 	4920 	0.045419
40.27 	0.046182 	4937 	0.045470
40.29 	0.042013 	4927 	0.041657
40.31 	0.042519 	4939 	0.042044
40.33 	0.040957 	4932 	0.040838
40.35 	0.043301 	4919 	0.042706
40.37 	0.044837 	4929 	0.044361
40.39 	0.047049 	4931 	0.046337
40.41 	0.043858 	4925 	0.043025
40.43 	0.046729 	4922 	0.045896
40.45 	0.045814 	4933 	0.045339
40.47 	0.046157 	4918 	0.045661
40.49 	0.045473 	4926 	0.044878
40.51 	0.045510 	4922 	0.044677
40.53 	0.046176 	4916 	0.045222
40.55 	0.044825 	4908 	0.043870
40.57 	0.043967 	4890 	0.043249
40.59 	0.040105 	4937 	0.039730
40.61 	0.043161 	4935 	0.042330
40.63 	0.040974 	4930 	0.040142
40.65 	0.042941 	4937 	0.042466
40.67 	0.044607 	4932 	0.044369
40.69 	0.040916 	4937 	0.040678
40.71 	0.041363 	4932 	0.040887
40.73 	0.040398 	4926 	0.039922
40.75 	0.042385 	4931 	0.042266
40.77 	0.044746 	4939 	0.044153
40.79 	0.045695 	4924 	0.045100
40.81 	0.042097 	4941 	0.041504
40.83 	0.045860 	4928 	0.045504
40.85 	0.047522 	4924 	0.046789
40.87 	0.044643 	4928 	0.044167
40.89 	0.040763 	4931 	0.040525
40.91 	0.044282 	4923 	0.043211
40.93 	0.040940 	4934 	0.040347
40.95 	0.042133 	4913 	0.041656
40.97 	0.044476 	4924 	0.043862
40.99 	0.040008 	4924 	0.039294
41.01 	0.042345 	4912 	0.041630
41.03 	0.043425 	4905 	0.043186
41.05 	0.038290 	4936 	0.037815
41.07 	0.040365 	4930 	0.039771
41.09 	0.040696 	4939 	0.040459
41.11 	0.042553 	4935 	0.041960
41.13 	0.042139 	4936 	0.041902
41.15 	0.043311 	4941 	0.042600
41.17 	0.042156 	4934 	0.041207
41.19 	0.039351 	4930 	0.038757
41.21 	0.043346 	4937 	0.043109
41.23 	0.040696 	4939 	0.040341
41.25 	0.042773 	4933 	0.042298
41.27 	0.041777 	4931 	0.041301
41.29 	0.036932 	4928 	0.036694
41.31 	0.036894 	4933 	0.036182
41.33 	0.037472 	4937 	0.037116
41.35 	0.047185 	4938 	0.046829
41.37 	0.039399 	4924 	0.039042
41.39 	0.043381 	4933 	0.042906
41.41 	0.040601 	4926 	0.040244
41.43 	0.047271 	4929 	0.046420
41.45 	0.044363 	4914 	0.043628
41.47 	0.036947 	4926 	0.036471
41.49 	0.043336 	4892 	0.042737
41.51 	0.038664 	4940 	0.038190
41.53 	0.040453 	4944 	0.040098
41.55 	0.041135 	4935 	0.040304
41.57 	0.044930 	4941 	0.044456
41.59 	0.043584 	4933 	0.043228
41.61 	0.042399 	4953 	0.041788
41.63 	0.041312 	4938 	0.040838
41.65 	0.049503 	4929 	0.048552
41.67 	0.037247 	4940 	0.036773
41.69 	0.040833 	4947 	0.040241
41.71 	0.043575 	4934 	0.042863
41.73 	0.038898 	4936 	0.038542
41.75 	0.039968 	4929 	0.039849
41.77 	0.039870 	4941 	0.039021
41.79 	0.042071 	4944 	0.041716
41.81 	0.048622 	4936 	0.048029
41.83 	0.040179 	4928 	0.039822
41.85 	0.038874 	4939 	0.038618
41.87 	0.039108 	4935 	0.038396
41.89 	0.042165 	4933 	0.041690
41.91 	0.036062 	4936 	0.035587
41.93 	0.042782 	4932 	0.041950
41.95 	0.038329 	4931 	0.037854
41.97 	0.038665 	4914 	0.038307
41.99 	0.045260 	4905 	0.045260
42.01 	0.039053 	4942 	0.038697
42.03 	0.037255 	4939 	0.037136
42.05 	0.044023 	4952 	0.043076
42.07 	0.043144 	4937 	0.042788
42.09 	0.043048 	4948 	0.042574
42.11 	0.043276 	4945 	0.042447
42.13 	0.038018 	4945 	0.037544
42.15 	0.036047 	4938 	0.035572
42.17 	0.037007 	4918 	0.036769
42.19 	0.039324 	4908 	0.038727
42.21 	0.036523 	4901 	0.036404
42.23 	0.041701 	4892 	0.041342
42.25 	0.037840 	4889 	0.037600
42.27 	0.035700 	4874 	0.035579
42.29 	0.035986 	4863 	0.035866
42.31 	0.038929 	4855 	0.038326
42.33 	0.039512 	4834 	0.039391
42.35 	0.037205 	4838 	0.036963
42.37 	0.040373 	4830 	0.039888
42.39 	0.041216 	4804 	0.040098
42.41 	0.039134 	4804 	0.038768
42.43 	0.033180 	4792 	0.032691
42.45 	0.039363 	4776 	0.038873
42.47 	0.042392 	4765 	0.041532
42.49 	0.039664 	4765 	0.039418
42.51 	0.033945 	4743 	0.033698
42.53 	0.042513 	4728 	0.042017
42.55 	0.034622 	4708 	0.034497
42.57 	0.039112 	4730 	0.038741
42.59 	0.040178 	4729 	0.039662
42.61 	0.040357 	4708 	0.039984
42.63 	0.033553 	4709 	0.033553
42.65 	0.038847 	4685 	0.038472
42.67 	0.043339 	4684 	0.043214
42.69 	0.036799 	4674 	0.036298
42.71 	0.037101 	4663 	0.036598
42.73 	0.038793 	4640 	0.038036
42.75 	0.035304 	4617 	0.035051
42.77 	0.043478 	4600 	0.042587
42.79 	0.036229 	4582 	0.035717
42.81 	0.042964 	4562 	0.042578
42.83 	0.044092 	4536 	0.043446
42.85 	0.037544 	4528 	0.037027
42.87 	0.038453 	4499 	0.038062
42.89 	0.041071 	4480 	0.040287
42.91 	0.037253 	4456 	0.036727
42.93 	0.037112 	4446 	0.036585
42.95 	0.034647 	4416 	0.034116
42.97 	0.037037 	4401 	0.036771
42.99 	0.039909 	4385 	0.039508
43.01 	0.038276 	4363 	0.037739
43.03 	0.039003 	4333 	0.038868
43.05 	0.037919 	4325 	0.037513
43.07 	0.037942 	4296 	0.037124
43.09 	0.041326 	4283 	0.041053
43.11 	0.039013 	4255 	0.038738
43.13 	0.041067 	4237 	0.040790
43.15 	0.041369 	4206 	0.040812
43.17 	0.041876 	4179 	0.041456
43.19 	0.038150 	4194 	0.037312
43.21 	0.035475 	4172 	0.034773
43.23 	0.038276 	4154 	0.037853
43.25 	0.032406 	4135 	0.032265
43.27 	0.036297 	4105 	0.035584
43.29 	0.036341 	4100 	0.035913
43.31 	0.034322 	4079 	0.033604
43.33 	0.039003 	4051 	0.038280
43.35 	0.045139 	4032 	0.044558
43.37 	0.035118 	4015 	0.034972
43.39 	0.036232 	4002 	0.035793
43.41 	0.035247 	3972 	0.035099
43.43 	0.038131 	3960 	0.037835
43.45 	0.040661 	3935 	0.040363
43.47 	0.040551 	3921 	0.040401
43.49 	0.039518 	3897 	0.039217
43.51 	0.032241 	3877 	0.032090
43.53 	0.035465 	3863 	0.035313
43.55 	0.040823 	2964 	0.040428
43.57 	0.037980 	2238 	0.037980
43.59 	0.041237 	1746 	0.040902
43.61 	0.031828 	1351 	0.031395
43.63 	0.055944 	1001 	0.055359
43.65 	0.052402 	687 	0.050696
43.67 	0.033865 	502 	0.032698
43.69 	0.038147 	367 	0.038147
43.71 	0.041841 	239 	0.041841
43.73 	0.000000 	120 	0.000000
43.75 	0.000000 	16 	0.000000