File: Example_Data/25SC_s1_0030.000.dat
#F C:\frames\spec\25SC_s1_0030.000
#C title =s:30 frm:0 25SC_s1
#C wavelength =0.15406

#S 1  fr_average C:\frames\spec\25SC_s1_0030.000 C:\win32app\speccom\mask.axs chi 0 180 0 360 0.02
#C 2 theta =0.000000 to 180 deg
#C   q   =0.000000 to 81.568 nm^-1
#C  chi  =0.000000 to 360 deg
#C collumns:
#C  1 position (2theta or chi in degrees)
#C  2 average intensity (sum of all counts in the region divided with number of pixels)
#C  3 Number of pixels in region)
#C  4 error (sum of sqrt(intensity) for all pixels divided by number)
#N 4
#L TTh  Int  N_pix  Err
32.99 	0.081967 	61 	0.072364
33.01 	0.056128 	873 	0.055457
33.03 	0.055356 	1391 	0.054514
33.05 	0.062607 	1757 	0.061940
33.07 	0.057073 	2050 	0.056216
33.09 	0.062207 	2347 	0.061209
33.11 	0.063978 	2579 	0.062843
33.13 	0.066237 	2793 	0.064349
33.15 	0.067022 	2999 	0.065655
33.17 	0.065292 	3201 	0.064743
33.19 	0.058348 	3342 	0.057647
33.21 	0.062282 	3436 	0.060918
33.23 	0.055351 	3523 	0.054852
33.25 	0.058693 	3612 	0.057882
33.27 	0.052066 	3630 	0.051259
33.29 	0.060033 	3648 	0.058748
33.31 	0.053552 	3660 	0.053072
33.33 	0.062127 	3686 	0.060353
33.35 	0.058202 	3694 	0.057727
33.37 	0.057889 	3714 	0.056785
33.39 	0.065701 	3729 	0.064287
33.41 	0.060160 	3740 	0.058594
33.43 	0.063813 	3761 	0.062878
33.45 	0.055129 	3773 	0.054197
33.47 	0.057662 	3798 	0.057353
33.49 	0.059333 	3809 	0.058257
33.51 	0.058716 	3815 	0.057948
33.53 	0.068472 	3841 	0.067557
33.55 	0.052303 	3843 	0.051236
33.57 	0.065257 	3877 	0.063595
33.59 	0.063918 	3880 	0.062559
33.61 	0.052187 	3909 	0.051138
33.63 	0.063537 	3919 	0.062341
33.65 	0.055711 	3931 	0.054221
33.67 	0.057410 	3954 	0.056818
33.69 	0.061472 	3953 	0.060411
33.71 	0.058616 	3975 	0.057732
33.73 	0.061189 	4004 	0.060018
33.75 	0.067517 	3999 	0.065027
33.77 	0.057640 	4025 	0.056475
33.79 	0.062608 	4041 	0.062028
33.81 	0.050272 	4038 	0.048798
33.83 	0.059753 	4050 	0.058451
33.85 	0.061478 	4099 	0.060335
33.87 	0.062758 	4111 	0.062046
33.89 	0.061393 	4121 	0.059806
33.91 	0.065076 	4149 	0.064088
33.93 	0.065526 	4151 	0.064539
33.95 	0.060751 	4181 	0.059187
33.97 	0.054893 	4190 	0.054333
33.99 	0.055238 	4200 	0.054401
34.01 	0.060764 	4213 	0.059351
34.03 	0.062205 	4244 	0.061515
34.05 	0.064440 	4252 	0.063200
34.07 	0.061153 	4268 	0.060467
34.09 	0.060663 	4286 	0.059843
34.11 	0.059740 	4302 	0.058923
34.13 	0.056175 	4308 	0.055495
34.15 	0.058647 	4331 	0.057430
34.17 	0.061379 	4350 	0.060975
34.19 	0.061210 	4362 	0.060383
34.21 	0.059025 	4371 	0.057819
34.23 	0.061234 	4393 	0.060034
34.25 	0.064033 	4404 	0.062836
34.27 	0.060154 	4422 	0.059072
34.29 	0.054340 	4435 	0.053812
34.31 	0.056079 	4458 	0.055685
34.33 	0.055469 	4471 	0.054945
34.35 	0.062444 	4484 	0.061530
34.37 	0.062124 	4491 	0.061190
34.39 	0.061084 	4502 	0.060173
34.41 	0.064737 	4526 	0.063055
34.43 	0.057722 	4539 	0.056431
34.45 	0.058875 	4535 	0.058100
34.47 	0.050958 	4592 	0.050703
34.49 	0.058516 	4597 	0.057370
34.51 	0.057968 	4606 	0.057078
34.53 	0.052121 	4643 	0.051869
34.55 	0.052983 	4643 	0.052205
34.57 	0.054077 	4660 	0.053323
34.59 	0.050695 	4675 	0.049943
34.61 	0.049180 	4697 	0.048162
34.63 	0.061783 	4710 	0.060291
34.65 	0.062910 	4721 	0.060801
34.67 	0.057794 	4741 	0.056661
34.69 	0.056163 	4754 	0.054931
34.71 	0.057071 	4766 	0.055842
34.73 	0.054940 	4787 	0.053717
34.75 	0.052413 	4808 	0.052047
34.77 	0.054795 	4818 	0.053822
34.79 	0.058250 	4824 	0.057279
34.81 	0.056760 	4845 	0.055792
34.83 	0.056150 	4862 	0.055547
34.85 	0.060177 	4869 	0.058613
34.87 	0.057724 	4868 	0.056521
34.89 	0.060426 	4882 	0.059706
34.91 	0.062065 	4882 	0.060625
34.93 	0.056338 	4899 	0.055242
34.95 	0.052352 	4890 	0.051254
34.97 	0.060180 	4902 	0.059463
34.99 	0.049622 	4897 	0.049383
35.01 	0.059923 	4923 	0.058971
35.03 	0.053611 	4943 	0.053019
35.05 	0.055791 	4947 	0.054351
35.07 	0.056478 	4940 	0.055529
35.09 	0.061377 	4953 	0.060549
35.11 	0.053164 	4947 	0.052098
35.13 	0.056273 	4958 	0.055564
35.15 	0.055297 	4937 	0.054466
35.17 	0.054185 	4946 	0.052882
35.19 	0.053217 	4942 	0.052506
35.21 	0.057432 	4945 	0.056839
35.23 	0.058241 	4945 	0.057293
35.25 	0.056039 	4943 	0.054735
35.27 	0.056791 	4948 	0.055962
35.29 	0.062690 	4945 	0.061623
35.31 	0.053923 	4933 	0.053091
35.33 	0.065952 	4943 	0.064174
35.35 	0.060704 	4942 	0.058907
35.37 	0.057502 	4939 	0.056553
35.39 	0.055814 	4945 	0.055340
35.41 	0.064149 	4926 	0.062841
35.43 	0.054936 	4933 	0.054105
35.45 	0.053069 	4937 	0.052238
35.47 	0.053944 	4931 	0.052994
35.49 	0.063136 	4910 	0.062063
35.51 	0.061104 	4926 	0.059915
35.53 	0.054556 	4949 	0.053728
35.55 	0.052376 	4945 	0.051784
35.57 	0.048044 	4933 	0.047213
35.59 	0.067341 	4945 	0.065801
35.61 	0.050587 	4942 	0.049994
35.63 	0.059680 	4943 	0.058732
35.65 	0.058443 	4945 	0.057851
35.67 	0.053824 	4942 	0.053113
35.69 	0.061262 	4946 	0.060176
35.71 	0.064817 	4937 	0.063867
35.73 	0.063412 	4936 	0.061711
35.75 	0.059826 	4931 	0.058875
35.77 	0.058776 	4951 	0.057948
35.79 	0.052514 	4932 	0.051069
35.81 	0.057774 	4933 	0.056587
35.83 	0.054387 	4946 	0.053539
35.85 	0.058359 	4935 	0.057765
35.87 	0.055454 	4923 	0.054859
35.89 	0.062829 	4934 	0.061167
35.91 	0.049320 	4927 	0.048963
35.93 	0.054597 	4927 	0.053765
35.95 	0.055725 	4917 	0.055487
35.97 	0.054560 	4912 	0.053448
35.99 	0.053250 	4939 	0.052657
36.01 	0.055375 	4930 	0.053910
36.03 	0.059478 	4943 	0.058648
36.05 	0.055005 	4945 	0.054176
36.07 	0.054667 	4939 	0.053837
36.09 	0.058907 	4940 	0.057464
36.11 	0.053155 	4929 	0.051966
36.13 	0.058883 	4942 	0.058053
36.15 	0.053655 	4939 	0.051994
36.17 	0.053604 	4925 	0.052653
36.19 	0.054858 	4940 	0.054009
36.21 	0.056604 	4929 	0.056010
36.23 	0.058156 	4935 	0.056949
36.25 	0.060919 	4941 	0.059970
36.27 	0.056244 	4925 	0.055411
36.29 	0.055567 	4931 	0.054141
36.31 	0.054383 	4928 	0.053194
36.33 	0.054328 	4933 	0.053853
36.35 	0.056604 	4929 	0.055653
36.37 	0.059110 	4923 	0.057920
36.39 	0.057102 	4921 	0.055436
36.41 	0.061070 	4896 	0.059874
36.43 	0.060065 	4928 	0.059233
36.45 	0.060649 	4930 	0.059699
36.47 	0.060981 	4936 	0.059912
36.49 	0.060299 	4942 	0.060062
36.51 	0.057774 	4933 	0.056943
36.53 	0.062513 	4943 	0.060815
36.55 	0.062513 	4927 	0.061661
36.57 	0.059992 	4934 	0.059280
36.59 	0.062968 	4939 	0.061881
36.61 	0.056986 	4931 	0.055898
36.63 	0.056986 	4931 	0.056630
36.65 	0.059611 	4932 	0.058166
36.67 	0.058215 	4930 	0.057146
36.69 	0.057010 	4929 	0.055702
36.71 	0.057915 	4921 	0.057082
36.73 	0.049340 	4925 	0.048626
36.75 	0.058455 	4944 	0.057744
36.77 	0.058345 	4919 	0.057393
36.79 	0.052428 	4921 	0.051238
36.81 	0.058788 	4916 	0.058549
36.83 	0.060834 	4915 	0.059523
36.85 	0.051858 	4898 	0.050881
36.87 	0.063107 	4944 	0.062277
36.89 	0.054312 	4916 	0.053121
36.91 	0.054645 	4941 	0.053933
36.93 	0.054970 	4930 	0.054494
36.95 	0.060409 	4933 	0.059222
36.97 	0.057965 	4934 	0.056778
36.99 	0.053698 	4935 	0.052986
37.01 	0.059193 	4933 	0.058599
37.03 	0.060520 	4924 	0.060044
37.05 	0.053988 	4927 	0.053513
37.07 	0.056738 	4935 	0.055175
37.09 	0.054789 	4928 	0.054313
37.11 	0.055724 	4935 	0.055131
37.13 	0.054630 	4924 	0.053798
37.15 	0.054594 	4909 	0.053639
37.17 	0.061208 	4934 	0.060258
37.19 	0.051777 	4925 	0.051301
37.21 	0.055522 	4917 	0.054311
37.23 	0.055307 	4918 	0.054116
37.25 	0.055386 	4911 	0.054312
37.27 	0.060891 	4894 	0.060173
37.29 	0.056187 	4930 	0.055474
37.31 	0.059980 	4935 	0.059268
37.33 	0.057845 	4927 	0.056774
37.35 	0.065411 	4938 	0.063869
37.37 	0.060483 	4927 	0.059413
37.39 	0.050700 	4931 	0.049987
37.41 	0.055972 	4931 	0.054290
37.43 	0.059611 	4932 	0.058898
37.45 	0.058489 	4924 	0.058132
37.47 	0.053358 	4929 	0.052763
37.49 	0.055860 	4923 	0.054313
37.51 	0.057166 	4933 	0.056454
37.53 	0.054279 	4919 	0.053327
37.55 	0.061055 	4930 	0.059748
37.57 	0.057056 	4925 	0.056104
37.59 	0.053103 	4915 	0.052745
37.61 	0.053434 	4922 	0.052243
37.63 	0.056922 	4919 	0.055731
37.65 	0.061610 	4918 	0.060181
37.67 	0.054853 	4904 	0.054256
37.69 	0.059208 	4898 	0.058490
37.71 	0.054981 	4929 	0.053911
37.73 	0.051735 	4929 	0.051140
37.75 	0.054453 	4940 	0.053386
37.77 	0.056707 	4920 	0.055160
37.79 	0.052941 	4930 	0.051872
37.81 	0.051895 	4933 	0.051302
37.83 	0.055894 	4920 	0.055061
37.85 	0.054653 	4922 	0.053681
37.87 	0.054667 	4939 	0.054074
37.89 	0.057462 	4925 	0.056748
37.91 	0.054564 	4930 	0.053732
37.93 	0.064444 	4919 	0.063610
37.95 	0.053851 	4921 	0.053137
37.97 	0.052343 	4929 	0.051393
37.99 	0.053746 	4912 	0.053269
38.01 	0.053977 	4928 	0.052313
38.03 	0.058260 	4909 	0.057186
38.05 	0.059492 	4925 	0.058898
38.07 	0.060094 	4909 	0.059139
38.09 	0.052686 	4878 	0.051365
38.11 	0.056535 	4935 	0.055941
38.13 	0.064614 	4937 	0.064021
38.15 	0.055917 	4918 	0.054964
38.17 	0.056592 	4930 	0.055879
38.19 	0.057201 	4930 	0.056607
38.21 	0.060329 	4923 	0.059615
38.23 	0.059741 	4938 	0.058673
38.25 	0.055522 	4917 	0.054926
38.27 	0.063692 	4930 	0.062860
38.29 	0.068846 	4924 	0.067399
38.31 	0.063730 	4927 	0.062641
38.33 	0.066003 	4924 	0.064794
38.35 	0.062500 	4928 	0.061787
38.37 	0.070877 	4924 	0.069450
38.39 	0.075983 	4909 	0.073954
38.41 	0.088158 	4923 	0.085540
38.43 	0.086859 	4916 	0.084714
38.45 	0.077471 	4918 	0.075188
38.47 	0.068677 	4907 	0.067006
38.49 	0.083248 	4877 	0.080826
38.51 	0.077656 	4932 	0.075875
38.53 	0.078515 	4929 	0.077445
38.55 	0.077188 	4936 	0.074814
38.57 	0.082064 	4923 	0.080517
38.59 	0.075751 	4924 	0.074205
38.61 	0.077796 	4936 	0.076016
38.63 	0.071690 	4924 	0.070143
38.65 	0.076657 	4918 	0.074990
38.67 	0.077983 	4937 	0.076559
38.69 	0.075782 	4922 	0.074453
38.71 	0.073517 	4924 	0.071733
38.73 	0.071370 	4918 	0.070298
38.75 	0.072661 	4927 	0.070877
38.77 	0.071095 	4923 	0.070024
38.79 	0.071139 	4934 	0.069121
38.81 	0.059650 	4912 	0.059054
38.83 	0.051027 	4919 	0.050074
38.85 	0.061482 	4912 	0.060290
38.87 	0.050906 	4911 	0.049952
38.89 	0.057178 	4897 	0.056341
38.91 	0.059963 	4903 	0.059007
38.93 	0.053868 	4938 	0.052919
38.95 	0.051444 	4918 	0.050491
38.97 	0.052119 	4931 	0.051406
38.99 	0.049018 	4937 	0.048068
39.01 	0.055510 	4918 	0.055272
39.03 	0.050669 	4934 	0.050194
39.05 	0.051980 	4925 	0.051266
39.07 	0.049959 	4924 	0.048988
39.09 	0.052001 	4923 	0.051644
39.11 	0.050294 	4931 	0.049462
39.13 	0.045704 	4923 	0.045228
39.15 	0.046999 	4915 	0.046641
39.17 	0.048613 	4937 	0.048257
39.19 	0.049827 	4917 	0.049112
39.21 	0.050916 	4910 	0.050081
39.23 	0.043655 	4925 	0.043060
39.25 	0.045104 	4922 	0.043913
39.27 	0.048065 	4910 	0.047707
39.29 	0.047337 	4901 	0.045903
39.31 	0.052621 	4884 	0.051541
39.33 	0.044818 	4931 	0.044343
39.35 	0.055319 	4935 	0.054370
39.37 	0.049909 	4929 	0.049314
39.39 	0.044634 	4929 	0.043921
39.41 	0.046441 	4931 	0.045728
39.43 	0.043584 	4933 	0.043228
39.45 	0.040406 	4925 	0.039336
39.47 	0.045704 	4923 	0.044990
39.49 	0.045408 	4933 	0.044696
39.51 	0.045898 	4924 	0.045184
39.53 	0.044079 	4923 	0.043603
39.55 	0.047977 	4919 	0.047362
39.57 	0.047233 	4933 	0.046877
39.59 	0.049674 	4912 	0.048959
39.61 	0.046923 	4923 	0.045495
39.63 	0.046729 	4922 	0.045896
39.65 	0.047503 	4926 	0.047265
39.67 	0.043151 	4913 	0.042793
39.69 	0.045362 	4916 	0.045124
39.71 	0.047395 	4895 	0.047036
39.73 	0.046659 	4908 	0.045704
39.75 	0.048498 	4928 	0.047904
39.77 	0.038703 	4935 	0.037991
39.79 	0.037759 	4926 	0.037402
39.81 	0.044652 	4927 	0.043820
39.83 	0.042156 	4934 	0.041325
39.85 	0.048305 	4927 	0.047711
39.87 	0.043046 	4925 	0.042689
39.89 	0.048237 	4934 	0.047524
39.91 	0.052011 	4922 	0.050821
39.93 	0.044764 	4937 	0.044645
39.95 	0.050458 	4915 	0.049981
39.97 	0.043425 	4928 	0.043306
39.99 	0.045620 	4932 	0.045383
40.01 	0.045344 	4918 	0.044748
40.03 	0.038352 	4928 	0.038233
40.05 	0.045556 	4917 	0.045199
40.07 	0.045094 	4923 	0.044381
40.09 	0.048007 	4916 	0.047530
40.11 	0.044752 	4916 	0.044017
40.13 	0.046569 	4896 	0.046210
40.15 	0.040098 	4913 	0.039859
40.17 	0.044440 	4928 	0.043588
40.19 	0.040982 	4929 	0.040507
40.21 	0.043364 	4935 	0.043008
40.23 	0.039538 	4932 	0.039063
40.25 	0.042886 	4920 	0.042410
40.27 	0.042739 	4937 	0.042264
40.29 	0.043434 	4927 	0.042959
40.31 	0.038672 	4939 	0.038059
40.33 	0.039335 	4932 	0.039097
40.35 	0.046148 	4919 	0.045314
40.37 	0.040779 	4929 	0.040423
40.39 	0.043399 	4931 	0.042924
40.41 	0.044670 	4925 	0.043719
40.43 	0.040024 	4922 	0.039191
40.45 	0.047841 	4933 	0.046772
40.47 	0.038837 	4918 	0.038480
40.49 	0.042428 	4926 	0.041596
40.51 	0.040431 	4922 	0.039578
40.53 	0.043328 	4916 	0.043209
40.55 	0.038916 	4908 	0.038319
40.57 	0.044581 	4890 	0.044102
40.59 	0.038890 	4937 	0.038534
40.61 	0.039716 	4935 	0.039479
40.63 	0.038945 	4930 	0.038708
40.65 	0.042536 	4937 	0.042061
40.67 	0.044201 	4932 	0.043588
40.69 	0.039498 	4937 	0.039260
40.71 	0.046026 	4932 	0.045195
40.73 	0.041413 	4926 	0.041056
40.75 	0.042588 	4931 	0.041994
40.77 	0.039684 	4939 	0.038854
40.79 	0.043054 	4924 	0.042460
40.81 	0.041692 	4941 	0.041099
40.83 	0.040584 	4928 	0.040347
40.85 	0.038587 	4924 	0.038349
40.87 	0.039570 	4928 	0.039213
40.89 	0.042182 	4931 	0.042182
40.91 	0.037579 	4923 	0.037222
40.93 	0.037292 	4934 	0.037055
40.95 	0.039080 	4913 	0.038007
40.97 	0.041430 	4924 	0.041311
40.99 	0.038587 	4924 	0.038111
41.01 	0.041124 	4912 	0.040528
41.03 	0.044444 	4905 	0.044206
41.05 	0.034846 	4936 	0.033897
41.07 	0.047667 	4930 	0.046598
41.09 	0.039077 	4939 	0.038840
41.11 	0.042148 	4935 	0.041554
41.13 	0.045381 	4936 	0.044906
41.15 	0.039870 	4941 	0.039515
41.17 	0.039116 	4934 	0.038404
41.19 	0.038540 	4930 	0.037827
41.21 	0.037472 	4937 	0.037116
41.23 	0.043936 	4939 	0.043106
41.25 	0.038719 	4933 	0.038244
41.27 	0.040965 	4931 	0.040490
41.29 	0.044846 	4928 	0.044014
41.31 	0.039732 	4933 	0.039376
41.33 	0.042131 	4937 	0.041656
41.35 	0.037262 	4938 	0.037025
41.37 	0.043258 	4924 	0.043020
41.39 	0.042976 	4933 	0.042382
41.41 	0.041819 	4926 	0.041581
41.43 	0.046663 	4929 	0.046068
41.45 	0.039072 	4914 	0.038595
41.47 	0.038774 	4926 	0.038417
41.49 	0.038635 	4892 	0.038515
41.51 	0.043320 	4940 	0.043201
41.53 	0.043487 	4944 	0.042658
41.55 	0.041743 	4935 	0.041387
41.57 	0.041287 	4941 	0.040793
41.59 	0.046625 	4933 	0.045912
41.61 	0.039572 	4953 	0.038981
41.63 	0.039490 	4938 	0.039015
41.65 	0.038750 	4929 	0.038275
41.67 	0.041296 	4940 	0.041296
41.69 	0.039014 	4947 	0.038658
41.71 	0.044386 	4934 	0.043436
41.73 	0.042545 	4936 	0.041951
41.75 	0.040982 	4929 	0.040625
41.77 	0.038859 	4941 	0.038503
41.79 	0.036812 	4944 	0.036575
41.81 	0.035656 	4936 	0.035063
41.83 	0.040179 	4928 	0.039584
41.85 	0.037862 	4939 	0.037269
41.87 	0.040932 	4935 	0.040082
41.89 	0.038719 	4933 	0.038363
41.91 	0.041937 	4936 	0.041225
41.93 	0.044201 	4932 	0.043726
41.95 	0.036909 	4931 	0.036553
41.97 	0.041514 	4914 	0.041037
41.99 	0.037309 	4905 	0.036831
42.01 	0.038648 	4942 	0.038411
42.03 	0.040899 	4939 	0.040069
42.05 	0.039580 	4952 	0.039107
42.07 	0.036459 	4937 	0.035866
42.09 	0.043654 	4948 	0.042825
42.11 	0.039029 	4945 	0.038555
42.13 	0.037007 	4945 	0.036770
42.15 	0.039692 	4938 	0.038743
42.17 	0.038430 	4918 	0.038073
42.19 	0.038712 	4908 	0.038096
42.21 	0.035095 	4901 	0.034856
42.23 	0.041292 	4892 	0.041172
42.25 	0.033136 	4889 	0.032896
42.27 	0.037751 	4874 	0.037511
42.29 	0.039071 	4863 	0.038107
42.31 	0.035633 	4855 	0.035392
42.33 	0.035581 	4834 	0.035077
42.35 	0.033898 	4838 	0.033656
42.37 	0.031470 	4830 	0.031106
42.39 	0.043297 	4804 	0.043053
42.41 	0.039550 	4804 	0.039063
42.43 	0.039023 	4792 	0.038657
42.45 	0.040620 	4776 	0.040252
42.47 	0.035677 	4765 	0.035431
42.49 	0.033578 	4765 	0.033455
42.51 	0.040481 	4743 	0.040234
42.53 	0.031726 	4728 	0.031602
42.55 	0.037596 	4708 	0.037098
42.57 	0.031290 	4730 	0.031166
42.59 	0.039120 	4729 	0.038996
42.61 	0.042481 	4708 	0.042108
42.63 	0.031854 	4709 	0.031605
42.65 	0.038634 	4685 	0.038509
42.67 	0.035226 	4684 	0.034851
42.69 	0.035088 	4674 	0.034586
42.71 	0.041604 	4663 	0.041102
42.73 	0.036207 	4640 	0.035828
42.75 	0.039853 	4617 	0.039091
42.77 	0.036957 	4600 	0.036829
42.79 	0.038411 	4582 	0.038028
42.81 	0.036607 	4562 	0.036607
42.83 	0.031526 	4536 	0.031138
42.85 	0.034011 	4528 	0.033881
42.87 	0.036008 	4499 	0.035878
42.89 	0.039286 	4480 	0.038893
42.91 	0.033662 	4456 	0.033246
42.93 	0.041610 	4446 	0.041215
42.95 	0.038270 	4416 	0.037872
42.97 	0.036128 	4401 	0.035862
42.99 	0.040365 	4385 	0.039831
43.01 	0.031171 	4363 	0.030903
43.03 	0.038772 	4333 	0.038367
43.05 	0.031445 	4325 	0.031310
43.07 	0.039572 	4296 	0.038890
43.09 	0.040626 	4283 	0.040215
43.11 	0.043008 	4255 	0.042182
43.13 	0.036819 	4237 	0.036265
43.15 	0.035901 	4206 	0.035205
43.17 	0.036133 	4179 	0.035713
43.19 	0.040296 	4194 	0.039574
43.21 	0.042905 	4172 	0.042624
43.23 	0.039480 	4154 	0.039198
43.25 	0.036518 	4135 	0.036234
43.27 	0.040195 	4105 	0.040052
43.29 	0.034146 	4100 	0.033861
43.31 	0.037509 	4079 	0.037078
43.33 	0.038509 	4051 	0.038075
43.35 	0.037946 	4032 	0.037656
43.37 	0.035367 	4015 	0.035076
43.39 	0.037981 	4002 	0.037396
43.41 	0.036254 	3972 	0.036106
43.43 	0.034848 	3960 	0.034701
43.45 	0.037611 	3935 	0.037016
43.47 	0.034685 	3921 	0.033938
43.49 	0.038748 	3897 	0.037996
43.51 	0.034047 	3877 	0.033291
43.53 	0.036500 	3863 	0.036045
43.55 	0.041498 	2964 	0.040510
43.57 	0.036640 	2238 	0.036116
43.59 	0.036655 	1746 	0.036655
43.61 	0.037010 	1351 	0.037010
43.63 	0.034965 	1001 	0.033795
43.65 	0.039301 	687 	0.039301
43.67 	0.019920 	502 	0.019920
43.69 	0.040872 	367 	0.040872
43.71 	0.046025 	239 	0.046025
43.73 	0.041667 	120 	0.041667
43.75 	0.125000 	16 	0.125000