File: Example_Data/25SC_s1_0043.000.dat
#F C:\frames\spec\25SC_s1_0043.000
#C title =s:43 frm:0 25SC_s1
#C wavelength =0.15406

#S 1  fr_average C:\frames\spec\25SC_s1_0043.000 C:\win32app\speccom\mask.axs chi 0 180 0 360 0.02
#C 2 theta =0.000000 to 180 deg
#C   q   =0.000000 to 81.568 nm^-1
#C  chi  =0.000000 to 360 deg
#C collumns:
#C  1 position (2theta or chi in degrees)
#C  2 average intensity (sum of all counts in the region divided with number of pixels)
#C  3 Number of pixels in region)
#C  4 error (sum of sqrt(intensity) for all pixels divided by number)
#N 4
#L TTh  Int  N_pix  Err
32.99 	0.065574 	61 	0.065574
33.01 	0.066438 	873 	0.066438
33.03 	0.063983 	1391 	0.061877
33.05 	0.053500 	1757 	0.051500
33.07 	0.059512 	2050 	0.058941
33.09 	0.059651 	2347 	0.058902
33.11 	0.064754 	2579 	0.063164
33.13 	0.053706 	2793 	0.052657
33.15 	0.061020 	2999 	0.060434
33.17 	0.059044 	3201 	0.057946
33.19 	0.056553 	3342 	0.055297
33.21 	0.057916 	3436 	0.057234
33.23 	0.059892 	3523 	0.058396
33.25 	0.053710 	3612 	0.051926
33.27 	0.070799 	3630 	0.069831
33.29 	0.049890 	3648 	0.049409
33.31 	0.056831 	3660 	0.056030
33.33 	0.056430 	3686 	0.055953
33.35 	0.056037 	3694 	0.054927
33.37 	0.063543 	3714 	0.062729
33.39 	0.066238 	3729 	0.064798
33.41 	0.059358 	3740 	0.058419
33.43 	0.065940 	3761 	0.064538
33.45 	0.062550 	3773 	0.061127
33.47 	0.057925 	3798 	0.056846
33.49 	0.058020 	3809 	0.056483
33.51 	0.060288 	3815 	0.058906
33.53 	0.060922 	3841 	0.060312
33.55 	0.061671 	3843 	0.060578
33.57 	0.067062 	3877 	0.065702
33.59 	0.051289 	3880 	0.050685
33.61 	0.058839 	3909 	0.057590
33.63 	0.059199 	3919 	0.057854
33.65 	0.059018 	3931 	0.057379
33.67 	0.067527 	3954 	0.066193
33.69 	0.057678 	3953 	0.056937
33.71 	0.063396 	3975 	0.062512
33.73 	0.062188 	4004 	0.061603
33.75 	0.059015 	3999 	0.057403
33.77 	0.059130 	4025 	0.057821
33.79 	0.059886 	4041 	0.059306
33.81 	0.059931 	4038 	0.057840
33.83 	0.060000 	4050 	0.058819
33.85 	0.064406 	4099 	0.063263
33.87 	0.061299 	4111 	0.060444
33.89 	0.060908 	4121 	0.059628
33.91 	0.060738 	4149 	0.059326
33.93 	0.061913 	4151 	0.060643
33.95 	0.061229 	4181 	0.059968
33.97 	0.058711 	4190 	0.058152
33.99 	0.060238 	4200 	0.059099
34.01 	0.062663 	4213 	0.061076
34.03 	0.054430 	4244 	0.053188
34.05 	0.067262 	4252 	0.066574
34.07 	0.061387 	4268 	0.060564
34.09 	0.065329 	4286 	0.063826
34.11 	0.061134 	4302 	0.060317
34.13 	0.055246 	4308 	0.054022
34.15 	0.057954 	4331 	0.057008
34.17 	0.062299 	4350 	0.060818
34.19 	0.060293 	4362 	0.059085
34.21 	0.056966 	4371 	0.055894
34.23 	0.059413 	4393 	0.059146
34.25 	0.054496 	4404 	0.053565
34.27 	0.054726 	4422 	0.054064
34.29 	0.054340 	4435 	0.052866
34.31 	0.057201 	4458 	0.056149
34.33 	0.059271 	4471 	0.058092
34.35 	0.053970 	4484 	0.053055
34.37 	0.063460 	4491 	0.062547
34.39 	0.057086 	4502 	0.056284
34.41 	0.061644 	4526 	0.060608
34.43 	0.055739 	4539 	0.055202
34.45 	0.060198 	4535 	0.059423
34.47 	0.062718 	4592 	0.061697
34.49 	0.058299 	4597 	0.057407
34.51 	0.056665 	4606 	0.055627
34.53 	0.067198 	4643 	0.066315
34.55 	0.059660 	4643 	0.058903
34.57 	0.054506 	4660 	0.053375
34.59 	0.060535 	4675 	0.059031
34.61 	0.058761 	4697 	0.058013
34.63 	0.058599 	4710 	0.057106
34.65 	0.056768 	4721 	0.055899
34.67 	0.051888 	4741 	0.050652
34.69 	0.058267 	4754 	0.057404
34.71 	0.055812 	4766 	0.054952
34.73 	0.058492 	4787 	0.057493
34.75 	0.057196 	4808 	0.056343
34.77 	0.056663 	4818 	0.055427
34.79 	0.063226 	4824 	0.062011
34.81 	0.050980 	4845 	0.050497
34.83 	0.050391 	4862 	0.049668
34.85 	0.054015 	4869 	0.053414
34.87 	0.056286 	4868 	0.055684
34.89 	0.054281 	4882 	0.053681
34.91 	0.054691 	4882 	0.053971
34.93 	0.060216 	4899 	0.059260
34.95 	0.054192 	4890 	0.053234
34.97 	0.056304 	4902 	0.055826
34.99 	0.052073 	4897 	0.051355
35.01 	0.058298 	4923 	0.057465
35.03 	0.058062 	4943 	0.057351
35.05 	0.061249 	4947 	0.060539
35.07 	0.063158 	4940 	0.062328
35.09 	0.057541 	4953 	0.056595
35.11 	0.062058 	4947 	0.060874
35.13 	0.055668 	4958 	0.054821
35.15 	0.054487 	4937 	0.054131
35.17 	0.055196 	4946 	0.054012
35.19 	0.060097 	4942 	0.058793
35.21 	0.054398 	4945 	0.053332
35.23 	0.057634 	4945 	0.056212
35.25 	0.054420 	4943 	0.053946
35.27 	0.060226 	4948 	0.058905
35.29 	0.057836 	4945 	0.056632
35.31 	0.057369 	4933 	0.056181
35.33 	0.057860 	4943 	0.056675
35.35 	0.057871 	4942 	0.056330
35.37 	0.064790 	4939 	0.063723
35.39 	0.054398 	4945 	0.053806
35.41 	0.061307 	4926 	0.059999
35.43 	0.062639 	4933 	0.061689
35.45 	0.059145 	4937 	0.058315
35.47 	0.056986 	4931 	0.056392
35.49 	0.054786 	4910 	0.054309
35.51 	0.055217 	4926 	0.054860
35.53 	0.056981 	4949 	0.056626
35.55 	0.060263 	4945 	0.059434
35.57 	0.055342 	4933 	0.054867
35.59 	0.061072 	4945 	0.059887
35.61 	0.057669 	4942 	0.056958
35.63 	0.059883 	4943 	0.058579
35.65 	0.058038 	4945 	0.057446
35.67 	0.052813 	4942 	0.052101
35.69 	0.053781 	4946 	0.052695
35.71 	0.058335 	4937 	0.057267
35.73 	0.060575 	4936 	0.059507
35.75 	0.064693 	4931 	0.063148
35.77 	0.063825 	4951 	0.063234
35.79 	0.054542 	4932 	0.054067
35.81 	0.058585 	4933 	0.057398
35.83 	0.056207 	4946 	0.055260
35.85 	0.063627 	4935 	0.062321
35.87 	0.056063 	4923 	0.055230
35.89 	0.058370 	4934 	0.056590
35.91 	0.061092 	4927 	0.059665
35.93 	0.058250 	4927 	0.057299
35.95 	0.054505 	4917 	0.053552
35.97 	0.059446 	4912 	0.058850
35.99 	0.050820 	4939 	0.050207
36.01 	0.052333 	4930 	0.051976
36.03 	0.060490 	4943 	0.059404
36.05 	0.060870 	4945 	0.059803
36.07 	0.054262 	4939 	0.053432
36.09 	0.055466 	4940 	0.055228
36.11 	0.057010 	4929 	0.056653
36.13 	0.060299 	4942 	0.059470
36.15 	0.057704 	4939 	0.056399
36.17 	0.060508 	4925 	0.060032
36.19 	0.060526 	4940 	0.058629
36.21 	0.064719 	4929 	0.064006
36.23 	0.053698 	4935 	0.052748
36.25 	0.064359 	4941 	0.062937
36.27 	0.057056 	4925 	0.056342
36.29 	0.057595 	4931 	0.057001
36.31 	0.057630 	4928 	0.057036
36.33 	0.060612 	4933 	0.060137
36.35 	0.059241 	4929 	0.058033
36.37 	0.056673 	4923 	0.056078
36.39 	0.058728 	4921 	0.058014
36.41 	0.051675 	4896 	0.050718
36.43 	0.057630 	4928 	0.056798
36.45 	0.065923 	4930 	0.064141
36.47 	0.056118 	4936 	0.055762
36.49 	0.060704 	4942 	0.060112
36.51 	0.057369 	4933 	0.056063
36.53 	0.057860 	4943 	0.057030
36.55 	0.058250 	4927 	0.057418
36.57 	0.060195 	4934 	0.058651
36.59 	0.060539 	4939 	0.059708
36.61 	0.054553 	4931 	0.053721
36.63 	0.056581 	4931 	0.055393
36.65 	0.058394 	4932 	0.056811
36.67 	0.054767 	4930 	0.053579
36.69 	0.066545 	4929 	0.064406
36.71 	0.061776 	4921 	0.060566
36.73 	0.055228 	4925 	0.054396
36.75 	0.064320 	4944 	0.063017
36.77 	0.054889 	4919 	0.054056
36.79 	0.060150 	4921 	0.059079
36.81 	0.061229 	4916 	0.060037
36.83 	0.064293 	4915 	0.063082
36.85 	0.063904 	4898 	0.062588
36.87 	0.056230 	4944 	0.054788
36.89 	0.050651 	4916 	0.049340
36.91 	0.054645 	4941 	0.054052
36.93 	0.053753 	4930 	0.053158
36.95 	0.052504 	4933 	0.051772
36.97 	0.064856 	4934 	0.063194
36.99 	0.058561 	4935 	0.057374
37.01 	0.053112 	4933 	0.052399
37.03 	0.059911 	4924 	0.058364
37.05 	0.059874 	4927 	0.058190
37.07 	0.057751 	4935 	0.056782
37.09 	0.061485 	4928 	0.060634
37.11 	0.056130 	4935 	0.055655
37.13 	0.057880 	4924 	0.057047
37.15 	0.061112 	4909 	0.060516
37.17 	0.054114 	4934 	0.053145
37.19 	0.055431 	4925 	0.053866
37.21 	0.055522 	4917 	0.054569
37.23 	0.057747 	4918 	0.056675
37.25 	0.055182 	4911 	0.054109
37.27 	0.058235 	4894 	0.057038
37.29 	0.055375 	4930 	0.054168
37.31 	0.057953 	4935 	0.057360
37.33 	0.053582 	4927 	0.052750
37.35 	0.051438 	4938 	0.050845
37.37 	0.055409 	4927 	0.054458
37.39 	0.049483 	4931 	0.048414
37.41 	0.057189 	4931 	0.056358
37.43 	0.058597 	4932 	0.057172
37.45 	0.052803 	4924 	0.052327
37.47 	0.063907 	4929 	0.063313
37.49 	0.056063 	4923 	0.055587
37.51 	0.057774 	4933 	0.056349
37.53 	0.058752 	4919 	0.058156
37.55 	0.062880 	4930 	0.062049
37.57 	0.055838 	4925 	0.054886
37.59 	0.056765 	4915 	0.055792
37.61 	0.058919 	4922 	0.057610
37.63 	0.052856 	4919 	0.051904
37.65 	0.052257 	4918 	0.051661
37.67 	0.053222 	4904 	0.052386
37.69 	0.057370 	4898 	0.056653
37.71 	0.057010 	4929 	0.055307
37.73 	0.059444 	4929 	0.058117
37.75 	0.061741 	4940 	0.060792
37.77 	0.052846 	4920 	0.052369
37.79 	0.054158 	4930 	0.053445
37.81 	0.057369 	4933 	0.056894
37.83 	0.061992 	4920 	0.060424
37.85 	0.058513 	4922 	0.057323
37.87 	0.056287 	4939 	0.054982
37.89 	0.055431 	4925 	0.054480
37.91 	0.054361 	4930 	0.053886
37.93 	0.057735 	4919 	0.056902
37.95 	0.057712 	4921 	0.057236
37.97 	0.054981 	4929 	0.054505
37.99 	0.055578 	4912 	0.054485
38.01 	0.049310 	4928 	0.048835
38.03 	0.057446 	4909 	0.056849
38.05 	0.057259 	4925 	0.056069
38.07 	0.066001 	4909 	0.064808
38.09 	0.055761 	4878 	0.054920
38.11 	0.059169 	4935 	0.058220
38.13 	0.054487 	4937 	0.053419
38.15 	0.057747 	4918 	0.057032
38.17 	0.058621 	4930 	0.056819
38.19 	0.060446 	4930 	0.059377
38.21 	0.066829 	4923 	0.064687
38.23 	0.068246 	4938 	0.066941
38.25 	0.074639 	4917 	0.073090
38.27 	0.062069 	4930 	0.060524
38.29 	0.071487 	4924 	0.070297
38.31 	0.070225 	4927 	0.068561
38.33 	0.074533 	4924 	0.072629
38.35 	0.077313 	4928 	0.075630
38.37 	0.076767 	4924 	0.075696
38.39 	0.072520 	4909 	0.071685
38.41 	0.073736 	4923 	0.072427
38.43 	0.088080 	4916 	0.086154
38.45 	0.091094 	4918 	0.088712
38.47 	0.083147 	4907 	0.081714
38.49 	0.086119 	4877 	0.083697
38.51 	0.079886 	4932 	0.077392
38.53 	0.088659 	4929 	0.086282
38.55 	0.080835 	4936 	0.078659
38.57 	0.074345 	4923 	0.073036
38.59 	0.076564 	4924 	0.074660
38.61 	0.076783 	4936 	0.075359
38.63 	0.072502 	4924 	0.071055
38.65 	0.066084 	4918 	0.065131
38.67 	0.077375 	4937 	0.075832
38.69 	0.069078 	4922 	0.067292
38.71 	0.064988 	4924 	0.063679
38.73 	0.058967 	4918 	0.058372
38.75 	0.063528 	4927 	0.062576
38.77 	0.056876 	4923 	0.056043
38.79 	0.055128 	4934 	0.054534
38.81 	0.051099 	4912 	0.050384
38.83 	0.054483 	4919 	0.052696
38.85 	0.046824 	4912 	0.045751
38.87 	0.056811 	4911 	0.056573
38.89 	0.046559 	4897 	0.046200
38.91 	0.052417 	4903 	0.051342
38.93 	0.050020 	4938 	0.049190
38.95 	0.048394 	4918 	0.047322
38.97 	0.050902 	4931 	0.050308
38.99 	0.050030 	4937 	0.049299
39.01 	0.049004 	4918 	0.048289
39.03 	0.052898 	4934 	0.051830
39.05 	0.052183 	4925 	0.051588
39.07 	0.049959 	4924 	0.049602
39.09 	0.048345 	4923 	0.047869
39.11 	0.046846 	4931 	0.046134
39.13 	0.048548 	4923 	0.047338
39.15 	0.049847 	4915 	0.049490
39.17 	0.051651 	4937 	0.050820
39.19 	0.044539 	4917 	0.044301
39.21 	0.045214 	4910 	0.044498
39.23 	0.049340 	4925 	0.048626
39.25 	0.045104 	4922 	0.044866
39.27 	0.049084 	4910 	0.048845
39.29 	0.054275 	4901 	0.053079
39.31 	0.049345 	4884 	0.048865
39.33 	0.048469 	4931 	0.047637
39.35 	0.045187 	4935 	0.044594
39.37 	0.043011 	4929 	0.042654
39.39 	0.049503 	4929 	0.049028
39.41 	0.048266 	4931 	0.047534
39.43 	0.043584 	4933 	0.042733
39.45 	0.039594 	4925 	0.039237
39.47 	0.045298 	4923 	0.044703
39.49 	0.050274 	4933 	0.049324
39.51 	0.043461 	4924 	0.042747
39.53 	0.045094 	4923 	0.044737
39.55 	0.045334 	4919 	0.044481
39.57 	0.043381 	4933 	0.042788
39.59 	0.045806 	4912 	0.045091
39.61 	0.046719 	4923 	0.046363
39.63 	0.044494 	4922 	0.044018
39.65 	0.044255 	4926 	0.043541
39.67 	0.048036 	4913 	0.047440
39.69 	0.044955 	4916 	0.043883
39.71 	0.040245 	4895 	0.039527
39.73 	0.046862 	4908 	0.046027
39.75 	0.047687 	4928 	0.047092
39.77 	0.041945 	4935 	0.041470
39.79 	0.050142 	4926 	0.049310
39.81 	0.045261 	4927 	0.044785
39.83 	0.044386 	4934 	0.043674
39.85 	0.045261 	4927 	0.044290
39.87 	0.042640 	4925 	0.042164
39.89 	0.043778 	4934 	0.042947
39.91 	0.047948 	4922 	0.047353
39.93 	0.048815 	4937 	0.048103
39.95 	0.043744 	4915 	0.043386
39.97 	0.045252 	4928 	0.045133
39.99 	0.045620 	4932 	0.044908
40.01 	0.044734 	4918 	0.043999
40.03 	0.038758 	4928 	0.038520
40.05 	0.044539 	4917 	0.044063
40.07 	0.045094 	4923 	0.044381
40.09 	0.044142 	4916 	0.043784
40.11 	0.037022 	4916 	0.036545
40.13 	0.041667 	4896 	0.041188
40.15 	0.042337 	4913 	0.042217
40.17 	0.044034 	4928 	0.043559
40.19 	0.046257 	4929 	0.045306
40.21 	0.042351 	4935 	0.041757
40.23 	0.044404 	4932 	0.044048
40.25 	0.041667 	4920 	0.041052
40.27 	0.039093 	4937 	0.038618
40.29 	0.046479 	4927 	0.045646
40.31 	0.040696 	4939 	0.040341
40.33 	0.041768 	4932 	0.040937
40.35 	0.043708 	4919 	0.043351
40.37 	0.045648 	4929 	0.045173
40.39 	0.040154 	4931 	0.039798
40.41 	0.041421 	4925 	0.041064
40.43 	0.041650 	4922 	0.041531
40.45 	0.036692 	4933 	0.036335
40.47 	0.046564 	4918 	0.046325
40.49 	0.044255 	4926 	0.043641
40.51 	0.047135 	4922 	0.046302
40.53 	0.044142 	4916 	0.043903
40.55 	0.039935 	4908 	0.039219
40.57 	0.041309 	4890 	0.040710
40.59 	0.043549 	4937 	0.042837
40.61 	0.048024 	4935 	0.047431
40.63 	0.039351 	4930 	0.038876
40.65 	0.046182 	4937 	0.045945
40.67 	0.036496 	4932 	0.036378
40.69 	0.043346 	4937 	0.042872
40.71 	0.041565 	4932 	0.041090
40.73 	0.040804 	4926 	0.040447
40.75 	0.041777 	4931 	0.041539
40.77 	0.043126 	4939 	0.042514
40.79 	0.041836 	4924 	0.041122
40.81 	0.038656 	4941 	0.038044
40.83 	0.036526 	4928 	0.035932
40.85 	0.046507 	4924 	0.045912
40.87 	0.039570 	4928 	0.039451
40.89 	0.045630 	4931 	0.045392
40.91 	0.044282 	4923 	0.043806
40.93 	0.040332 	4934 	0.039976
40.95 	0.043558 	4913 	0.042823
40.97 	0.040008 	4924 	0.039770
40.99 	0.038790 	4924 	0.038076
41.01 	0.042345 	4912 	0.041749
41.03 	0.044037 	4905 	0.042923
41.05 	0.041329 	4936 	0.040854
41.07 	0.039757 	4930 	0.039519
41.09 	0.040696 	4939 	0.039866
41.11 	0.043566 	4935 	0.042498
41.13 	0.044976 	4936 	0.044264
41.15 	0.041085 	4941 	0.040848
41.17 	0.039522 	4934 	0.039403
41.19 	0.044219 	4930 	0.043387
41.21 	0.045169 	4937 	0.044339
41.23 	0.044543 	4939 	0.044069
41.25 	0.037503 	4933 	0.036671
41.27 	0.040965 	4931 	0.040728
41.29 	0.040584 	4928 	0.039752
41.31 	0.042976 	4933 	0.042363
41.33 	0.040713 	4937 	0.040476
41.35 	0.037060 	4938 	0.036704
41.37 	0.036149 	4924 	0.035912
41.39 	0.042976 	4933 	0.042382
41.41 	0.041210 	4926 	0.040853
41.43 	0.041388 	4929 	0.040912
41.45 	0.044974 	4914 	0.044616
41.47 	0.042022 	4926 	0.041784
41.49 	0.041292 	4892 	0.041052
41.51 	0.037045 	4940 	0.036570
41.53 	0.039644 	4944 	0.039407
41.55 	0.042756 	4935 	0.041925
41.57 	0.040882 	4941 	0.040645
41.59 	0.045003 	4933 	0.044291
41.61 	0.041793 	4953 	0.041556
41.63 	0.035439 	4938 	0.035202
41.65 	0.039156 	4929 	0.038324
41.67 	0.037247 	4940 	0.036891
41.69 	0.041439 	4947 	0.041321
41.71 	0.040130 	4934 	0.039892
41.73 	0.038493 	4936 	0.038137
41.75 	0.037939 	4929 	0.037582
41.77 	0.040275 	4941 	0.040038
41.79 	0.037217 	4944 	0.037098
41.81 	0.038898 	4936 	0.038305
41.83 	0.038758 	4928 	0.038164
41.85 	0.040292 	4939 	0.039936
41.87 	0.040324 	4935 	0.039849
41.89 	0.034867 	4933 	0.034748
41.91 	0.038290 	4936 	0.037934
41.93 	0.040146 	4932 	0.039196
41.95 	0.043196 	4931 	0.043077
41.97 	0.036834 	4914 	0.036714
41.99 	0.041998 	4905 	0.041640
42.01 	0.041886 	4942 	0.041412
42.03 	0.040696 	4939 	0.040222
42.05 	0.039580 	4952 	0.038989
42.07 	0.034231 	4937 	0.033875
42.09 	0.034762 	4948 	0.034406
42.11 	0.035996 	4945 	0.035759
42.13 	0.039232 	4945 	0.038402
42.15 	0.038072 	4938 	0.037598
42.17 	0.038430 	4918 	0.038192
42.19 	0.040342 	4908 	0.039387
42.21 	0.037951 	4901 	0.037354
42.23 	0.041905 	4892 	0.041426
42.25 	0.037226 	4889 	0.036987
42.27 	0.045753 	4874 	0.044671
42.29 	0.041744 	4863 	0.041262
42.31 	0.037487 	4855 	0.036884
42.33 	0.038271 	4834 	0.037887
42.35 	0.040926 	4838 	0.040563
42.37 	0.034783 	4830 	0.034278
42.39 	0.034555 	4804 	0.034189
42.41 	0.039550 	4804 	0.039306
42.43 	0.035267 	4792 	0.034900
42.45 	0.034757 	4776 	0.034369
42.47 	0.035257 	4765 	0.034888
42.49 	0.042183 	4765 	0.041691
42.51 	0.039427 	4743 	0.038933
42.53 	0.037014 	4728 	0.036642
42.55 	0.034834 	4708 	0.034585
42.57 	0.038901 	4730 	0.038653
42.59 	0.046310 	4729 	0.045938
42.61 	0.038233 	4708 	0.037860
42.63 	0.037588 	4709 	0.037339
42.65 	0.036926 	4685 	0.036301
42.67 	0.033518 	4684 	0.033268
42.69 	0.036157 	4674 	0.035656
42.71 	0.037529 	4663 	0.036755
42.73 	0.037931 	4640 	0.037679
42.75 	0.035737 	4617 	0.034849
42.77 	0.039783 	4600 	0.039401
42.79 	0.038193 	4582 	0.037554
42.81 	0.043621 	4562 	0.042979
42.83 	0.037257 	4536 	0.037257
42.85 	0.035998 	4528 	0.035739
42.87 	0.039342 	4499 	0.038670
42.89 	0.040402 	4480 	0.040010
42.91 	0.037478 	4456 	0.037083
42.93 	0.039361 	4446 	0.038834
42.95 	0.033967 	4416 	0.033569
42.97 	0.038173 	4401 	0.037907
42.99 	0.043786 	4385 	0.043518
43.01 	0.038735 	4363 	0.038601
43.03 	0.033464 	4333 	0.032923
43.05 	0.039306 	4325 	0.038629
43.07 	0.040503 	4296 	0.040503
43.09 	0.039225 	4283 	0.038678
43.11 	0.039953 	4255 	0.039127
43.13 	0.041303 	4237 	0.041165
43.15 	0.037565 	4206 	0.036869
43.17 	0.035176 	4179 	0.034755
43.19 	0.036958 	4194 	0.036399
43.21 	0.029243 	4172 	0.028962
43.23 	0.039239 	4154 	0.038816
43.25 	0.037001 	4135 	0.036718
43.27 	0.041413 	4105 	0.039986
43.29 	0.038780 	4100 	0.037780
43.31 	0.036283 	4079 	0.035996
43.33 	0.033819 	4051 	0.033385
43.35 	0.034970 	4032 	0.034825
43.37 	0.037858 	4015 	0.037566
43.39 	0.042479 	4002 	0.042186
43.41 	0.043807 	3972 	0.043217
43.43 	0.040152 	3960 	0.039856
43.45 	0.040152 	3935 	0.039706
43.47 	0.037235 	3921 	0.036937
43.49 	0.038748 	3897 	0.038597
43.51 	0.031468 	3877 	0.031165
43.53 	0.039865 	3863 	0.039865
43.55 	0.039474 	2964 	0.039078
43.57 	0.033065 	2238 	0.032803
43.59 	0.036082 	1746 	0.036082
43.61 	0.031088 	1351 	0.030654
43.63 	0.044955 	1001 	0.044955
43.65 	0.037846 	687 	0.036993
43.67 	0.033865 	502 	0.032698
43.69 	0.035422 	367 	0.033826
43.71 	0.033473 	239 	0.033473
43.73 	0.025000 	120 	0.025000
43.75 	0.187500 	16 	0.187500