File: Example_Data/25SC_s1_0011.002.dat
#F C:\frames\spec\25SC_s1_0011.002
#C title =s:11 frm:2 25SC_s1
#C wavelength =0.15406

#S 1  fr_average C:\frames\spec\25SC_s1_0011.002 C:\win32app\speccom\mask.axs chi 0 180 0 360 0.02
#C 2 theta =0.000000 to 180 deg
#C   q   =0.000000 to 81.568 nm^-1
#C  chi  =0.000000 to 360 deg
#C collumns:
#C  1 position (2theta or chi in degrees)
#C  2 average intensity (sum of all counts in the region divided with number of pixels)
#C  3 Number of pixels in region)
#C  4 error (sum of sqrt(intensity) for all pixels divided by number)
#N 4
#L TTh  Int  N_pix  Err
32.99 	0.032787 	61 	0.032787
33.01 	0.054983 	873 	0.053530
33.03 	0.050324 	1391 	0.049060
33.05 	0.064314 	1757 	0.062981
33.07 	0.056585 	2050 	0.055681
33.09 	0.064337 	2347 	0.063589
33.11 	0.070182 	2579 	0.068819
33.13 	0.059434 	2793 	0.058595
33.15 	0.056352 	2999 	0.055766
33.17 	0.059044 	3201 	0.058129
33.19 	0.053262 	3342 	0.052560
33.21 	0.057916 	3436 	0.057575
33.23 	0.054783 	3523 	0.053951
33.25 	0.054264 	3612 	0.053615
33.27 	0.063636 	3630 	0.061700
33.29 	0.054002 	3648 	0.053520
33.31 	0.065574 	3660 	0.064293
33.33 	0.052903 	3686 	0.052426
33.35 	0.060910 	3694 	0.060275
33.37 	0.065428 	3714 	0.063693
33.39 	0.056047 	3729 	0.054790
33.41 	0.058556 	3740 	0.057460
33.43 	0.062217 	3761 	0.061413
33.45 	0.062550 	3773 	0.061463
33.47 	0.053186 	3798 	0.052260
33.49 	0.060383 	3809 	0.059614
33.51 	0.059240 	3815 	0.057833
33.53 	0.056235 	3841 	0.055168
33.55 	0.050481 	3843 	0.049199
33.57 	0.060098 	3877 	0.058738
33.59 	0.057216 	3880 	0.056311
33.61 	0.058583 	3909 	0.057684
33.63 	0.060730 	3919 	0.060132
33.65 	0.064106 	3931 	0.062914
33.67 	0.058169 	3954 	0.057132
33.69 	0.057172 	3953 	0.056579
33.71 	0.059874 	3975 	0.058524
33.73 	0.057942 	4004 	0.057649
33.75 	0.056514 	3999 	0.055635
33.77 	0.057640 	4025 	0.056912
33.79 	0.064588 	4041 	0.062475
33.81 	0.061169 	4038 	0.059863
33.83 	0.058025 	4050 	0.057735
33.85 	0.064162 	4099 	0.063019
33.87 	0.057407 	4111 	0.056267
33.89 	0.056540 	4121 	0.055260
33.91 	0.058086 	4149 	0.056510
33.93 	0.051554 	4151 	0.050989
33.95 	0.055728 	4181 	0.054607
33.97 	0.059666 	4190 	0.058827
33.99 	0.059762 	4200 	0.058646
34.01 	0.062426 	4213 	0.062009
34.03 	0.061734 	4244 	0.059802
34.05 	0.060677 	4252 	0.059415
34.07 	0.060450 	4268 	0.058528
34.09 	0.054363 	4286 	0.053953
34.11 	0.055788 	4302 	0.054971
34.13 	0.056871 	4308 	0.056191
34.15 	0.057031 	4331 	0.055949
34.17 	0.062069 	4350 	0.060453
34.19 	0.064420 	4362 	0.062674
34.21 	0.060398 	4371 	0.059326
34.23 	0.055998 	4393 	0.055465
34.25 	0.054950 	4404 	0.053886
34.27 	0.057214 	4422 	0.056419
34.29 	0.056595 	4435 	0.055803
34.31 	0.056079 	4458 	0.055291
34.33 	0.057482 	4471 	0.056695
34.35 	0.057538 	4484 	0.056754
34.37 	0.056780 	4491 	0.055998
34.39 	0.051533 	4502 	0.050882
34.41 	0.059876 	4526 	0.058194
34.43 	0.055078 	4539 	0.054304
34.45 	0.059757 	4535 	0.059112
34.47 	0.063371 	4592 	0.062095
34.49 	0.061344 	4597 	0.060070
34.51 	0.056882 	4606 	0.056501
34.53 	0.055998 	4643 	0.055494
34.55 	0.052121 	4643 	0.051112
34.57 	0.056867 	4660 	0.056113
34.59 	0.053690 	4675 	0.052813
34.61 	0.061742 	4697 	0.060619
34.63 	0.059873 	4710 	0.059126
34.65 	0.056556 	4721 	0.055563
34.67 	0.055052 	4741 	0.054557
34.69 	0.065839 	4754 	0.064237
34.71 	0.052245 	4766 	0.051508
34.73 	0.052643 	4787 	0.051399
34.75 	0.062812 	4808 	0.061350
34.77 	0.056040 	4818 	0.055554
34.79 	0.063226 	4824 	0.061141
34.81 	0.056140 	4845 	0.055173
34.83 	0.061086 	4862 	0.060122
34.85 	0.062230 	4869 	0.061388
34.87 	0.053615 	4868 	0.053134
34.89 	0.064113 	4882 	0.062673
34.91 	0.052847 	4882 	0.052007
34.93 	0.064911 	4899 	0.063576
34.95 	0.059100 	4890 	0.058102
34.97 	0.058140 	4902 	0.057144
34.99 	0.063100 	4897 	0.061784
35.01 	0.056267 	4923 	0.055196
35.03 	0.054420 	4943 	0.053946
35.05 	0.053972 	4947 	0.053262
35.07 	0.064575 	4940 	0.063389
35.09 	0.060367 	4953 	0.058830
35.11 	0.061451 	4947 	0.060011
35.13 	0.058088 	4958 	0.057733
35.15 	0.057525 	4937 	0.056932
35.17 	0.053781 	4946 	0.053189
35.19 	0.058276 	4942 	0.056261
35.21 	0.059252 	4945 	0.058423
35.23 	0.057634 	4945 	0.057141
35.25 	0.056646 	4943 	0.055797
35.27 	0.059822 	4948 	0.058993
35.29 	0.063094 	4945 	0.061909
35.31 	0.065680 	4933 	0.063899
35.33 	0.061097 	4943 	0.059911
35.35 	0.056050 	4942 	0.055576
35.37 	0.059121 	4939 	0.058410
35.39 	0.053387 	4945 	0.052539
35.41 	0.057653 	4926 	0.056702
35.43 	0.057166 	4933 	0.055741
35.45 	0.062791 	4937 	0.061605
35.47 	0.061448 	4931 	0.060498
35.49 	0.064155 	4910 	0.062584
35.51 	0.064149 	4926 	0.063436
35.53 	0.058194 	4949 	0.057128
35.55 	0.062487 	4945 	0.061777
35.57 	0.061829 	4933 	0.060404
35.59 	0.056016 	4945 	0.054950
35.61 	0.056860 	4942 	0.055674
35.63 	0.057860 	4943 	0.057030
35.65 	0.057027 	4945 	0.056553
35.67 	0.062323 	4942 	0.061375
35.69 	0.060857 	4946 	0.059554
35.71 	0.059550 	4937 	0.058482
35.73 	0.053079 	4936 	0.052011
35.75 	0.055567 	4931 	0.054854
35.77 	0.063624 	4951 	0.062421
35.79 	0.057178 	4932 	0.056089
35.81 	0.058585 	4933 	0.056903
35.83 	0.062879 	4946 	0.062168
35.85 	0.056535 	4935 	0.056060
35.87 	0.059517 	4923 	0.058922
35.89 	0.055533 	4934 	0.054939
35.91 	0.061092 	4927 	0.059883
35.93 	0.055815 	4927 	0.055102
35.95 	0.057352 	4917 	0.056280
35.97 	0.063925 	4912 	0.062255
35.99 	0.061348 	4939 	0.060637
36.01 	0.055578 	4930 	0.055222
36.03 	0.055027 	4943 	0.054178
36.05 	0.061678 	4945 	0.061086
36.07 	0.057097 	4939 	0.056266
36.09 	0.062146 	4940 	0.060604
36.11 	0.056604 	4929 	0.055415
36.13 	0.060907 	4942 	0.059840
36.15 	0.066005 	4939 	0.065412
36.17 	0.056447 	4925 	0.055852
36.19 	0.060931 	4940 	0.059963
36.21 	0.060864 	4929 	0.059914
36.23 	0.059574 	4935 	0.059100
36.25 	0.055454 	4941 	0.054368
36.27 	0.061117 	4925 	0.060522
36.29 	0.059014 	4931 	0.058420
36.31 	0.059456 	4928 	0.058248
36.33 	0.055747 	4933 	0.055153
36.35 	0.055386 	4929 	0.054911
36.37 	0.062157 	4923 	0.061324
36.39 	0.055883 	4921 	0.055288
36.41 	0.059232 	4896 	0.058275
36.43 	0.062094 	4928 	0.060549
36.45 	0.060852 	4930 	0.060258
36.47 	0.058955 	4936 	0.058005
36.49 	0.059288 	4942 	0.058221
36.51 	0.060815 	4933 	0.060102
36.53 	0.056443 	4943 	0.055732
36.55 	0.057642 	4927 	0.056215
36.57 	0.058168 	4934 	0.057574
36.59 	0.059729 	4939 	0.058424
36.61 	0.058000 	4931 	0.056812
36.63 	0.060028 	4931 	0.059078
36.65 	0.057178 	4932 	0.056465
36.67 	0.063083 	4930 	0.062133
36.69 	0.054981 	4929 	0.054387
36.71 	0.061979 	4921 	0.060670
36.73 	0.058680 	4925 	0.057729
36.75 	0.066141 	4944 	0.064956
36.77 	0.054279 	4919 	0.053088
36.79 	0.053648 	4921 	0.051962
36.81 	0.056143 	4916 	0.054952
36.83 	0.054323 	4915 	0.053132
36.85 	0.055533 	4898 	0.054576
36.87 	0.058859 	4944 	0.057674
36.89 	0.051668 	4916 	0.050099
36.91 	0.057478 	4941 	0.056411
36.93 	0.056998 	4930 	0.056523
36.95 	0.055342 	4933 	0.054510
36.97 	0.051480 	4934 	0.051123
36.99 	0.057143 	4935 	0.055600
37.01 	0.061423 	4933 	0.060691
37.03 	0.059504 	4924 	0.057938
37.05 	0.052162 	4927 	0.051686
37.07 	0.060993 	4935 	0.059312
37.09 	0.057833 	4928 	0.056882
37.11 	0.053901 	4935 	0.052358
37.13 	0.056052 	4924 	0.054981
37.15 	0.056427 	4909 	0.054995
37.17 	0.057965 	4934 	0.056778
37.19 	0.059086 	4925 	0.057540
37.21 	0.050844 	4917 	0.050129
37.23 	0.051240 	4918 	0.050764
37.25 	0.051110 	4911 	0.050036
37.27 	0.064569 	4894 	0.062854
37.29 	0.055375 	4930 	0.054405
37.31 	0.054509 	4935 	0.053559
37.33 	0.054394 	4927 	0.053324
37.35 	0.056906 	4938 	0.055700
37.37 	0.053582 	4927 	0.052869
37.39 	0.053539 	4931 	0.052826
37.41 	0.054147 	4931 	0.053078
37.43 	0.050892 	4932 	0.049467
37.45 	0.057677 	4924 	0.056368
37.47 	0.057821 	4929 	0.056514
37.49 	0.051188 	4923 	0.050474
37.51 	0.060612 	4933 	0.059662
37.53 	0.054076 	4919 	0.053481
37.55 	0.053955 	4930 	0.053005
37.57 	0.051371 	4925 	0.050657
37.59 	0.052289 	4915 	0.051216
37.61 	0.056278 	4922 	0.055207
37.63 	0.053669 	4919 	0.052221
37.65 	0.055104 	4918 	0.054508
37.67 	0.053222 	4904 	0.052744
37.69 	0.055737 	4898 	0.055139
37.71 	0.054981 	4929 	0.054129
37.73 	0.050923 	4929 	0.050448
37.75 	0.060526 	4940 	0.059222
37.77 	0.056098 	4920 	0.055383
37.79 	0.056795 	4930 	0.055250
37.81 	0.046827 	4933 	0.046115
37.83 	0.052033 	4920 	0.050793
37.85 	0.053840 	4922 	0.053721
37.87 	0.061753 	4939 	0.060904
37.89 	0.054213 	4925 	0.053500
37.91 	0.050913 	4930 	0.049962
37.93 	0.056719 	4919 	0.055766
37.95 	0.055680 	4921 	0.054232
37.97 	0.053155 	4929 	0.052679
37.99 	0.055375 	4912 	0.054898
38.01 	0.053977 	4928 	0.053026
38.03 	0.057038 	4909 	0.056322
38.05 	0.054416 	4925 	0.053227
38.07 	0.048686 	4909 	0.048328
38.09 	0.058016 	4878 	0.056815
38.11 	0.054711 	4935 	0.053643
38.13 	0.054487 	4937 	0.053775
38.15 	0.049817 	4918 	0.049460
38.17 	0.061866 	4930 	0.061034
38.19 	0.047262 	4930 	0.046430
38.21 	0.051391 	4923 	0.050677
38.23 	0.054881 	4938 	0.053338
38.25 	0.051047 	4917 	0.050333
38.27 	0.056187 	4930 	0.054998
38.29 	0.045085 	4924 	0.044253
38.31 	0.057845 	4927 	0.056160
38.33 	0.059301 	4924 	0.057874
38.35 	0.056006 	4928 	0.055174
38.37 	0.058286 	4924 	0.056739
38.39 	0.052964 	4909 	0.052367
38.41 	0.059923 	4923 	0.059328
38.43 	0.058584 	4916 	0.057512
38.45 	0.059577 	4918 	0.058624
38.47 	0.061952 	4907 	0.060997
38.49 	0.062128 	4877 	0.061047
38.51 	0.068735 	4932 	0.066953
38.53 	0.057821 	4929 	0.056751
38.55 	0.062804 	4936 	0.061854
38.57 	0.061345 	4923 	0.060512
38.59 	0.062957 	4924 	0.061748
38.61 	0.058955 	4936 	0.057867
38.63 	0.054630 	4924 	0.053798
38.65 	0.063034 	4918 	0.062081
38.67 	0.058943 	4937 	0.057875
38.69 	0.063389 	4922 	0.061961
38.71 	0.062145 	4924 	0.060717
38.73 	0.062424 	4918 	0.061114
38.75 	0.065151 	4927 	0.063606
38.77 	0.064189 	4923 	0.062404
38.79 	0.066883 	4934 	0.064726
38.81 	0.058836 	4912 	0.057862
38.83 	0.056516 	4919 	0.055206
38.85 	0.056596 	4912 	0.055761
38.87 	0.052942 	4911 	0.052227
38.89 	0.052073 	4897 	0.051833
38.91 	0.058128 	4903 	0.057291
38.93 	0.056096 	4938 	0.054316
38.95 	0.050224 	4918 	0.049747
38.97 	0.054553 	4931 	0.053484
38.99 	0.048613 	4937 	0.048019
39.01 	0.045750 	4918 	0.045274
39.03 	0.051277 	4934 	0.050802
39.05 	0.052183 	4925 	0.051350
39.07 	0.049553 	4924 	0.049434
39.09 	0.050376 	4923 	0.050019
39.11 	0.049280 	4931 	0.048805
39.13 	0.046516 	4923 	0.046159
39.15 	0.047813 	4915 	0.046979
39.17 	0.050030 	4937 	0.049081
39.19 	0.051251 	4917 	0.050159
39.21 	0.048269 	4910 	0.047295
39.23 	0.044061 	4925 	0.043447
39.25 	0.051402 	4922 	0.050688
39.27 	0.049287 	4910 	0.048571
39.29 	0.050806 	4901 	0.049850
39.31 	0.041155 	4884 	0.040795
39.33 	0.041574 	4931 	0.040980
39.35 	0.044174 	4935 	0.043581
39.37 	0.046054 	4929 	0.045579
39.39 	0.047068 	4929 	0.046593
39.41 	0.042791 	4931 	0.042197
39.43 	0.042976 	4933 	0.042620
39.45 	0.043655 	4925 	0.043298
39.47 	0.043876 	4923 	0.043638
39.49 	0.047841 	4933 	0.047366
39.51 	0.048335 	4924 	0.048216
39.53 	0.048141 	4923 	0.047427
39.55 	0.040455 	4919 	0.040098
39.57 	0.045408 	4933 	0.045290
39.59 	0.043770 	4912 	0.043293
39.61 	0.041641 	4923 	0.041046
39.63 	0.044697 	4922 	0.043983
39.65 	0.046894 	4926 	0.046062
39.67 	0.047629 	4913 	0.047033
39.69 	0.051668 	4916 	0.050576
39.71 	0.043922 	4895 	0.043324
39.73 	0.043806 	4908 	0.043448
39.75 	0.046672 	4928 	0.045602
39.77 	0.045390 	4935 	0.045034
39.79 	0.048721 	4926 	0.048602
39.81 	0.043231 	4927 	0.042280
39.83 	0.044183 	4934 	0.043590
39.85 	0.047493 	4927 	0.046899
39.87 	0.044873 	4925 	0.044397
39.89 	0.044994 	4934 	0.044519
39.91 	0.045916 	4922 	0.045083
39.93 	0.045574 	4937 	0.044744
39.95 	0.050254 	4915 	0.049182
39.97 	0.047078 	4928 	0.046365
39.99 	0.045823 	4932 	0.045229
40.01 	0.039040 	4918 	0.038802
40.03 	0.039367 	4928 	0.039129
40.05 	0.048403 	4917 	0.047570
40.07 	0.050579 	4923 	0.050222
40.09 	0.042921 	4916 	0.042444
40.11 	0.042921 	4916 	0.042325
40.13 	0.047181 	4896 	0.046703
40.15 	0.043965 	4913 	0.043250
40.17 	0.044237 	4928 	0.043762
40.19 	0.044228 	4929 	0.043515
40.21 	0.049037 	4935 	0.048088
40.23 	0.038727 	4932 	0.038014
40.25 	0.038821 	4920 	0.038226
40.27 	0.041321 	4937 	0.041083
40.29 	0.046073 	4927 	0.045359
40.31 	0.043126 	4939 	0.042652
40.33 	0.046026 	4932 	0.045670
40.35 	0.042895 	4919 	0.042419
40.37 	0.047880 	4929 	0.046810
40.39 	0.041168 	4931 	0.040931
40.41 	0.045685 	4925 	0.045210
40.43 	0.050183 	4922 	0.049112
40.45 	0.045814 	4933 	0.045220
40.47 	0.047784 	4918 	0.046831
40.49 	0.035729 	4926 	0.035253
40.51 	0.038805 	4922 	0.038448
40.53 	0.044955 	4916 	0.044598
40.55 	0.044010 	4908 	0.043532
40.57 	0.045399 	4890 	0.045039
40.59 	0.048613 	4937 	0.048019
40.61 	0.039514 	4935 	0.039514
40.63 	0.047465 	4930 	0.046870
40.65 	0.050435 	4937 	0.049348
40.67 	0.040957 	4932 	0.040719
40.69 	0.047802 	4937 	0.046853
40.71 	0.043796 	4932 	0.042964
40.73 	0.042631 	4926 	0.042274
40.75 	0.041371 	4931 	0.040777
40.77 	0.044138 	4939 	0.043071
40.79 	0.044679 	4924 	0.044441
40.81 	0.046347 	4941 	0.045873
40.83 	0.044440 	4928 	0.043846
40.85 	0.047929 	4924 	0.046977
40.87 	0.042005 	4928 	0.041411
40.89 	0.041371 	4931 	0.040896
40.91 	0.039204 	4923 	0.038728
40.93 	0.048845 	4934 	0.048370
40.95 	0.043761 	4913 	0.043404
40.97 	0.041430 	4924 	0.040954
40.99 	0.040617 	4924 	0.039785
41.01 	0.040309 	4912 	0.039832
41.03 	0.041794 	4905 	0.040839
41.05 	0.042950 	4936 	0.042475
41.07 	0.042394 	4930 	0.042037
41.09 	0.040899 	4939 	0.040780
41.11 	0.042553 	4935 	0.041841
41.13 	0.044773 	4936 	0.044536
41.15 	0.041894 	4941 	0.041539
41.17 	0.043373 	4934 	0.042779
41.19 	0.039757 	4930 	0.039400
41.21 	0.042333 	4937 	0.042096
41.23 	0.040696 	4939 	0.039866
41.25 	0.042976 	4933 	0.042382
41.27 	0.038329 	4931 	0.037735
41.29 	0.042005 	4928 	0.041510
41.31 	0.039530 	4933 	0.039173
41.33 	0.044156 	4937 	0.043444
41.35 	0.042730 	4938 	0.041781
41.37 	0.039399 	4924 	0.039280
41.39 	0.045611 	4933 	0.045255
41.41 	0.044052 	4926 	0.043814
41.43 	0.039359 	4929 	0.039002
41.45 	0.038665 	4914 	0.038307
41.47 	0.039586 	4926 	0.039110
41.49 	0.043745 	4892 	0.043026
41.51 	0.046761 	4940 	0.046405
41.53 	0.038835 	4944 	0.038479
41.55 	0.041337 	4935 	0.040981
41.57 	0.036227 	4941 	0.035872
41.59 	0.045003 	4933 	0.044172
41.61 	0.044418 	4953 	0.043826
41.63 	0.043945 	4938 	0.043352
41.65 	0.042808 	4929 	0.042451
41.67 	0.042510 	4940 	0.042036
41.69 	0.042450 	4947 	0.042095
41.71 	0.041548 	4934 	0.040836
41.73 	0.035656 	4936 	0.035419
41.75 	0.041996 	4929 	0.041640
41.77 	0.039668 	4941 	0.038957
41.79 	0.038430 	4944 	0.038075
41.81 	0.039100 	4936 	0.038744
41.83 	0.043019 	4928 	0.042069
41.85 	0.045961 	4939 	0.044893
41.87 	0.048227 	4935 	0.047990
41.89 	0.038922 	4933 	0.038447
41.91 	0.039708 	4936 	0.039234
41.93 	0.040349 	4932 	0.039755
41.95 	0.040965 	4931 	0.040609
41.97 	0.039479 	4914 	0.039241
41.99 	0.043425 	4905 	0.042589
42.01 	0.046945 	4942 	0.046233
42.03 	0.039279 	4939 	0.038805
42.05 	0.041397 	4952 	0.040451
42.07 	0.041726 	4937 	0.041132
42.09 	0.039208 	4948 	0.038616
42.11 	0.035996 	4945 	0.035759
42.13 	0.035996 	4945 	0.035759
42.15 	0.035439 	4938 	0.035321
42.17 	0.034364 	4918 	0.033887
42.19 	0.037694 	4908 	0.037336
42.21 	0.040604 	4901 	0.040126
42.23 	0.041292 	4892 	0.040573
42.25 	0.046226 	4889 	0.045148
42.27 	0.040829 	4874 	0.040468
42.29 	0.045856 	4863 	0.045375
42.31 	0.043872 	4855 	0.043028
42.33 	0.041787 	4834 	0.041303
42.35 	0.044647 	4838 	0.044142
42.37 	0.042236 	4830 	0.041993
42.39 	0.040383 	4804 	0.040017
42.41 	0.035803 	4804 	0.035194
42.43 	0.042988 	4792 	0.042744
42.45 	0.037898 	4776 	0.037407
42.47 	0.038825 	4765 	0.037964
42.49 	0.038825 	4765 	0.038210
42.51 	0.038794 	4743 	0.038794
42.53 	0.046531 	4728 	0.046160
42.55 	0.043331 	4708 	0.042957
42.57 	0.039112 	4730 	0.038121
42.59 	0.040812 	4729 	0.040317
42.61 	0.035896 	4708 	0.035523
42.63 	0.032703 	4709 	0.032330
42.65 	0.039274 	4685 	0.039149
42.67 	0.047182 	4684 	0.046557
42.69 	0.040650 	4674 	0.040149
42.71 	0.035385 	4663 	0.035259
42.73 	0.039009 	4640 	0.038377
42.75 	0.040936 	4617 	0.040809
42.77 	0.041304 	4600 	0.040668
42.79 	0.038629 	4582 	0.037862
42.81 	0.043621 	4562 	0.042851
42.83 	0.037037 	4536 	0.036779
42.85 	0.039311 	4528 	0.038513
42.87 	0.038008 	4499 	0.037357
42.89 	0.040625 	4480 	0.040102
42.91 	0.034560 	4456 	0.034429
42.93 	0.040036 	4446 	0.039377
42.95 	0.038496 	4416 	0.037966
42.97 	0.036810 	4401 	0.036544
42.99 	0.040593 	4385 	0.040192
43.01 	0.038047 	4363 	0.037510
43.03 	0.039926 	4333 	0.039791
43.05 	0.036763 	4325 	0.036492
43.07 	0.035382 	4296 	0.035109
43.09 	0.042727 	4283 	0.042317
43.11 	0.044888 	4255 	0.044338
43.13 	0.040595 	4237 	0.040042
43.15 	0.040181 	4206 	0.039206
43.17 	0.040680 	4179 	0.040539
43.19 	0.041965 	4194 	0.041406
43.21 	0.038351 	4172 	0.038047
43.23 	0.038758 	4154 	0.038171
43.25 	0.041838 	4135 	0.041555
43.27 	0.035079 	4105 	0.034508
43.29 	0.041220 	4100 	0.040934
43.31 	0.039225 	4079 	0.038938
43.33 	0.041224 	4051 	0.040188
43.35 	0.033978 	4032 	0.033688
43.37 	0.046326 	4015 	0.046326
43.39 	0.039230 	4002 	0.038938
43.41 	0.041037 	3972 	0.040447
43.43 	0.033838 	3960 	0.033395
43.45 	0.043964 	3935 	0.043369
43.47 	0.034430 	3921 	0.033982
43.49 	0.040544 	3897 	0.040394
43.51 	0.040753 	3877 	0.040300
43.53 	0.037018 	3863 	0.036715
43.55 	0.033063 	2964 	0.033063
43.57 	0.035746 	2238 	0.035484
43.59 	0.033219 	1746 	0.032883
43.61 	0.035529 	1351 	0.035096
43.63 	0.048951 	1001 	0.047195
43.65 	0.021834 	687 	0.021834
43.67 	0.049801 	502 	0.049801
43.69 	0.040872 	367 	0.040872
43.71 	0.029289 	239 	0.029289
43.73 	0.050000 	120 	0.050000
43.75 	0.000000 	16 	0.000000