File: Example_Data/25SC_s1_0029.002.dat
#F C:\frames\spec\25SC_s1_0029.002
#C title =s:29 frm:2 25SC_s1
#C wavelength =0.15406

#S 1  fr_average C:\frames\spec\25SC_s1_0029.002 C:\win32app\speccom\mask.axs chi 0 180 0 360 0.02
#C 2 theta =0.000000 to 180 deg
#C   q   =0.000000 to 81.568 nm^-1
#C  chi  =0.000000 to 360 deg
#C collumns:
#C  1 position (2theta or chi in degrees)
#C  2 average intensity (sum of all counts in the region divided with number of pixels)
#C  3 Number of pixels in region)
#C  4 error (sum of sqrt(intensity) for all pixels divided by number)
#N 4
#L TTh  Int  N_pix  Err
32.99 	0.065574 	61 	0.065574
33.01 	0.074456 	873 	0.073114
33.03 	0.053918 	1391 	0.053497
33.05 	0.051793 	1757 	0.051459
33.07 	0.055610 	2050 	0.054753
33.09 	0.061781 	2347 	0.059535
33.11 	0.054672 	2579 	0.053537
33.13 	0.060150 	2793 	0.059311
33.15 	0.056352 	2999 	0.055766
33.17 	0.056545 	3201 	0.056362
33.19 	0.057750 	3342 	0.056873
33.21 	0.056461 	3436 	0.055268
33.23 	0.065853 	3523 	0.064523
33.25 	0.062016 	3612 	0.060854
33.27 	0.054545 	3630 	0.054061
33.29 	0.060855 	3648 	0.059249
33.31 	0.056284 	3660 	0.054977
33.33 	0.058329 	3686 	0.057057
33.35 	0.057120 	3694 	0.056803
33.37 	0.054389 	3714 	0.053442
33.39 	0.056315 	3729 	0.054744
33.41 	0.055080 	3740 	0.054140
33.43 	0.060090 	3761 	0.058689
33.45 	0.054864 	3773 	0.053777
33.47 	0.061875 	3798 	0.060487
33.49 	0.055133 	3809 	0.054364
33.51 	0.057929 	3815 	0.057161
33.53 	0.061703 	3841 	0.060635
33.55 	0.060630 	3843 	0.060325
33.57 	0.051070 	3877 	0.050592
33.59 	0.055155 	3880 	0.053796
33.61 	0.061141 	3909 	0.060392
33.63 	0.059709 	3919 	0.058962
33.65 	0.060036 	3931 	0.058992
33.67 	0.055387 	3954 	0.054350
33.69 	0.058437 	3953 	0.057399
33.71 	0.059623 	3975 	0.059475
33.73 	0.064935 	4004 	0.064057
33.75 	0.060515 	3999 	0.060222
33.77 	0.058882 	4025 	0.058445
33.79 	0.059639 	4041 	0.058914
33.81 	0.061912 	4038 	0.060896
33.83 	0.053333 	4050 	0.052466
33.85 	0.054160 	4099 	0.053588
33.87 	0.059596 	4111 	0.059169
33.89 	0.053628 	4121 	0.052633
33.91 	0.058568 	4149 	0.056992
33.93 	0.056131 	4151 	0.055425
33.95 	0.059077 	4181 	0.058656
33.97 	0.060859 	4190 	0.059601
33.99 	0.058810 	4200 	0.057833
34.01 	0.055542 	4213 	0.054546
34.03 	0.052780 	4244 	0.051952
34.05 	0.059737 	4252 	0.058772
34.07 	0.055530 	4268 	0.054843
34.09 	0.058329 	4286 	0.057350
34.11 	0.061367 	4302 	0.060550
34.13 	0.061513 	4308 	0.060834
34.15 	0.058647 	4331 	0.057700
34.17 	0.059310 	4350 	0.058098
34.19 	0.063274 	4362 	0.061931
34.21 	0.056280 	4371 	0.055476
34.23 	0.060779 	4393 	0.060112
34.25 	0.055631 	4404 	0.054833
34.27 	0.062189 	4422 	0.061394
34.29 	0.060879 	4435 	0.059955
34.31 	0.055406 	4458 	0.054355
34.33 	0.054798 	4471 	0.053859
34.35 	0.058430 	4484 	0.057907
34.37 	0.058116 	4491 	0.057073
34.39 	0.056641 	4502 	0.055861
34.41 	0.055236 	4526 	0.054330
34.43 	0.055299 	4539 	0.054266
34.45 	0.057111 	4535 	0.056595
34.47 	0.057491 	4592 	0.056981
34.49 	0.058299 	4597 	0.057025
34.51 	0.051238 	4606 	0.050347
34.53 	0.055137 	4643 	0.053981
34.55 	0.056429 	4643 	0.055041
34.57 	0.062446 	4660 	0.061566
34.59 	0.059465 	4675 	0.058463
34.61 	0.054290 	4697 	0.053043
34.63 	0.052229 	4710 	0.051359
34.65 	0.056979 	4721 	0.056359
34.67 	0.051255 	4741 	0.049772
34.69 	0.058477 	4754 	0.057368
34.71 	0.060428 	4766 	0.058830
34.73 	0.046584 	4787 	0.046095
34.75 	0.059276 	4808 	0.058302
34.77 	0.054587 	4818 	0.053857
34.79 	0.054104 	4824 	0.053254
34.81 	0.058824 	4845 	0.058098
34.83 	0.051419 	4862 	0.050696
34.85 	0.057712 	4869 	0.056730
34.87 	0.060189 	4868 	0.058725
34.89 	0.064523 	4882 	0.063203
34.91 	0.059812 	4882 	0.058972
34.93 	0.049398 	4899 	0.048680
34.95 	0.058487 	4890 	0.056929
34.97 	0.062016 	4902 	0.060462
34.99 	0.055748 	4897 	0.054433
35.01 	0.053829 	4923 	0.053353
35.03 	0.060692 	4943 	0.059033
35.05 	0.058419 	4947 	0.056998
35.07 	0.052024 	4940 	0.051313
35.09 	0.049667 	4953 	0.049194
35.11 	0.055387 	4947 	0.054913
35.13 	0.055264 	4958 	0.054673
35.15 	0.057930 	4937 	0.056862
35.17 	0.051557 	4946 	0.050965
35.19 	0.056657 	4942 	0.056164
35.21 	0.056421 	4945 	0.054624
35.23 	0.056218 	4945 	0.055271
35.25 	0.056848 	4943 	0.055881
35.27 	0.062449 	4948 	0.061029
35.29 	0.057432 	4945 	0.056721
35.31 	0.057571 	4933 	0.056265
35.33 	0.054623 	4943 	0.053319
35.35 	0.052813 	4942 	0.052101
35.37 	0.052237 	4939 	0.051526
35.39 	0.059656 	4945 	0.058709
35.41 	0.058262 	4926 	0.057073
35.43 	0.062639 	4933 	0.060858
35.45 	0.052664 	4937 	0.051714
35.47 	0.054756 	4931 	0.053667
35.49 	0.056008 	4910 	0.055054
35.51 	0.052172 	4926 	0.051578
35.53 	0.057385 	4949 	0.056438
35.55 	0.052983 	4945 	0.052489
35.57 	0.055342 	4933 	0.054154
35.59 	0.050556 	4945 	0.050319
35.61 	0.056455 	4942 	0.055388
35.63 	0.061906 	4943 	0.060958
35.65 	0.059252 	4945 	0.057949
35.67 	0.057669 	4942 	0.056958
35.69 	0.053781 	4946 	0.053070
35.71 	0.054487 	4937 	0.053656
35.73 	0.056929 	4936 	0.056098
35.75 	0.051714 	4931 	0.050407
35.77 	0.055746 	4951 	0.054800
35.79 	0.061233 	4932 	0.060164
35.81 	0.057369 	4933 	0.056063
35.83 	0.057622 	4946 	0.056320
35.85 	0.051874 	4935 	0.051043
35.87 	0.052407 	4923 	0.051217
35.89 	0.055736 	4934 	0.055142
35.91 	0.054191 	4927 	0.053121
35.93 	0.053582 	4927 	0.052512
35.95 	0.064063 	4917 	0.063230
35.97 	0.051099 	4912 	0.050742
35.99 	0.061551 	4939 	0.060602
36.01 	0.057404 	4930 	0.056334
36.03 	0.054825 	4943 	0.053877
36.05 	0.059454 	4945 	0.058388
36.07 	0.054869 	4939 	0.053802
36.09 	0.056883 	4940 	0.056053
36.11 	0.047068 	4929 	0.046712
36.13 	0.059288 	4942 	0.057984
36.15 	0.056894 	4939 	0.055333
36.17 	0.055838 	4925 	0.055124
36.19 	0.056073 	4940 	0.055361
36.21 	0.058430 	4929 	0.057598
36.23 	0.059777 	4935 	0.059065
36.25 	0.067193 	4941 	0.065533
36.27 	0.059289 	4925 	0.058338
36.29 	0.062259 	4931 	0.060952
36.31 	0.056412 	4928 	0.055224
36.33 	0.055950 	4933 	0.054505
36.35 	0.059241 	4929 	0.058152
36.37 	0.049766 	4923 	0.049052
36.39 	0.051209 	4921 	0.049900
36.41 	0.052288 	4896 	0.051450
36.43 	0.054383 	4928 	0.053670
36.45 	0.048682 	4930 	0.048325
36.47 	0.057739 	4936 	0.057146
36.49 	0.050384 	4942 	0.049298
36.51 	0.053720 	4933 	0.053007
36.53 	0.057455 	4943 	0.056250
36.55 	0.056018 	4927 	0.055186
36.57 	0.055736 	4934 	0.054667
36.59 	0.054262 	4939 	0.053788
36.61 	0.056581 	4931 	0.055868
36.63 	0.058609 	4931 	0.057421
36.65 	0.058394 	4932 	0.057543
36.67 	0.060446 	4930 	0.059377
36.69 	0.060661 	4929 	0.059473
36.71 	0.052632 	4921 	0.051203
36.73 	0.058274 	4925 	0.056252
36.75 	0.056230 	4944 	0.055400
36.77 	0.047367 	4919 	0.046653
36.79 	0.050803 	4921 	0.050069
36.81 	0.056957 	4916 	0.055646
36.83 	0.052289 	4915 	0.051574
36.85 	0.056350 	4898 	0.055154
36.87 	0.057241 	4944 	0.056056
36.89 	0.053499 	4916 	0.053141
36.91 	0.049787 	4941 	0.048958
36.93 	0.054564 	4930 	0.053376
36.95 	0.052301 	4933 	0.051707
36.97 	0.050872 	4934 	0.050159
36.99 	0.049240 	4935 	0.048528
37.01 	0.060409 	4933 	0.059202
37.03 	0.051584 	4924 	0.050751
37.05 	0.056018 	4927 	0.054829
37.07 	0.051672 	4935 	0.051078
37.09 	0.054992 	4928 	0.054021
37.11 	0.056130 	4935 	0.055536
37.13 	0.053818 	4924 	0.053104
37.15 	0.056223 	4909 	0.055249
37.17 	0.048845 	4934 	0.048014
37.19 	0.052792 	4925 	0.051721
37.21 	0.049420 	4917 	0.048586
37.23 	0.058560 	4918 	0.057469
37.25 	0.051313 	4911 	0.050478
37.27 	0.057213 	4894 	0.055517
37.29 	0.051318 	4930 	0.050487
37.31 	0.050051 	4935 	0.049220
37.33 	0.055612 	4927 	0.054899
37.35 	0.054273 	4938 	0.053205
37.37 	0.055815 	4927 	0.054626
37.39 	0.054147 	4931 	0.053197
37.41 	0.048266 	4931 	0.047672
37.43 	0.054136 	4932 	0.053305
37.45 	0.046101 	4924 	0.045625
37.47 	0.048083 	4929 	0.047607
37.49 	0.050782 	4923 	0.050049
37.51 	0.051490 	4933 	0.050421
37.53 	0.055296 	4919 	0.054939
37.55 	0.050913 	4930 	0.050061
37.57 	0.053604 	4925 	0.052771
37.59 	0.050051 	4915 	0.049455
37.61 	0.055465 	4922 	0.054751
37.63 	0.049604 	4919 	0.048651
37.65 	0.052460 	4918 	0.051746
37.67 	0.053018 	4904 	0.051823
37.69 	0.052879 	4898 	0.052042
37.71 	0.051126 	4929 	0.050532
37.73 	0.051938 	4929 	0.051462
37.75 	0.047571 	4940 	0.046741
37.77 	0.056301 	4920 	0.055706
37.79 	0.049899 	4930 	0.049542
37.81 	0.052706 	4933 	0.052588
37.83 	0.049187 	4920 	0.048592
37.85 	0.054043 	4922 	0.052714
37.87 	0.055679 	4939 	0.054730
37.89 	0.049543 	4925 	0.048948
37.91 	0.052333 	4930 	0.051739
37.93 	0.051433 	4919 	0.051195
37.95 	0.049380 	4921 	0.048309
37.97 	0.051938 	4929 	0.051106
37.99 	0.050285 	4912 	0.049450
38.01 	0.047890 	4928 	0.047176
38.03 	0.055612 	4909 	0.055015
38.05 	0.052183 	4925 	0.050874
38.07 	0.050519 	4909 	0.049684
38.09 	0.046330 	4878 	0.045730
38.11 	0.051874 	4935 	0.050925
38.13 	0.055702 	4937 	0.054871
38.15 	0.056324 	4918 	0.055609
38.17 	0.047870 	4930 	0.047038
38.19 	0.052535 	4930 	0.051704
38.21 	0.058095 	4923 	0.057143
38.23 	0.055691 	4938 	0.054485
38.25 	0.058979 	4917 	0.058026
38.27 	0.058215 	4930 	0.056869
38.29 	0.057880 	4924 	0.056809
38.31 	0.053988 	4927 	0.052423
38.33 	0.055443 	4924 	0.054610
38.35 	0.060877 	4928 	0.059926
38.37 	0.053006 	4924 	0.052054
38.39 	0.055408 	4909 	0.054573
38.41 	0.063376 	4923 	0.062305
38.43 	0.065704 	4916 	0.064393
38.45 	0.065677 	4918 	0.064843
38.47 	0.060933 	4907 	0.059620
38.49 	0.055157 	4877 	0.054176
38.51 	0.061436 	4932 	0.060367
38.53 	0.062690 	4929 	0.061145
38.55 	0.064019 	4936 	0.062833
38.57 	0.061954 	4923 	0.060269
38.59 	0.053209 	4924 	0.052257
38.61 	0.064627 	4936 	0.063559
38.63 	0.057880 	4924 	0.057285
38.65 	0.057340 	4918 	0.056149
38.67 	0.059145 	4937 	0.058315
38.69 	0.056887 	4922 	0.055578
38.71 	0.057474 	4924 	0.056879
38.73 	0.052867 	4918 	0.052271
38.75 	0.052567 	4927 	0.052092
38.77 	0.057079 	4923 	0.056246
38.79 	0.053912 	4934 	0.052962
38.81 	0.045195 	4912 	0.044838
38.83 	0.057939 	4919 	0.056867
38.85 	0.057207 	4912 	0.056134
38.87 	0.051517 	4911 	0.050443
38.89 	0.051256 	4897 	0.050538
38.91 	0.049358 	4903 	0.048760
38.93 	0.047590 	4938 	0.046878
38.95 	0.044124 	4918 	0.043885
38.97 	0.047049 	4931 	0.046455
38.99 	0.048410 	4937 	0.047817
39.01 	0.043514 	4918 	0.042323
39.03 	0.048845 	4934 	0.048370
39.05 	0.047919 	4925 	0.047443
39.07 	0.047522 	4924 	0.046690
39.09 	0.052610 	4923 	0.052015
39.11 	0.049077 	4931 	0.048008
39.13 	0.044485 	4923 	0.043890
39.15 	0.045371 	4915 	0.044775
39.17 	0.052258 	4937 	0.050904
39.19 	0.044539 	4917 	0.044420
39.21 	0.045825 	4910 	0.044751
39.23 	0.049137 	4925 	0.048186
39.25 	0.045104 	4922 	0.044985
39.27 	0.047862 	4910 	0.047484
39.29 	0.048153 	4901 	0.047795
39.31 	0.045250 	4884 	0.044890
39.33 	0.046846 	4931 	0.046015
39.35 	0.046606 	4935 	0.045656
39.37 	0.044837 	4929 	0.044124
39.39 	0.049503 	4929 	0.048909
39.41 	0.046644 	4931 	0.045693
39.43 	0.046422 	4933 	0.046185
39.45 	0.049137 	4925 	0.048423
39.47 	0.048954 	4923 	0.048716
39.49 	0.046625 	4933 	0.045794
39.51 	0.043461 	4924 	0.042033
39.53 	0.045704 	4923 	0.045109
39.55 	0.052246 	4919 	0.051294
39.57 	0.041962 	4933 	0.041012
39.59 	0.044788 	4912 	0.043834
39.61 	0.049970 	4923 	0.049018
39.63 	0.043478 	4922 	0.043240
39.65 	0.045879 	4926 	0.045284
39.67 	0.050478 	4913 	0.049405
39.69 	0.046379 	4916 	0.045545
39.71 	0.051073 	4895 	0.050355
39.73 	0.048289 	4908 	0.047334
39.75 	0.048093 	4928 	0.047855
39.77 	0.043566 	4935 	0.043210
39.79 	0.044255 	4926 	0.043660
39.81 	0.042622 	4927 	0.042028
39.83 	0.042967 	4934 	0.042611
39.85 	0.048305 	4927 	0.047116
39.87 	0.044873 	4925 	0.044397
39.89 	0.045602 	4934 	0.045246
39.91 	0.045104 	4922 	0.043913
39.93 	0.044359 	4937 	0.043766
39.95 	0.043744 	4915 	0.042771
39.97 	0.046672 	4928 	0.046315
39.99 	0.041363 	4932 	0.041006
40.01 	0.047377 	4918 	0.046901
40.03 	0.044237 	4928 	0.043999
40.05 	0.042709 	4917 	0.042590
40.07 	0.043673 	4923 	0.043435
40.09 	0.046583 	4916 	0.045252
40.11 	0.046379 	4916 	0.045903
40.13 	0.044322 	4896 	0.043963
40.15 	0.048850 	4913 	0.048135
40.17 	0.044237 	4928 	0.043286
40.19 	0.043417 	4929 	0.043179
40.21 	0.044985 	4935 	0.044866
40.23 	0.046634 	4932 	0.046397
40.25 	0.045528 	4920 	0.044814
40.27 	0.036054 	4937 	0.035679
40.29 	0.044652 	4927 	0.043939
40.31 	0.044948 	4939 	0.043881
40.33 	0.035483 	4932 	0.034889
40.35 	0.043911 	4919 	0.043673
40.37 	0.043011 	4929 	0.042535
40.39 	0.044210 	4931 	0.043735
40.41 	0.047310 	4925 	0.046715
40.43 	0.043072 	4922 	0.042596
40.45 	0.041962 	4933 	0.041250
40.47 	0.044530 	4918 	0.043816
40.49 	0.047300 	4926 	0.047062
40.51 	0.035351 	4922 	0.034975
40.53 	0.042921 	4916 	0.042564
40.55 	0.041972 	4908 	0.041734
40.57 	0.042740 	4890 	0.042141
40.59 	0.041118 	4937 	0.040999
40.61 	0.039514 	4935 	0.039158
40.63 	0.044828 	4930 	0.044709
40.65 	0.042131 	4937 	0.041538
40.67 	0.036699 	4932 	0.036343
40.69 	0.042536 	4937 	0.041943
40.71 	0.044809 	4932 	0.043978
40.73 	0.043646 	4926 	0.043051
40.75 	0.044210 	4931 	0.043735
40.77 	0.042519 	4939 	0.041926
40.79 	0.044070 	4924 	0.043832
40.81 	0.040882 	4941 	0.039934
40.83 	0.042208 	4928 	0.041970
40.85 	0.041633 	4924 	0.041514
40.87 	0.038149 	4928 	0.037555
40.89 	0.040763 	4931 	0.040169
40.91 	0.046313 	4923 	0.045361
40.93 	0.042764 	4934 	0.041933
40.95 	0.033991 	4913 	0.033872
40.97 	0.038587 	4924 	0.038349
40.99 	0.046913 	4924 	0.046437
41.01 	0.041735 	4912 	0.041258
41.03 	0.042202 	4905 	0.041366
41.05 	0.045583 	4936 	0.044990
41.07 	0.040568 	4930 	0.040093
41.09 	0.039482 	4939 	0.038751
41.11 	0.043566 	4935 	0.043092
41.13 	0.037075 	4936 	0.036719
41.15 	0.043311 	4941 	0.042600
41.17 	0.039522 	4934 	0.039047
41.19 	0.039351 	4930 	0.038757
41.21 	0.037472 	4937 	0.037235
41.23 	0.039887 	4939 	0.039294
41.25 	0.039530 	4933 	0.038817
41.27 	0.042588 	4931 	0.041994
41.29 	0.041599 	4928 	0.040648
41.31 	0.043179 	4933 	0.042704
41.33 	0.035649 	4937 	0.035293
41.35 	0.041717 	4938 	0.041243
41.37 	0.046710 	4924 	0.045877
41.39 	0.041760 	4933 	0.041166
41.41 	0.042428 	4926 	0.041833
41.43 	0.035707 	4929 	0.035331
41.45 	0.045177 	4914 	0.044700
41.47 	0.035120 	4926 	0.034525
41.49 	0.038021 	4892 	0.037782
41.51 	0.043725 	4940 	0.043132
41.53 	0.045510 	4944 	0.045154
41.55 	0.038501 	4935 	0.038263
41.57 	0.037239 	4941 	0.036765
41.59 	0.040949 	4933 	0.039979
41.61 	0.038361 	4953 	0.037769
41.63 	0.041312 	4938 	0.040956
41.65 	0.040982 	4929 	0.040625
41.67 	0.038866 	4940 	0.038511
41.69 	0.038003 	4947 	0.037766
41.71 	0.039319 	4934 	0.038844
41.73 	0.038493 	4936 	0.037662
41.75 	0.039156 	4929 	0.038562
41.77 	0.036835 	4941 	0.036104
41.79 	0.033576 	4944 	0.033221
41.81 	0.038695 	4936 	0.038339
41.83 	0.036120 	4928 	0.036120
41.85 	0.037255 	4939 	0.036899
41.87 	0.040729 	4935 	0.040373
41.89 	0.039124 	4933 	0.038768
41.91 	0.043355 	4936 	0.042999
41.93 	0.043998 	4932 	0.043405
41.95 	0.038126 	4931 	0.038007
41.97 	0.037648 	4914 	0.037528
41.99 	0.039348 	4905 	0.038989
42.01 	0.038648 	4942 	0.038174
42.03 	0.034015 	4939 	0.033541
42.05 	0.040994 	4952 	0.040639
42.07 	0.041726 	4937 	0.041370
42.09 	0.038804 	4948 	0.038448
42.11 	0.039232 	4945 	0.038995
42.13 	0.044894 	4945 	0.044302
42.15 	0.035237 	4938 	0.035118
42.17 	0.040260 	4918 	0.039546
42.19 	0.040342 	4908 	0.039746
42.21 	0.042440 	4901 	0.042321
42.23 	0.033933 	4892 	0.033813
42.25 	0.038045 	4889 	0.037685
42.27 	0.037751 	4874 	0.037150
42.29 	0.044417 	4863 	0.043935
42.31 	0.036663 	4855 	0.036181
42.33 	0.036202 	4834 	0.035838
42.35 	0.037205 	4838 	0.036600
42.37 	0.036025 	4830 	0.035661
42.39 	0.039342 	4804 	0.039220
42.41 	0.037052 	4804 	0.036321
42.43 	0.038815 	4792 	0.038570
42.45 	0.038526 	4776 	0.038035
42.47 	0.041553 	4765 	0.041061
42.49 	0.038825 	4765 	0.038579
42.51 	0.040270 	4743 	0.039776
42.53 	0.041667 	4728 	0.041047
42.55 	0.039082 	4708 	0.038958
42.57 	0.042283 	4730 	0.042036
42.59 	0.039543 	4729 	0.038800
42.61 	0.038020 	4708 	0.037523
42.63 	0.039286 	4709 	0.039038
42.65 	0.035005 	4685 	0.034505
42.67 	0.040137 	4684 	0.039491
42.69 	0.036157 	4674 	0.035907
42.71 	0.035385 	4663 	0.034882
42.73 	0.037931 	4640 	0.037426
42.75 	0.041802 	4617 	0.041421
42.77 	0.039130 	4600 	0.039003
42.79 	0.043867 	4582 	0.043739
42.81 	0.032442 	4562 	0.031928
42.83 	0.036596 	4536 	0.036080
42.85 	0.033569 	4528 	0.033569
42.87 	0.038675 	4499 	0.038415
42.89 	0.039732 	4480 	0.039340
42.91 	0.037478 	4456 	0.037346
42.93 	0.037562 	4446 	0.037035
42.95 	0.036911 	4416 	0.036381
42.97 	0.037264 	4401 	0.036732
42.99 	0.038084 	4385 	0.037550
43.01 	0.041485 	4363 	0.040948
43.03 	0.036695 	4333 	0.036154
43.05 	0.043931 	4325 	0.043524
43.07 	0.039804 	4296 	0.039395
43.09 	0.042260 	4283 	0.041850
43.11 	0.037133 	4255 	0.036444
43.13 	0.035402 	4237 	0.035264
43.15 	0.036852 	4206 	0.036852
43.17 	0.030869 	4179 	0.030728
43.19 	0.043872 	4194 	0.043453
43.21 	0.036194 	4172 	0.035772
43.23 	0.037554 	4154 	0.037272
43.25 	0.034583 	4135 	0.034441
43.27 	0.035323 	4105 	0.035037
43.29 	0.038537 	4100 	0.037965
43.31 	0.040941 	4079 	0.040654
43.33 	0.041965 	4051 	0.041242
43.35 	0.039187 	4032 	0.039187
43.37 	0.040847 	4015 	0.040847
43.39 	0.040730 	4002 	0.040437
43.41 	0.033233 	3972 	0.032790
43.43 	0.032071 	3960 	0.031627
43.45 	0.037865 	3935 	0.037419
43.47 	0.041826 	3921 	0.041378
43.49 	0.040544 	3897 	0.039792
43.51 	0.038690 	3877 	0.038539
43.53 	0.037536 	3863 	0.037081
43.55 	0.041161 	2964 	0.040370
43.57 	0.035746 	2238 	0.035223
43.59 	0.040664 	1746 	0.038987
43.61 	0.040711 	1351 	0.040277
43.63 	0.040959 	1001 	0.040959
43.65 	0.042213 	687 	0.042213
43.67 	0.023904 	502 	0.023904
43.69 	0.040872 	367 	0.040872
43.71 	0.058577 	239 	0.058577
43.73 	0.033333 	120 	0.033333
43.75 	0.000000 	16 	0.000000