File: Example_Data/25SC_s1_0050.003.dat
#F C:\frames\spec\25SC_s1_0050.003
#C title =s:50 frm:3 25SC_s1
#C wavelength =0.15406

#S 1  fr_average C:\frames\spec\25SC_s1_0050.003 C:\win32app\speccom\mask.axs chi 0 180 0 360 0.02
#C 2 theta =0.000000 to 180 deg
#C   q   =0.000000 to 81.568 nm^-1
#C  chi  =0.000000 to 360 deg
#C collumns:
#C  1 position (2theta or chi in degrees)
#C  2 average intensity (sum of all counts in the region divided with number of pixels)
#C  3 Number of pixels in region)
#C  4 error (sum of sqrt(intensity) for all pixels divided by number)
#N 4
#L TTh  Int  N_pix  Err
32.99 	0.081967 	61 	0.081967
33.01 	0.054983 	873 	0.051517
33.03 	0.071891 	1391 	0.071470
33.05 	0.072851 	1757 	0.071851
33.07 	0.058537 	2050 	0.056822
33.09 	0.063911 	2347 	0.063412
33.11 	0.059713 	2579 	0.058123
33.13 	0.051199 	2793 	0.050745
33.15 	0.061687 	2999 	0.060711
33.17 	0.055295 	3201 	0.054563
33.19 	0.061939 	3342 	0.060361
33.21 	0.050640 	3436 	0.049788
33.23 	0.063298 	3523 	0.062633
33.25 	0.052602 	3612 	0.052278
33.27 	0.052342 	3630 	0.051212
33.29 	0.070175 	3648 	0.068088
33.31 	0.057923 	3660 	0.056643
33.33 	0.058329 	3686 	0.057190
33.35 	0.059285 	3694 	0.057858
33.37 	0.058158 	3714 	0.057527
33.39 	0.063288 	3729 	0.062659
33.41 	0.052674 	3740 	0.051891
33.43 	0.059293 	3761 	0.058981
33.45 	0.057779 	3773 	0.056692
33.47 	0.058452 	3798 	0.057064
33.49 	0.062746 	3809 	0.061977
33.51 	0.063172 	3815 	0.061329
33.53 	0.057277 	3841 	0.056514
33.55 	0.062972 	3843 	0.061752
33.57 	0.059582 	3877 	0.058525
33.59 	0.064433 	3880 	0.063074
33.61 	0.063955 	3909 	0.062606
33.63 	0.059454 	3919 	0.057636
33.65 	0.055202 	3931 	0.054755
33.67 	0.055640 	3954 	0.055344
33.69 	0.063749 	3953 	0.061823
33.71 	0.064403 	3975 	0.063076
33.73 	0.057193 	4004 	0.056022
33.75 	0.053013 	3999 	0.051988
33.77 	0.060124 	4025 	0.059397
33.79 	0.058896 	4041 	0.057882
33.81 	0.062655 	4038 	0.061494
33.83 	0.062963 	4050 	0.061372
33.85 	0.064894 	4099 	0.064179
33.87 	0.054245 	4111 	0.053675
33.89 	0.062121 	4121 	0.061126
33.91 	0.063148 	4149 	0.062301
33.93 	0.057095 	4151 	0.055825
33.95 	0.063382 	4181 	0.062121
33.97 	0.059189 	4190 	0.058490
33.99 	0.056429 	4200 	0.055871
34.01 	0.059340 	4213 	0.058089
34.03 	0.061499 	4244 	0.060256
34.05 	0.065616 	4252 	0.064790
34.07 	0.057404 	4268 	0.056031
34.09 	0.060429 	4286 	0.059450
34.11 	0.056485 	4302 	0.055668
34.13 	0.061978 	4308 	0.060482
34.15 	0.061649 	4331 	0.059890
34.17 	0.060920 	4350 	0.059708
34.19 	0.051811 	4362 	0.051140
34.21 	0.057881 	4371 	0.055581
34.23 	0.062144 	4393 	0.061211
34.25 	0.061989 	4404 	0.061058
34.27 	0.061963 	4422 	0.060087
34.29 	0.058174 	4435 	0.056853
34.31 	0.063033 	4458 	0.061719
34.33 	0.057929 	4471 	0.056881
34.35 	0.058430 	4484 	0.057516
34.37 	0.056558 	4491 	0.055645
34.39 	0.054198 	4502 	0.052767
34.41 	0.053248 	4526 	0.052989
34.43 	0.061908 	4539 	0.060101
34.45 	0.058655 	4535 	0.057880
34.47 	0.059016 	4592 	0.058505
34.49 	0.057864 	4597 	0.056844
34.51 	0.058185 	4606 	0.057295
34.53 	0.055998 	4643 	0.055241
34.55 	0.062460 	4643 	0.061450
34.57 	0.054721 	4660 	0.052710
34.59 	0.060963 	4675 	0.060211
34.61 	0.058335 	4697 	0.056839
34.63 	0.052866 	4710 	0.051747
34.65 	0.056768 	4721 	0.056644
34.67 	0.063067 	4741 	0.061708
34.69 	0.057215 	4754 	0.056599
34.71 	0.058540 	4766 	0.057679
34.73 	0.054105 	4787 	0.053493
34.75 	0.060108 	4808 	0.059499
34.77 	0.060814 	4818 	0.059598
34.79 	0.062189 	4824 	0.061096
34.81 	0.062745 	4845 	0.061778
34.83 	0.063348 	4862 	0.062023
34.85 	0.060793 	4869 	0.059690
34.87 	0.056491 	4868 	0.055529
34.89 	0.057354 	4882 	0.056034
34.91 	0.064318 	4882 	0.063218
34.93 	0.061849 	4899 	0.061132
34.95 	0.051534 	4890 	0.050077
34.97 	0.063647 	4902 	0.061955
34.99 	0.054932 	4897 	0.053735
35.01 	0.049970 	4923 	0.049137
35.03 	0.055837 	4943 	0.055007
35.05 	0.061654 	4947 	0.060568
35.07 	0.059312 	4940 	0.058126
35.09 	0.058954 	4953 	0.057771
35.11 	0.056802 	4947 	0.055500
35.13 	0.057685 	4958 	0.056858
35.15 	0.064209 	4937 	0.062528
35.17 	0.060655 	4946 	0.059589
35.19 	0.061109 	4942 	0.059924
35.21 	0.055612 	4945 	0.054664
35.23 	0.055410 	4945 	0.054462
35.25 	0.061906 	4943 	0.061076
35.27 	0.063460 	4948 	0.062039
35.29 	0.066127 	4945 	0.065417
35.31 	0.059193 	4933 	0.058599
35.33 	0.061299 	4943 	0.059976
35.35 	0.055848 	4942 	0.055018
35.37 	0.063576 	4939 	0.062627
35.39 	0.064307 	4945 	0.063123
35.41 	0.058668 	4926 	0.057122
35.43 	0.058382 	4933 	0.057432
35.45 	0.058740 	4937 	0.057554
35.47 	0.059826 	4931 	0.058756
35.49 	0.068635 	4910 	0.067562
35.51 	0.057856 	4926 	0.057143
35.53 	0.058396 	4949 	0.057804
35.55 	0.055410 	4945 	0.054699
35.57 	0.062437 	4933 	0.061724
35.59 	0.055005 	4945 	0.053584
35.61 	0.057871 	4942 	0.056904
35.63 	0.052195 	4943 	0.051484
35.65 	0.059454 	4945 	0.058625
35.67 	0.056860 	4942 	0.055793
35.69 	0.063486 	4946 	0.062163
35.71 	0.060766 	4937 	0.059579
35.73 	0.058549 	4936 	0.057956
35.75 	0.057392 	4931 	0.056679
35.77 	0.058574 	4951 	0.057627
35.79 	0.053731 	4932 	0.052662
35.81 	0.056761 	4933 	0.055692
35.83 	0.055600 	4946 	0.055008
35.85 	0.058764 	4935 	0.057814
35.87 	0.058907 	4923 	0.057579
35.89 	0.057965 	4934 	0.056877
35.91 	0.063730 	4927 	0.062898
35.93 	0.055815 	4927 	0.054864
35.95 	0.059589 	4917 	0.058994
35.97 	0.058428 	4912 	0.057236
35.99 	0.057704 	4939 	0.057111
36.01 	0.063286 	4930 	0.062573
36.03 	0.055230 	4943 	0.054400
36.05 	0.060465 	4945 	0.060228
36.07 	0.059324 	4939 	0.058375
36.09 	0.055466 	4940 	0.054991
36.11 	0.058227 	4929 	0.057751
36.13 	0.051599 	4942 	0.050769
36.15 	0.052440 	4939 	0.051965
36.17 	0.057259 	4925 	0.056188
36.19 	0.051619 	4940 	0.050315
36.21 	0.058430 	4929 	0.056865
36.23 	0.053090 	4935 	0.052378
36.25 	0.058490 	4941 	0.057305
36.27 	0.054619 	4925 	0.053787
36.29 	0.058406 	4931 	0.057574
36.31 	0.061282 	4928 	0.060213
36.33 	0.058990 	4933 	0.057803
36.35 	0.054575 	4929 	0.053486
36.37 	0.061142 	4923 	0.060547
36.39 	0.061979 	4921 	0.060293
36.41 	0.057598 	4896 	0.056761
36.43 	0.058644 	4928 	0.057694
36.45 	0.049493 	4930 	0.048899
36.47 	0.051661 	4936 	0.050593
36.49 	0.054027 	4942 	0.052604
36.51 	0.054733 	4933 	0.054258
36.53 	0.049970 	4943 	0.049259
36.55 	0.051350 	4927 	0.050636
36.57 	0.056749 	4934 	0.055918
36.59 	0.059526 	4939 	0.058577
36.61 	0.052119 	4931 	0.051050
36.63 	0.056986 	4931 	0.055917
36.65 	0.052717 	4932 	0.052361
36.67 	0.057201 	4930 	0.055874
36.69 	0.055184 	4929 	0.054233
36.71 	0.053648 	4921 	0.052933
36.73 	0.046091 	4925 	0.045497
36.75 	0.052994 	4944 	0.052164
36.77 	0.055702 	4919 	0.055226
36.79 	0.059947 	4921 	0.058519
36.81 	0.056143 	4916 	0.055289
36.83 	0.051882 	4915 	0.051048
36.85 	0.061045 	4898 	0.060447
36.87 	0.051578 	4944 	0.050472
36.89 	0.052278 	4916 	0.051206
36.91 	0.057073 	4941 	0.055414
36.93 	0.054158 	4930 	0.053564
36.95 	0.053720 	4933 	0.053126
36.97 	0.053304 	4934 	0.052334
36.99 	0.050861 	4935 	0.050149
37.01 	0.055950 	4933 	0.055099
37.03 	0.058083 	4924 	0.057012
37.05 	0.052162 	4927 	0.051329
37.07 	0.049645 	4935 	0.049171
37.09 	0.059253 	4928 	0.058302
37.11 	0.060182 	4935 	0.059589
37.13 	0.058895 	4924 	0.057706
37.15 	0.058668 	4909 	0.058429
37.17 	0.054114 	4934 	0.053521
37.19 	0.061929 	4925 	0.060264
37.21 	0.059182 	4917 	0.057872
37.23 	0.057340 	4918 	0.056268
37.25 	0.052739 	4911 	0.051904
37.27 	0.052718 	4894 	0.051880
37.29 	0.057606 	4930 	0.056418
37.31 	0.057143 	4935 	0.056431
37.33 	0.050944 	4927 	0.050468
37.35 	0.054881 	4938 	0.053931
37.37 	0.056830 	4927 	0.055641
37.39 	0.052322 	4931 	0.051966
37.41 	0.053944 	4931 	0.053113
37.43 	0.062044 	4932 	0.060619
37.45 	0.051990 	4924 	0.051157
37.47 	0.055792 	4929 	0.054960
37.49 	0.058298 	4923 	0.056989
37.51 	0.049463 	4933 	0.048394
37.53 	0.052246 	4919 	0.051175
37.55 	0.050710 	4930 	0.049878
37.57 	0.049949 	4925 	0.049097
37.59 	0.048220 	4915 	0.047743
37.61 	0.057903 	4922 	0.057070
37.63 	0.054076 	4919 	0.052528
37.65 	0.045954 	4918 	0.045358
37.67 	0.050979 	4904 	0.050143
37.69 	0.057370 	4898 	0.056055
37.71 	0.053763 	4929 	0.053169
37.73 	0.052140 	4929 	0.050952
37.75 	0.048583 	4940 	0.048109
37.77 	0.050610 	4920 	0.050134
37.79 	0.046856 	4930 	0.046024
37.81 	0.052909 	4933 	0.052078
37.83 	0.053049 	4920 	0.051581
37.85 	0.051605 	4922 	0.050534
37.87 	0.045151 	4939 	0.044558
37.89 	0.054416 	4925 	0.053346
37.91 	0.052738 	4930 	0.051788
37.93 	0.052856 	4919 	0.052241
37.95 	0.048974 	4921 	0.048260
37.97 	0.055995 	4929 	0.055044
37.99 	0.055171 	4912 	0.054694
38.01 	0.058239 	4928 	0.057288
38.03 	0.053575 	4909 	0.052620
38.05 	0.051777 	4925 	0.050825
38.07 	0.050112 	4909 	0.049515
38.09 	0.053506 	4878 	0.052665
38.11 	0.057751 	4935 	0.057039
38.13 	0.053474 	4937 	0.051931
38.15 	0.048597 	4918 	0.048001
38.17 	0.054970 	4930 	0.053663
38.19 	0.052738 	4930 	0.051550
38.21 	0.057892 	4923 	0.056583
38.23 	0.055286 	4938 	0.054218
38.25 	0.061013 	4917 	0.060179
38.27 	0.051724 	4930 	0.050774
38.29 	0.054224 	4924 	0.053510
38.31 	0.051350 	4927 	0.050280
38.33 	0.062348 	4924 	0.061158
38.35 	0.061485 	4928 	0.060772
38.37 	0.058489 	4924 	0.057537
38.39 	0.061520 	4909 	0.061042
38.41 	0.060938 	4923 	0.059491
38.43 	0.064280 	4916 	0.063446
38.45 	0.062830 	4918 	0.061977
38.47 	0.063786 	4907 	0.062473
38.49 	0.070535 	4877 	0.068974
38.51 	0.059813 	4932 	0.058388
38.53 	0.061879 	4929 	0.060928
38.55 	0.062196 	4936 	0.061247
38.57 	0.059517 	4923 	0.058089
38.59 	0.055037 	4924 	0.053609
38.61 	0.060778 	4936 	0.059591
38.63 	0.067222 	4924 	0.066508
38.65 	0.057950 	4918 	0.057117
38.67 	0.058740 	4937 	0.057554
38.69 	0.056684 	4922 	0.056089
38.71 	0.052600 	4924 	0.051886
38.73 	0.049207 	4918 	0.048373
38.75 	0.052973 	4927 	0.052022
38.77 	0.051391 	4923 	0.051034
38.79 	0.055533 	4934 	0.054583
38.81 	0.055578 	4912 	0.054247
38.83 	0.055296 	4919 	0.054819
38.85 	0.053135 	4912 	0.051943
38.87 	0.048259 	4911 	0.047782
38.89 	0.049622 	4897 	0.049144
38.91 	0.047114 	4903 	0.046517
38.93 	0.046375 	4938 	0.045901
38.95 	0.053884 	4918 	0.053526
38.97 	0.053133 	4931 	0.051708
38.99 	0.046587 	4937 	0.045994
39.01 	0.053070 	4918 	0.052356
39.03 	0.046413 	4934 	0.046175
39.05 	0.051168 	4925 	0.050454
39.07 	0.054427 	4924 	0.053832
39.09 	0.044891 	4923 	0.044058
39.11 	0.052119 	4931 	0.050931
39.13 	0.043063 	4923 	0.042468
39.15 	0.049034 	4915 	0.048914
39.17 	0.049018 	4937 	0.048306
39.19 	0.049217 	4917 	0.048145
39.21 	0.050306 	4910 	0.049709
39.23 	0.049340 	4925 	0.048864
39.25 	0.049980 	4922 	0.049147
39.27 	0.047658 	4910 	0.046584
39.29 	0.044277 	4901 	0.043679
39.31 	0.050983 	4884 	0.050623
39.33 	0.051105 	4931 	0.049323
39.35 	0.051266 	4935 	0.050079
39.37 	0.052343 	4929 	0.051274
39.39 	0.046663 	4929 	0.045831
39.41 	0.050902 	4931 	0.050427
39.43 	0.047436 	4933 	0.047079
39.45 	0.048325 	4925 	0.047611
39.47 	0.046516 	4923 	0.046159
39.49 	0.056558 	4933 	0.055608
39.51 	0.049756 	4924 	0.048805
39.53 	0.043673 	4923 	0.043078
39.55 	0.044521 	4919 	0.043807
39.57 	0.049260 	4933 	0.048310
39.59 	0.047435 	4912 	0.047196
39.61 	0.050579 	4923 	0.049984
39.63 	0.046526 	4922 	0.045812
39.65 	0.042834 	4926 	0.042477
39.67 	0.049257 	4913 	0.048284
39.69 	0.049837 	4916 	0.049003
39.71 	0.051073 	4895 	0.050235
39.73 	0.049307 	4908 	0.048452
39.75 	0.049919 	4928 	0.049087
39.77 	0.054103 	4935 	0.052916
39.79 	0.049330 	4926 	0.048498
39.81 	0.055612 	4927 	0.054542
39.83 	0.047831 	4934 	0.047119
39.85 	0.050944 	4927 	0.049240
39.87 	0.047310 	4925 	0.047072
39.89 	0.044994 	4934 	0.044400
39.91 	0.043885 	4922 	0.043290
39.93 	0.049018 	4937 	0.048424
39.95 	0.043947 	4915 	0.043113
39.97 	0.045657 	4928 	0.045063
39.99 	0.046634 	4932 	0.046159
40.01 	0.047580 	4918 	0.047104
40.03 	0.046266 	4928 	0.046028
40.05 	0.047997 	4917 	0.047401
40.07 	0.052610 	4923 	0.052372
40.09 	0.043735 	4916 	0.042901
40.11 	0.045566 	4916 	0.045089
40.13 	0.048407 	4896 	0.047330
40.15 	0.043761 	4913 	0.043523
40.17 	0.053369 	4928 	0.052893
40.19 	0.051735 	4929 	0.051022
40.21 	0.051266 	4935 	0.050436
40.23 	0.044607 	4932 	0.044013
40.25 	0.049390 	4920 	0.048557
40.27 	0.046587 	4937 	0.046112
40.29 	0.046885 	4927 	0.046528
40.31 	0.041101 	4939 	0.041101
40.33 	0.049067 	4932 	0.048473
40.35 	0.043505 	4919 	0.043028
40.37 	0.049909 	4929 	0.049314
40.39 	0.046644 	4931 	0.045931
40.41 	0.048122 	4925 	0.047646
40.43 	0.046119 	4922 	0.045048
40.45 	0.048652 	4933 	0.047821
40.47 	0.040260 	4918 	0.039546
40.49 	0.052375 	4926 	0.052018
40.51 	0.046526 	4922 	0.045812
40.53 	0.044142 	4916 	0.043307
40.55 	0.050937 	4908 	0.050460
40.57 	0.047239 	4890 	0.046880
40.59 	0.047397 	4937 	0.047279
40.61 	0.047822 	4935 	0.047347
40.63 	0.050913 	4930 	0.049705
40.65 	0.045979 	4937 	0.045267
40.67 	0.042376 	4932 	0.041664
40.69 	0.046182 	4937 	0.045470
40.71 	0.047851 	4932 	0.046782
40.73 	0.045270 	4926 	0.044438
40.75 	0.045427 	4931 	0.044714
40.77 	0.050618 	4939 	0.050143
40.79 	0.051787 	4924 	0.051430
40.81 	0.052216 	4941 	0.051623
40.83 	0.046672 	4928 	0.046078
40.85 	0.037571 	4924 	0.037214
40.87 	0.050122 	4928 	0.049646
40.89 	0.042182 	4931 	0.041707
40.91 	0.044079 	4923 	0.043107
40.93 	0.041548 	4934 	0.041074
40.95 	0.047018 	4913 	0.046780
40.97 	0.046913 	4924 	0.046199
40.99 	0.047116 	4924 	0.046283
41.01 	0.046010 	4912 	0.045175
41.03 	0.043629 	4905 	0.043032
41.05 	0.045786 	4936 	0.045311
41.07 	0.045842 	4930 	0.045367
41.09 	0.043734 	4939 	0.043259
41.11 	0.045593 	4935 	0.044643
41.13 	0.051661 	4936 	0.050949
41.15 	0.044930 	4941 	0.044812
41.17 	0.044386 	4934 	0.043911
41.19 	0.045842 	4930 	0.045367
41.21 	0.042739 	4937 	0.042145
41.23 	0.051427 	4939 	0.050479
41.25 	0.038922 	4933 	0.038447
41.27 	0.041574 	4931 	0.041099
41.29 	0.049310 	4928 	0.048121
41.31 	0.044192 	4933 	0.043598
41.33 	0.045777 	4937 	0.045302
41.35 	0.049818 	4938 	0.049343
41.37 	0.047319 	4924 	0.046011
41.39 	0.047030 	4933 	0.046436
41.41 	0.045473 	4926 	0.045116
41.43 	0.042808 	4929 	0.041976
41.45 	0.043142 	4914 	0.042526
41.47 	0.039992 	4926 	0.039278
41.49 	0.043745 	4892 	0.043386
41.51 	0.045951 	4940 	0.045359
41.53 	0.051375 	4944 	0.051138
41.55 	0.044580 	4935 	0.044105
41.57 	0.046145 	4941 	0.045315
41.59 	0.042976 	4933 	0.042145
41.61 	0.044014 	4953 	0.043777
41.63 	0.045970 	4938 	0.045258
41.65 	0.047271 	4929 	0.046320
41.67 	0.045142 	4940 	0.044905
41.69 	0.040631 	4947 	0.040275
41.71 	0.045197 	4934 	0.043871
41.73 	0.048420 	4936 	0.047826
41.75 	0.042402 	4929 	0.042046
41.77 	0.042299 	4941 	0.041706
41.79 	0.043083 	4944 	0.042372
41.81 	0.045381 	4936 	0.045144
41.83 	0.046469 	4928 	0.045875
41.85 	0.043936 	4939 	0.043699
41.87 	0.040122 	4935 	0.039746
41.89 	0.038516 	4933 	0.038279
41.91 	0.053687 	4936 	0.053094
41.93 	0.041363 	4932 	0.041125
41.95 	0.037721 	4931 	0.037226
41.97 	0.049247 	4914 	0.048651
41.99 	0.037717 	4905 	0.037358
42.01 	0.043707 	4942 	0.042759
42.03 	0.046163 	4939 	0.045452
42.05 	0.040388 	4952 	0.039915
42.07 	0.040308 	4937 	0.039833
42.09 	0.037187 	4948 	0.036950
42.11 	0.043074 	4945 	0.042482
42.13 	0.039434 	4945 	0.039197
42.15 	0.037870 	4938 	0.037632
42.17 	0.048800 	4918 	0.048086
42.19 	0.040546 	4908 	0.040069
42.21 	0.041624 	4901 	0.041146
42.23 	0.039861 	4892 	0.039741
42.25 	0.039067 	4889 	0.038468
42.27 	0.041650 	4874 	0.041289
42.29 	0.043183 	4863 	0.042701
42.31 	0.044490 	4855 	0.043766
42.33 	0.048821 	4834 	0.047730
42.35 	0.040926 	4838 	0.040563
42.37 	0.043685 	4830 	0.043564
42.39 	0.043089 	4804 	0.042601
42.41 	0.036428 	4804 	0.036062
42.43 	0.037145 	4792 	0.036534
42.45 	0.039363 	4776 	0.038750
42.47 	0.037775 	4765 	0.037284
42.49 	0.044071 	4765 	0.043825
42.51 	0.046173 	4743 	0.045309
42.53 	0.042301 	4728 	0.041929
42.55 	0.040357 	4708 	0.040108
42.57 	0.045455 	4730 	0.044711
42.59 	0.044830 	4729 	0.044458
42.61 	0.047791 	4708 	0.046796
42.63 	0.036951 	4709 	0.036577
42.65 	0.039488 	4685 	0.038738
42.67 	0.041845 	4684 	0.041469
42.69 	0.039581 	4674 	0.039455
42.71 	0.040961 	4663 	0.040458
42.73 	0.040733 	4640 	0.040480
42.75 	0.036604 	4617 	0.035589
42.77 	0.039565 	4600 	0.039311
42.79 	0.038629 	4582 	0.038246
42.81 	0.044717 	4562 	0.044204
42.83 	0.039462 	4536 	0.038946
42.85 	0.039753 	4528 	0.039365
42.87 	0.041787 	4499 	0.041527
42.89 	0.047098 	4480 	0.046837
42.91 	0.046005 	4456 	0.045611
42.93 	0.041835 	4446 	0.041308
42.95 	0.041214 	4416 	0.040551
42.97 	0.041354 	4401 	0.040423
42.99 	0.047891 	4385 	0.046421
43.01 	0.036901 	4363 	0.035961
43.03 	0.038772 	4333 	0.038637
43.05 	0.036301 	4325 	0.036165
43.07 	0.034683 	4296 	0.034547
43.09 	0.038524 	4283 	0.038388
43.11 	0.044653 	4255 	0.043690
43.13 	0.042955 	4237 	0.042678
43.15 	0.044698 	4206 	0.044280
43.17 	0.039962 	4179 	0.039681
43.19 	0.039342 	4194 	0.038364
43.21 	0.042905 	4172 	0.041922
43.23 	0.042850 	4154 	0.042145
43.25 	0.036034 	4135 	0.035609
43.27 	0.038490 	4105 	0.037919
43.29 	0.043415 	4100 	0.042700
43.31 	0.039716 	4079 	0.038567
43.33 	0.043693 	4051 	0.043548
43.35 	0.042907 	4032 	0.042471
43.37 	0.043337 	4015 	0.042608
43.39 	0.039730 	4002 	0.039291
43.41 	0.043051 	3972 	0.042609
43.43 	0.043939 	3960 	0.043348
43.45 	0.042440 	3935 	0.042440
43.47 	0.039276 	3921 	0.038678
43.49 	0.045163 	3897 	0.044261
43.51 	0.037916 	3877 	0.037160
43.53 	0.039865 	3863 	0.039107
43.55 	0.041498 	2964 	0.040510
43.57 	0.040214 	2238 	0.039429
43.59 	0.039519 	1746 	0.039183
43.61 	0.035529 	1351 	0.035096
43.63 	0.041958 	1001 	0.041373
43.65 	0.050946 	687 	0.050946
43.67 	0.039841 	502 	0.039841
43.69 	0.049046 	367 	0.049046
43.71 	0.025105 	239 	0.025105
43.73 	0.025000 	120 	0.025000
43.75 	0.062500 	16 	0.062500