File: Example_Data/25SC_s1_0030.002.dat
#F C:\frames\spec\25SC_s1_0030.002
#C title =s:30 frm:2 25SC_s1
#C wavelength =0.15406

#S 1  fr_average C:\frames\spec\25SC_s1_0030.002 C:\win32app\speccom\mask.axs chi 0 180 0 360 0.02
#C 2 theta =0.000000 to 180 deg
#C   q   =0.000000 to 81.568 nm^-1
#C  chi  =0.000000 to 360 deg
#C collumns:
#C  1 position (2theta or chi in degrees)
#C  2 average intensity (sum of all counts in the region divided with number of pixels)
#C  3 Number of pixels in region)
#C  4 error (sum of sqrt(intensity) for all pixels divided by number)
#N 4
#L TTh  Int  N_pix  Err
32.99 	0.081967 	61 	0.081967
33.01 	0.057274 	873 	0.055261
33.03 	0.058950 	1391 	0.057687
33.05 	0.061468 	1757 	0.059135
33.07 	0.045854 	2050 	0.045282
33.09 	0.061781 	2347 	0.060783
33.11 	0.061652 	2579 	0.060743
33.13 	0.064447 	2793 	0.063188
33.15 	0.058019 	2999 	0.056847
33.17 	0.057794 	3201 	0.056879
33.19 	0.053860 	3342 	0.052633
33.21 	0.054424 	3436 	0.054083
33.23 	0.057337 	3523 	0.056340
33.25 	0.054264 	3612 	0.053615
33.27 	0.060055 	3630 	0.058925
33.29 	0.057292 	3648 	0.056971
33.31 	0.056557 	3660 	0.055277
33.33 	0.058058 	3686 	0.057263
33.35 	0.054413 	3694 	0.053144
33.37 	0.054927 	3714 	0.054139
33.39 	0.060338 	3729 	0.059238
33.41 	0.061230 	3740 	0.060290
33.43 	0.061154 	3761 	0.060064
33.45 	0.061755 	3773 	0.060176
33.47 	0.056872 	3798 	0.056101
33.49 	0.059858 	3809 	0.059089
33.51 	0.058191 	3815 	0.056502
33.53 	0.055194 	3841 	0.054431
33.55 	0.053604 	3843 	0.052359
33.57 	0.064999 	3877 	0.063488
33.59 	0.059278 	3880 	0.057744
33.61 	0.059094 	3909 	0.058645
33.63 	0.058433 	3919 	0.057686
33.65 	0.058509 	3931 	0.056870
33.67 	0.059181 	3954 	0.058440
33.69 	0.059196 	3953 	0.058158
33.71 	0.060629 	3975 	0.059303
33.73 	0.060190 	4004 	0.059019
33.75 	0.052513 	3999 	0.051171
33.77 	0.061615 	4025 	0.060451
33.79 	0.059391 	4041 	0.058232
33.81 	0.059931 	4038 	0.059350
33.83 	0.057778 	4050 	0.056910
33.85 	0.058307 	4099 	0.057283
33.87 	0.066894 	4111 	0.064471
33.89 	0.064062 	4121 	0.062499
33.91 	0.063148 	4149 	0.062442
33.93 	0.053722 	4151 	0.053016
33.95 	0.059555 	4181 	0.058551
33.97 	0.057518 	4190 	0.056399
33.99 	0.056667 	4200 	0.056109
34.01 	0.052694 	4213 	0.052277
34.03 	0.054430 	4244 	0.053326
34.05 	0.058796 	4252 	0.057694
34.07 	0.060918 	4268 	0.060369
34.09 	0.054596 	4286 	0.054050
34.11 	0.061134 	4302 	0.059909
34.13 	0.067084 	4308 	0.065430
34.15 	0.058878 	4331 	0.058066
34.17 	0.056322 	4350 	0.054706
34.19 	0.058001 	4362 	0.057173
34.21 	0.061542 	4371 	0.060470
34.23 	0.054405 	4393 	0.053605
34.25 	0.052679 	4404 	0.052147
34.27 	0.058345 	4422 	0.057947
34.29 	0.056595 	4435 	0.056199
34.31 	0.055182 	4458 	0.054130
34.33 	0.057482 	4471 	0.055647
34.35 	0.048617 	4484 	0.047833
34.37 	0.055444 	4491 	0.054009
34.39 	0.063972 	4502 	0.063191
34.41 	0.062086 	4526 	0.061050
34.43 	0.057061 	4539 	0.056029
34.45 	0.056670 	4535 	0.055637
34.47 	0.062500 	4592 	0.061458
34.49 	0.058516 	4597 	0.057624
34.51 	0.061224 	4606 	0.060207
34.53 	0.054706 	4643 	0.054201
34.55 	0.052121 	4643 	0.051364
34.57 	0.054506 	4660 	0.053878
34.59 	0.060107 	4675 	0.058979
34.61 	0.059400 	4697 	0.057778
34.63 	0.062420 	4710 	0.061674
34.65 	0.057403 	4721 	0.056659
34.67 	0.055263 	4741 	0.054377
34.69 	0.054691 	4754 	0.053951
34.71 	0.055602 	4766 	0.054496
34.73 	0.056821 	4787 	0.056086
34.75 	0.054285 	4808 	0.053066
34.77 	0.056040 	4818 	0.055189
34.79 	0.053897 	4824 	0.052926
34.81 	0.058204 	4845 	0.057116
34.83 	0.052242 	4862 	0.051519
34.85 	0.059766 	4869 	0.058442
34.87 	0.060805 	4868 	0.059341
34.89 	0.062884 	4882 	0.061904
34.91 	0.056125 	4882 	0.055045
34.93 	0.062666 	4899 	0.060992
34.95 	0.059509 	4890 	0.058292
34.97 	0.056304 	4902 	0.054989
34.99 	0.057995 	4897 	0.056918
35.01 	0.057282 	4923 	0.056330
35.03 	0.055837 	4943 	0.054494
35.05 	0.058419 	4947 	0.057354
35.07 	0.056680 	4940 	0.055494
35.09 	0.060771 	4953 	0.059943
35.11 	0.057004 	4947 	0.056294
35.13 	0.058491 	4958 	0.058019
35.15 	0.050233 	4937 	0.049502
35.17 	0.060251 	4946 	0.059777
35.19 	0.059288 	4942 	0.057628
35.21 	0.061476 	4945 	0.060292
35.23 	0.056218 	4945 	0.055370
35.25 	0.060085 	4943 	0.059255
35.27 	0.055780 	4948 	0.055070
35.29 	0.057027 	4945 	0.056179
35.31 	0.059599 	4933 	0.058510
35.33 	0.059478 	4943 	0.058155
35.35 	0.054634 	4942 	0.053567
35.37 	0.053857 	4939 	0.053145
35.39 	0.052983 	4945 	0.051917
35.41 	0.060292 	4926 	0.058984
35.43 	0.055950 	4933 	0.055118
35.45 	0.058740 	4937 	0.057554
35.47 	0.060231 	4931 	0.058806
35.49 	0.058859 	4910 	0.057905
35.51 	0.058059 	4926 	0.057465
35.53 	0.055365 	4949 	0.054891
35.55 	0.052578 	4945 	0.051986
35.57 	0.051490 	4933 	0.050896
35.59 	0.058443 	4945 	0.057851
35.61 	0.061311 	4942 	0.060106
35.63 	0.055027 	4943 	0.054553
35.65 	0.054196 	4945 	0.053485
35.67 	0.053622 	4942 	0.052674
35.69 	0.056409 	4946 	0.055699
35.71 	0.054892 	4937 	0.053586
35.73 	0.057131 	4936 	0.055945
35.75 	0.053944 	4931 	0.053232
35.77 	0.064431 	4951 	0.063367
35.79 	0.058597 	4932 	0.057766
35.81 	0.058788 	4933 	0.057600
35.83 	0.055196 	4946 	0.054959
35.85 	0.054711 	4935 	0.053643
35.87 	0.059517 	4923 	0.058922
35.89 	0.057154 	4934 	0.056561
35.91 	0.056424 	4927 	0.055592
35.93 	0.055206 	4927 	0.054612
35.95 	0.049827 	4917 	0.049331
35.97 	0.058225 	4912 	0.057390
35.99 	0.054869 	4939 	0.053921
36.01 	0.052941 	4930 	0.051991
36.03 	0.057657 	4943 	0.057065
36.05 	0.057027 	4945 	0.056080
36.07 	0.051832 	4939 	0.051358
36.09 	0.055668 	4940 	0.054957
36.11 	0.060459 	4929 	0.059864
36.13 	0.060907 	4942 	0.059465
36.15 	0.058716 	4939 	0.057886
36.17 	0.055431 	4925 	0.054599
36.19 	0.060526 	4940 	0.059341
36.21 	0.054372 	4929 	0.053302
36.23 	0.057345 	4935 	0.056258
36.25 	0.053228 	4941 	0.052991
36.27 	0.054416 	4925 	0.053703
36.29 	0.059014 	4931 	0.057807
36.31 	0.058036 	4928 	0.056134
36.33 	0.058585 	4933 	0.057635
36.35 	0.060864 	4929 	0.060508
36.37 	0.053016 	4923 	0.051708
36.39 	0.055070 	4921 	0.053761
36.41 	0.055147 	4896 	0.054668
36.43 	0.058036 	4928 	0.057204
36.45 	0.057201 	4930 	0.057082
36.47 	0.053079 	4936 	0.052367
36.49 	0.056253 	4942 	0.055067
36.51 	0.054328 	4933 	0.053022
36.53 	0.051386 	4943 	0.050319
36.55 	0.052162 	4927 	0.051210
36.57 	0.053506 	4934 	0.052418
36.59 	0.054262 	4939 	0.053906
36.61 	0.055364 	4931 	0.054275
36.63 	0.057189 	4931 	0.056120
36.65 	0.051906 	4932 	0.051075
36.67 	0.049290 	4930 	0.048815
36.69 	0.058430 	4929 	0.057122
36.71 	0.055273 	4921 	0.054797
36.73 	0.051371 	4925 	0.050776
36.75 	0.055218 	4944 	0.054508
36.77 	0.055296 	4919 	0.055058
36.79 	0.054664 	4921 	0.054188
36.81 	0.046583 	4916 	0.046106
36.83 	0.050458 	4915 	0.049743
36.85 	0.055125 	4898 	0.054407
36.87 	0.058657 	4944 	0.057828
36.89 	0.050041 	4916 	0.048929
36.91 	0.052216 	4941 	0.051623
36.93 	0.049696 	4930 	0.048983
36.95 	0.050679 	4933 	0.050085
36.97 	0.057154 	4934 	0.056442
36.99 	0.056940 	4935 	0.055753
37.01 	0.056761 	4933 	0.055811
37.03 	0.054833 	4924 	0.053763
37.05 	0.054191 	4927 	0.053339
37.07 	0.048430 	4935 	0.047599
37.09 	0.054789 	4928 	0.053838
37.11 	0.049037 	4935 	0.047950
37.13 	0.050772 	4924 	0.050177
37.15 	0.054390 	4909 	0.053793
37.17 	0.055736 	4934 	0.054905
37.19 	0.055228 	4925 	0.054753
37.21 	0.056742 	4917 	0.056146
37.23 	0.052460 	4918 	0.051388
37.25 	0.058440 	4911 	0.057228
37.27 	0.052309 	4894 	0.051351
37.29 	0.052535 	4930 	0.051823
37.31 	0.055927 	4935 	0.055334
37.33 	0.056221 	4927 	0.055151
37.35 	0.056501 	4938 	0.055433
37.37 	0.055612 	4927 	0.054522
37.39 	0.051308 	4931 	0.050714
37.41 	0.051308 	4931 	0.050120
37.43 	0.050892 	4932 	0.050061
37.45 	0.050162 	4924 	0.048953
37.47 	0.054169 	4929 	0.053813
37.49 	0.052204 	4923 	0.051490
37.51 	0.056355 	4933 	0.055168
37.53 	0.048181 	4919 	0.047585
37.55 	0.054970 	4930 	0.053781
37.57 	0.052995 	4925 	0.052162
37.59 	0.048830 	4915 	0.048473
37.61 	0.049370 	4922 	0.048418
37.63 	0.051027 	4919 	0.050193
37.65 	0.053274 	4918 	0.052083
37.67 	0.048736 	4904 	0.048258
37.69 	0.052879 	4898 	0.052281
37.71 	0.053763 	4929 	0.052932
37.73 	0.046865 	4929 	0.046747
37.75 	0.050810 	4940 	0.050197
37.77 	0.051423 	4920 	0.050589
37.79 	0.050304 	4930 	0.049354
37.81 	0.052909 	4933 	0.051721
37.83 	0.053455 	4920 	0.053217
37.85 	0.052824 	4922 	0.051991
37.87 	0.046973 	4939 	0.046617
37.89 	0.056244 	4925 	0.054678
37.91 	0.052738 	4930 	0.052382
37.93 	0.053466 	4919 	0.051898
37.95 	0.051006 	4921 	0.050530
37.97 	0.047068 	4929 	0.046474
37.99 	0.056596 	4912 	0.055881
38.01 	0.051136 	4928 	0.050542
38.03 	0.047260 	4909 	0.046405
38.05 	0.046294 	4925 	0.046057
38.07 	0.051945 	4909 	0.051468
38.09 	0.056171 	4878 	0.055210
38.11 	0.052482 	4935 	0.051513
38.13 	0.055297 	4937 	0.054348
38.15 	0.051647 	4918 	0.050813
38.17 	0.053550 	4930 	0.052956
38.19 	0.056592 	4930 	0.055622
38.21 	0.054641 	4923 	0.053313
38.23 	0.051640 	4938 	0.050454
38.25 	0.051251 	4917 	0.050893
38.27 	0.056592 	4930 	0.055642
38.29 	0.059504 	4924 	0.059029
38.31 	0.057236 	4927 	0.056522
38.33 	0.057474 	4924 	0.057117
38.35 	0.054586 	4928 	0.053140
38.37 	0.056052 	4924 	0.054386
38.39 	0.060297 	4909 	0.058826
38.41 	0.061751 	4923 	0.061037
38.43 	0.062449 	4916 	0.060761
38.45 	0.060390 	4918 	0.059318
38.47 	0.062156 	4907 	0.061082
38.49 	0.056797 	4877 	0.055956
38.51 	0.060219 	4932 	0.059981
38.53 	0.058835 	4929 	0.057509
38.55 	0.058752 	4936 	0.057565
38.57 	0.057282 	4923 	0.056211
38.59 	0.062754 	4924 	0.062516
38.61 	0.056726 	4936 	0.055638
38.63 	0.055443 	4924 	0.054848
38.65 	0.058560 	4918 	0.057469
38.67 	0.056715 	4937 	0.056121
38.69 	0.054043 	4922 	0.053091
38.71 	0.052600 	4924 	0.052243
38.73 	0.052460 	4918 	0.052103
38.75 	0.053379 	4927 	0.052052
38.77 	0.052813 	4923 	0.052218
38.79 	0.050061 	4934 	0.049230
38.81 	0.049471 	4912 	0.048755
38.83 	0.047774 	4919 	0.046821
38.85 	0.055578 	4912 	0.054863
38.87 	0.049074 	4911 	0.048358
38.89 	0.049826 	4897 	0.049348
38.91 	0.043851 	4903 	0.043253
38.93 	0.048198 	4938 	0.047130
38.95 	0.049207 	4918 	0.048850
38.97 	0.050294 	4931 	0.048987
38.99 	0.047600 	4937 	0.047006
39.01 	0.047784 	4918 	0.047426
39.03 	0.050263 	4934 	0.049670
39.05 	0.048731 	4925 	0.048136
39.07 	0.044070 	4924 	0.043356
39.09 	0.044079 	4923 	0.043603
39.11 	0.046644 	4931 	0.045931
39.13 	0.046923 	4923 	0.046090
39.15 	0.048220 	4915 	0.047247
39.17 	0.048005 	4937 	0.047056
39.19 	0.046980 	4917 	0.046265
39.21 	0.044807 	4910 	0.044449
39.23 	0.042843 	4925 	0.042367
39.25 	0.042462 	4922 	0.041748
39.27 	0.045418 	4910 	0.044821
39.29 	0.054071 	4901 	0.052875
39.31 	0.047502 	4884 	0.046303
39.33 	0.046846 	4931 	0.046371
39.35 	0.044782 	4935 	0.044169
39.37 	0.046257 	4929 	0.045663
39.39 	0.044837 	4929 	0.044599
39.41 	0.046846 	4931 	0.046609
39.43 	0.045814 	4933 	0.044864
39.45 	0.043249 	4925 	0.043130
39.47 	0.046516 	4923 	0.046159
39.49 	0.048247 	4933 	0.046940
39.51 	0.045898 	4924 	0.045422
39.53 	0.046516 	4923 	0.045921
39.55 	0.050010 	4919 	0.048819
39.57 	0.046017 	4933 	0.044810
39.59 	0.043160 	4912 	0.042325
39.61 	0.042860 	4923 	0.042622
39.63 	0.046932 	4922 	0.046218
39.65 	0.049533 	4926 	0.049057
39.67 	0.043354 	4913 	0.042758
39.69 	0.044752 	4916 	0.044394
39.71 	0.041267 	4895 	0.041147
39.73 	0.045844 	4908 	0.044292
39.75 	0.042208 	4928 	0.041970
39.77 	0.043364 	4935 	0.042869
39.79 	0.042834 	4926 	0.041526
39.81 	0.047087 	4927 	0.046136
39.83 	0.048845 	4934 	0.048251
39.85 	0.042419 	4927 	0.042300
39.87 	0.040203 	4925 	0.039589
39.89 	0.045197 	4934 	0.044484
39.91 	0.047542 	4922 	0.047304
39.93 	0.040713 	4937 	0.040238
39.95 	0.047813 	4915 	0.047455
39.97 	0.045252 	4928 	0.044657
39.99 	0.047040 	4932 	0.046308
40.01 	0.044530 	4918 	0.043697
40.03 	0.039773 	4928 	0.039060
40.05 	0.043726 	4917 	0.043368
40.07 	0.046719 	4923 	0.046244
40.09 	0.041294 	4916 	0.040698
40.11 	0.042107 	4916 	0.041988
40.13 	0.040850 	4896 	0.040251
40.15 	0.041726 	4913 	0.041011
40.17 	0.040990 	4928 	0.040753
40.19 	0.045445 	4929 	0.045208
40.21 	0.048024 	4935 	0.047550
40.23 	0.043390 	4932 	0.042796
40.25 	0.042480 	4920 	0.042361
40.27 	0.045574 	4937 	0.044981
40.29 	0.047087 	4927 	0.046731
40.31 	0.045758 	4939 	0.045047
40.33 	0.043796 	4932 	0.043439
40.35 	0.042895 	4919 	0.042657
40.37 	0.044634 	4929 	0.043663
40.39 	0.040357 	4931 	0.039525
40.41 	0.043046 	4925 	0.042451
40.43 	0.040431 	4922 	0.040312
40.45 	0.042368 	4933 	0.041893
40.47 	0.039447 	4918 	0.039209
40.49 	0.045879 	4926 	0.045166
40.51 	0.044697 	4922 	0.043983
40.53 	0.039870 	4916 	0.039512
40.55 	0.040546 	4908 	0.039949
40.57 	0.039468 	4890 	0.038750
40.59 	0.041321 	4937 	0.041083
40.61 	0.042553 	4935 	0.042553
40.63 	0.043611 	4930 	0.042779
40.65 	0.041928 	4937 	0.041454
40.67 	0.041768 	4932 	0.041055
40.69 	0.043346 	4937 	0.043346
40.71 	0.050284 	4932 	0.049176
40.73 	0.041210 	4926 	0.040853
40.75 	0.040357 	4931 	0.039763
40.77 	0.045556 	4939 	0.045319
40.79 	0.040414 	4924 	0.040295
40.81 	0.040275 	4941 	0.039801
40.83 	0.044846 	4928 	0.044014
40.85 	0.043664 	4924 	0.042930
40.87 	0.043628 	4928 	0.042558
40.89 	0.047455 	4931 	0.046386
40.91 	0.041032 	4923 	0.040318
40.93 	0.042562 	4934 	0.041612
40.95 	0.043761 	4913 	0.043165
40.97 	0.041024 	4924 	0.040667
40.99 	0.042648 	4924 	0.041815
41.01 	0.039292 	4912 	0.038934
41.03 	0.041998 	4905 	0.041262
41.05 	0.041937 	4936 	0.041581
41.07 	0.043813 	4930 	0.043219
41.09 	0.040899 	4939 	0.040780
41.11 	0.045998 	4935 	0.045404
41.13 	0.045989 	4936 	0.045277
41.15 	0.047156 	4941 	0.046445
41.17 	0.035266 	4934 	0.034791
41.19 	0.041582 	4930 	0.041107
41.21 	0.042536 	4937 	0.041349
41.23 	0.045151 	4939 	0.044439
41.25 	0.042570 	4933 	0.042076
41.27 	0.038937 	4931 	0.038581
41.29 	0.043628 	4928 	0.043272
41.31 	0.040341 	4933 	0.040103
41.33 	0.044561 	4937 	0.044324
41.35 	0.035237 	4938 	0.034506
41.37 	0.041633 	4924 	0.041038
41.39 	0.041962 	4933 	0.041369
41.41 	0.036541 	4926 	0.035946
41.43 	0.041793 	4929 	0.040724
41.45 	0.041718 	4914 	0.041122
41.47 	0.038571 	4926 	0.038333
41.49 	0.039657 	4892 	0.039178
41.51 	0.038259 	4940 	0.037903
41.53 	0.048544 	4944 	0.047714
41.55 	0.037690 	4935 	0.037334
41.57 	0.042906 	4941 	0.042432
41.59 	0.044192 	4933 	0.043361
41.61 	0.041995 	4953 	0.041167
41.63 	0.038680 	4938 	0.038086
41.65 	0.040982 	4929 	0.040269
41.67 	0.039069 	4940 	0.038832
41.69 	0.047301 	4947 	0.046828
41.71 	0.042562 	4934 	0.041612
41.73 	0.033833 	4936 	0.033358
41.75 	0.041185 	4929 	0.041066
41.77 	0.035823 	4941 	0.035467
41.79 	0.034992 	4944 	0.034636
41.81 	0.038695 	4936 	0.038221
41.83 	0.037946 	4928 	0.037233
41.85 	0.042316 	4939 	0.041367
41.87 	0.040324 	4935 	0.040087
41.89 	0.039732 	4933 	0.038901
41.91 	0.035656 	4936 	0.035300
41.93 	0.040957 	4932 	0.040482
41.95 	0.045224 	4931 	0.043660
41.97 	0.036223 	4914 	0.035746
41.99 	0.043221 	4905 	0.042385
42.01 	0.035815 	4942 	0.035815
42.03 	0.035635 	4939 	0.035398
42.05 	0.037561 	4952 	0.036969
42.07 	0.041726 	4937 	0.041370
42.09 	0.039814 	4948 	0.039222
42.11 	0.035794 	4945 	0.035320
42.13 	0.036805 	4945 	0.035956
42.15 	0.035237 	4938 	0.035118
42.17 	0.041684 	4918 	0.040969
42.19 	0.038101 	4908 	0.037504
42.21 	0.044685 	4901 	0.043609
42.23 	0.034751 	4892 	0.034152
42.25 	0.040704 	4889 	0.040344
42.27 	0.039803 	4874 	0.039442
42.29 	0.041949 	4863 	0.041347
42.31 	0.043666 	4855 	0.043304
42.33 	0.038891 	4834 	0.038528
42.35 	0.035345 	4838 	0.035103
42.37 	0.037267 	4830 	0.036762
42.39 	0.037885 	4804 	0.037275
42.41 	0.037885 	4804 	0.037153
42.43 	0.036937 	4792 	0.036570
42.45 	0.037898 	4776 	0.037898
42.47 	0.041763 	4765 	0.041025
42.49 	0.039454 	4765 	0.039086
42.51 	0.039427 	4743 	0.039056
42.53 	0.037860 	4728 	0.037364
42.55 	0.033772 	4708 	0.033648
42.57 	0.037209 	4730 	0.036590
42.59 	0.042292 	4729 	0.041797
42.61 	0.037596 	4708 	0.037222
42.63 	0.036738 	4709 	0.036365
42.65 	0.037780 	4685 	0.037780
42.67 	0.037361 	4684 	0.037111
42.69 	0.035944 	4674 	0.035568
42.71 	0.037744 	4663 	0.037493
42.73 	0.033836 	4640 	0.033457
42.75 	0.040936 	4617 	0.040682
42.77 	0.041739 	4600 	0.041357
42.79 	0.041903 	4582 	0.041647
42.81 	0.041210 	4562 	0.040440
42.83 	0.035935 	4536 	0.035676
42.85 	0.036219 	4528 	0.036219
42.87 	0.030673 	4499 	0.030543
42.89 	0.036384 	4480 	0.035992
42.91 	0.040844 	4456 	0.040187
42.93 	0.038686 	4446 	0.038028
42.95 	0.037591 	4416 	0.037193
42.97 	0.036355 	4401 	0.036089
42.99 	0.041049 	4385 	0.040515
43.01 	0.038276 	4363 	0.037874
43.03 	0.038772 	4333 	0.038502
43.05 	0.039769 	4325 	0.039362
43.07 	0.038175 	4296 	0.037766
43.09 	0.041093 	4283 	0.040546
43.11 	0.035018 	4255 	0.034742
43.13 	0.037527 	4237 	0.037112
43.15 	0.035901 	4206 	0.035623
43.17 	0.031826 	4179 	0.031826
43.19 	0.040296 	4194 	0.040156
43.21 	0.041467 	4172 	0.041186
43.23 	0.043332 	4154 	0.043050
43.25 	0.043773 	4135 	0.043631
43.27 	0.044336 	4105 	0.044051
43.29 	0.038293 	4100 	0.037435
43.31 	0.037509 	4079 	0.037222
43.33 	0.036534 	4051 	0.036100
43.35 	0.038442 	4032 	0.037425
43.37 	0.041594 	4015 	0.041594
43.39 	0.042229 	4002 	0.041936
43.41 	0.039778 	3972 	0.039189
43.43 	0.040657 	3960 	0.039597
43.45 	0.038882 	3935 	0.038435
43.47 	0.035705 	3921 	0.035705
43.49 	0.042084 	3897 	0.041783
43.51 	0.043848 	3877 	0.043697
43.53 	0.035465 	3863 	0.035161
43.55 	0.034413 	2964 	0.033820
43.57 	0.035746 	2238 	0.035484
43.59 	0.044101 	1746 	0.043094
43.61 	0.046632 	1351 	0.046199
43.63 	0.045954 	1001 	0.045954
43.65 	0.037846 	687 	0.037846
43.67 	0.041833 	502 	0.040666
43.69 	0.038147 	367 	0.038147
43.71 	0.033473 	239 	0.033473
43.73 	0.050000 	120 	0.050000
43.75 	0.000000 	16 	0.000000