File: Example_Data/25SC_s1_0036.004.dat
#F C:\frames\spec\25SC_s1_0036.004
#C title =s:36 frm:4 25SC_s1
#C wavelength =0.15406

#S 1  fr_average C:\frames\spec\25SC_s1_0036.004 C:\win32app\speccom\mask.axs chi 0 180 0 360 0.02
#C 2 theta =0.000000 to 180 deg
#C   q   =0.000000 to 81.568 nm^-1
#C  chi  =0.000000 to 360 deg
#C collumns:
#C  1 position (2theta or chi in degrees)
#C  2 average intensity (sum of all counts in the region divided with number of pixels)
#C  3 Number of pixels in region)
#C  4 error (sum of sqrt(intensity) for all pixels divided by number)
#N 4
#L TTh  Int  N_pix  Err
32.99 	0.114754 	61 	0.105151
33.01 	0.080183 	873 	0.077499
33.03 	0.064702 	1391 	0.063859
33.05 	0.044963 	1757 	0.044296
33.07 	0.052683 	2050 	0.052397
33.09 	0.059651 	2347 	0.057903
33.11 	0.066305 	2579 	0.065850
33.13 	0.061583 	2793 	0.060534
33.15 	0.059020 	2999 	0.057425
33.17 	0.049672 	3201 	0.048208
33.19 	0.057451 	3342 	0.056925
33.21 	0.059662 	3436 	0.059151
33.23 	0.053080 	3523 	0.052082
33.25 	0.054264 	3612 	0.053615
33.27 	0.054821 	3630 	0.053691
33.29 	0.055647 	3648 	0.053372
33.31 	0.056557 	3660 	0.055757
33.33 	0.055616 	3686 	0.054344
33.35 	0.059285 	3694 	0.058334
33.37 	0.064890 	3714 	0.064075
33.39 	0.059802 	3729 	0.059016
33.41 	0.052139 	3740 	0.050573
33.43 	0.062217 	3761 	0.061283
33.45 	0.056984 	3773 	0.055587
33.47 	0.055556 	3798 	0.054322
33.49 	0.059333 	3809 	0.058103
33.51 	0.054784 	3815 	0.054170
33.53 	0.067170 	3841 	0.065645
33.55 	0.054905 	3843 	0.052898
33.57 	0.065257 	3877 	0.063595
33.59 	0.062371 	3880 	0.061767
33.61 	0.061653 	3909 	0.060604
33.63 	0.054095 	3919 	0.053348
33.65 	0.059527 	3931 	0.058335
33.67 	0.054375 	3954 	0.053314
33.69 	0.053883 	3953 	0.052549
33.71 	0.059119 	3975 	0.058383
33.73 	0.057443 	4004 	0.056418
33.75 	0.057264 	3999 	0.055799
33.77 	0.055901 	4025 	0.055610
33.79 	0.060629 	4041 	0.060339
33.81 	0.061169 	4038 	0.060589
33.83 	0.058272 	4050 	0.057259
33.85 	0.058063 	4099 	0.057063
33.87 	0.051082 	4111 	0.050655
33.89 	0.056540 	4121 	0.055829
33.91 	0.053025 	4149 	0.052601
33.93 	0.055649 	4151 	0.054379
33.95 	0.058359 	4181 	0.057496
33.97 	0.058473 	4190 	0.057913
33.99 	0.057857 	4200 	0.056741
34.01 	0.053881 	4213 	0.053186
34.03 	0.058671 	4244 	0.057843
34.05 	0.069849 	4252 	0.068610
34.07 	0.058575 	4268 	0.057455
34.09 	0.058096 	4286 	0.057139
34.11 	0.057415 	4302 	0.056598
34.13 	0.061746 	4308 	0.060658
34.15 	0.061187 	4331 	0.060240
34.17 	0.056782 	4350 	0.055278
34.19 	0.059835 	4362 	0.059163
34.21 	0.063601 	4371 	0.062395
34.23 	0.055088 	4393 	0.054554
34.25 	0.061762 	4404 	0.060698
34.27 	0.056762 	4422 	0.055834
34.29 	0.053664 	4435 	0.052872
34.31 	0.055630 	4458 	0.054558
34.33 	0.057705 	4471 	0.056919
34.35 	0.050847 	4484 	0.050456
34.37 	0.058339 	4491 	0.057817
34.39 	0.057086 	4502 	0.056435
34.41 	0.061644 	4526 	0.060867
34.43 	0.057722 	4539 	0.056668
34.45 	0.057993 	4535 	0.057348
34.47 	0.064242 	4592 	0.062287
34.49 	0.052861 	4597 	0.052096
34.51 	0.061659 	4606 	0.061023
34.53 	0.054921 	4643 	0.054144
34.55 	0.060521 	4643 	0.059133
34.57 	0.057940 	4660 	0.056536
34.59 	0.048128 	4675 	0.047752
34.61 	0.054716 	4697 	0.053718
34.63 	0.057749 	4710 	0.057128
34.65 	0.060157 	4721 	0.059288
34.67 	0.057583 	4741 	0.056471
34.69 	0.054901 	4754 	0.054162
34.71 	0.053504 	4766 	0.052275
34.73 	0.052643 	4787 	0.051664
34.75 	0.051789 	4808 	0.050692
34.77 	0.059983 	4818 	0.058646
34.79 	0.055141 	4824 	0.053684
34.81 	0.061713 	4845 	0.060746
34.83 	0.060880 	4862 	0.060037
34.85 	0.056480 	4869 	0.055517
34.87 	0.059573 	4868 	0.058229
34.89 	0.062270 	4882 	0.061430
34.91 	0.051618 	4882 	0.050538
34.93 	0.059196 	4899 	0.058000
34.95 	0.050716 	4890 	0.049997
34.97 	0.057732 	4902 	0.056895
34.99 	0.056157 	4897 	0.055439
35.01 	0.052813 	4923 	0.052218
35.03 	0.054016 	4943 	0.053068
35.05 	0.054376 	4947 	0.053548
35.07 	0.056275 	4940 	0.055564
35.09 	0.063396 	4953 	0.061858
35.11 	0.059228 	4947 	0.058024
35.13 	0.058290 	4958 	0.057226
35.15 	0.056512 	4937 	0.056037
35.17 	0.053983 	4946 	0.053154
35.19 	0.057062 	4942 	0.055402
35.21 	0.059050 	4945 	0.057746
35.23 	0.058241 	4945 	0.057175
35.25 	0.053611 	4943 	0.052762
35.27 	0.059418 	4948 	0.057593
35.29 	0.058241 	4945 	0.057530
35.31 	0.059193 	4933 	0.058006
35.33 	0.054016 	4943 	0.053048
35.35 	0.056657 	4942 	0.055946
35.37 	0.057502 	4939 	0.056671
35.39 	0.060465 	4945 	0.058570
35.41 	0.052375 	4926 	0.051781
35.43 	0.060612 	4933 	0.059543
35.45 	0.054081 	4937 	0.052875
35.47 	0.059420 	4931 	0.058094
35.49 	0.059267 	4910 	0.058670
35.51 	0.060698 	4926 	0.059628
35.53 	0.057587 	4949 	0.056522
35.55 	0.054803 	4945 	0.053263
35.57 	0.058990 	4933 	0.058377
35.59 	0.053994 	4945 	0.053165
35.61 	0.057062 	4942 	0.056706
35.63 	0.057253 	4943 	0.056186
35.65 	0.056825 	4945 	0.056233
35.67 	0.056455 	4942 	0.055862
35.69 	0.056409 	4946 	0.055106
35.71 	0.060158 	4937 	0.059209
35.73 	0.058955 	4936 	0.058243
35.75 	0.053944 	4931 	0.053469
35.77 	0.055342 	4951 	0.054258
35.79 	0.058597 	4932 	0.057647
35.81 	0.063248 	4933 	0.062179
35.83 	0.061464 	4946 	0.060279
35.85 	0.052077 	4935 	0.051246
35.87 	0.059110 	4923 	0.058039
35.89 	0.050263 	4934 	0.049314
35.91 	0.054191 	4927 	0.053835
35.93 	0.059062 	4927 	0.058230
35.95 	0.057149 	4917 	0.056434
35.97 	0.055578 	4912 	0.054743
35.99 	0.053452 	4939 	0.052978
36.01 	0.046856 	4930 	0.046262
36.03 	0.054420 	4943 	0.053709
36.05 	0.063296 	4945 	0.062467
36.07 	0.060336 	4939 	0.059269
36.09 	0.060526 	4940 	0.059815
36.11 	0.050720 	4929 	0.049769
36.13 	0.060907 	4942 	0.060077
36.15 	0.058311 	4939 	0.057363
36.17 	0.060305 	4925 	0.059353
36.19 	0.052834 	4940 	0.052004
36.21 	0.054575 	4929 	0.053862
36.23 	0.052077 	4935 	0.050633
36.25 	0.063145 	4941 	0.061722
36.27 	0.055025 	4925 	0.054787
36.29 	0.056581 	4931 	0.055512
36.31 	0.059659 	4928 	0.058827
36.33 	0.058382 	4933 	0.057195
36.35 	0.060459 	4929 	0.059864
36.37 	0.058907 	4923 	0.057717
36.39 	0.052022 	4921 	0.051189
36.41 	0.060458 	4896 	0.059500
36.43 	0.055195 	4928 	0.054363
36.45 	0.055578 	4930 	0.054033
36.47 	0.054092 	4936 	0.053143
36.49 	0.054634 	4942 	0.053923
36.51 	0.057369 	4933 	0.056181
36.53 	0.055432 	4943 	0.054247
36.55 	0.050538 	4927 	0.049706
36.57 	0.052290 	4934 	0.051340
36.59 	0.059324 	4939 	0.058256
36.61 	0.055770 	4931 	0.054681
36.63 	0.055972 	4931 	0.054784
36.65 	0.054542 	4932 	0.054067
36.67 	0.050507 	4930 	0.049675
36.69 	0.054778 	4929 	0.053827
36.71 	0.052022 	4921 	0.051070
36.73 	0.053807 	4925 	0.052975
36.75 	0.055623 	4944 	0.055149
36.77 	0.054483 	4919 	0.054006
36.79 	0.053241 	4921 	0.052289
36.81 	0.053295 	4916 	0.052223
36.83 	0.053917 	4915 	0.052844
36.85 	0.059004 	4898 	0.058027
36.87 	0.059668 	4944 	0.059313
36.89 	0.057160 	4916 	0.056564
36.91 	0.060919 	4941 	0.059457
36.93 	0.058824 	4930 	0.057992
36.95 	0.057571 	4933 	0.056859
36.97 	0.058370 	4934 	0.057421
36.99 	0.055117 	4935 	0.053316
37.01 	0.058180 	4933 	0.057230
37.03 	0.055646 	4924 	0.054932
37.05 	0.053379 	4927 	0.052547
37.07 	0.052685 	4935 	0.051597
37.09 	0.051948 	4928 	0.050740
37.11 	0.049443 	4935 	0.048849
37.13 	0.053615 	4924 	0.052663
37.15 	0.054390 	4909 	0.053316
37.17 	0.052493 	4934 	0.052255
37.19 	0.050152 	4925 	0.049181
37.21 	0.054505 	4917 	0.053552
37.23 	0.054494 	4918 	0.054017
37.25 	0.053146 	4911 	0.052311
37.27 	0.058235 	4894 	0.057157
37.29 	0.047667 	4930 	0.047311
37.31 	0.056535 	4935 	0.054972
37.33 	0.060483 	4927 	0.059889
37.35 	0.055488 	4938 	0.054539
37.37 	0.055815 	4927 	0.055220
37.39 	0.051714 	4931 	0.051001
37.41 	0.057189 	4931 	0.055764
37.43 	0.049270 	4932 	0.048795
37.45 	0.060114 	4924 	0.059380
37.47 	0.050314 	4929 	0.049582
37.49 	0.058298 	4923 	0.057584
37.51 	0.052504 	4933 	0.051059
37.53 	0.053466 	4919 	0.052156
37.55 	0.054158 	4930 	0.053307
37.57 	0.059492 	4925 	0.058779
37.59 	0.055748 	4915 	0.054556
37.61 	0.056684 	4922 	0.055732
37.63 	0.051027 	4919 	0.049836
37.65 	0.052054 	4918 	0.051220
37.67 	0.057096 	4904 	0.056499
37.69 	0.051041 	4898 	0.049826
37.71 	0.059444 	4929 	0.058256
37.73 	0.055184 	4929 	0.054589
37.75 	0.054251 	4940 	0.053777
37.77 	0.054675 	4920 	0.053841
37.79 	0.054970 	4930 	0.054257
37.81 	0.054125 	4933 	0.053413
37.83 	0.051016 	4920 	0.049707
37.85 	0.057903 	4922 	0.056356
37.87 	0.057906 	4939 	0.056720
37.89 	0.051980 	4925 	0.051266
37.91 	0.051927 	4930 	0.050976
37.93 	0.057329 	4919 	0.055781
37.95 	0.051616 	4921 	0.050901
37.97 	0.057212 	4929 	0.055905
37.99 	0.050692 	4912 	0.049977
38.01 	0.057630 	4928 	0.056441
38.03 	0.057242 	4909 	0.055571
38.05 	0.049949 	4925 	0.048998
38.07 	0.051945 	4909 	0.051110
38.09 	0.049405 	4878 	0.048805
38.11 	0.053495 	4935 	0.052427
38.13 	0.055702 	4937 	0.054634
38.15 	0.061000 	4918 	0.059809
38.17 	0.054361 	4930 	0.053648
38.19 	0.056998 	4930 	0.056028
38.21 	0.056267 	4923 	0.055315
38.23 	0.058121 	4938 	0.057528
38.25 	0.056742 	4917 	0.056146
38.27 	0.062880 	4930 	0.061692
38.29 	0.062754 	4924 	0.061921
38.31 	0.068602 	4927 	0.066799
38.33 	0.066206 	4924 	0.065136
38.35 	0.067370 	4928 	0.066043
38.37 	0.063363 	4924 	0.062649
38.39 	0.071909 	4909 	0.070219
38.41 	0.060126 	4923 	0.059630
38.43 	0.068959 	4916 	0.067032
38.45 	0.063237 	4918 	0.061927
38.47 	0.065213 	4907 	0.064377
38.49 	0.061513 	4877 	0.060312
38.51 	0.062652 	4932 	0.061821
38.53 	0.062690 	4929 	0.061264
38.55 	0.063817 	4936 	0.063223
38.57 	0.065814 	4923 	0.064842
38.59 	0.052396 	4924 	0.052040
38.61 	0.064019 	4936 	0.062714
38.63 	0.053412 	4924 	0.052936
38.65 	0.060187 	4918 	0.058877
38.67 	0.050435 	4937 	0.049823
38.69 	0.054653 	4922 	0.054296
38.71 	0.059911 	4924 	0.059197
38.73 	0.055104 	4918 	0.054746
38.75 	0.049929 	4927 	0.049334
38.77 	0.052813 	4923 	0.051742
38.79 	0.054520 	4934 	0.053926
38.81 	0.053339 	4912 	0.052981
38.83 	0.054076 	4919 	0.052647
38.85 	0.050285 	4912 	0.049092
38.87 	0.055386 	4911 	0.055028
38.89 	0.051664 	4897 	0.050827
38.91 	0.047522 	4903 	0.047044
38.93 	0.056501 	4938 	0.056026
38.95 	0.055714 	4918 	0.054999
38.97 	0.051916 	4931 	0.050728
38.99 	0.059550 	4937 	0.058364
39.01 	0.049410 	4918 	0.049053
39.03 	0.056141 	4934 	0.055073
39.05 	0.054416 	4925 	0.053069
39.07 	0.055646 	4924 	0.055170
39.09 	0.054845 	4923 	0.054250
39.11 	0.051511 	4931 	0.050798
39.13 	0.052204 	4923 	0.051490
39.15 	0.056358 	4915 	0.055147
39.17 	0.051853 	4937 	0.051379
39.19 	0.050437 	4917 	0.049961
39.21 	0.057841 	4910 	0.056748
39.23 	0.055431 	4925 	0.054361
39.25 	0.055465 	4922 	0.054513
39.27 	0.049898 	4910 	0.048824
39.29 	0.056723 	4901 	0.056006
39.31 	0.052211 	4884 	0.051372
39.33 	0.056175 	4931 	0.055087
39.35 	0.047011 	4935 	0.046418
39.37 	0.048083 	4929 	0.047370
39.39 	0.057821 	4929 	0.056633
39.41 	0.052525 	4931 	0.051574
39.43 	0.053923 	4933 	0.053210
39.45 	0.056853 	4925 	0.055782
39.47 	0.059517 	4923 	0.058922
39.49 	0.053112 	4933 	0.052637
39.51 	0.060114 	4924 	0.059519
39.53 	0.053829 	4923 	0.052758
39.55 	0.058955 	4919 	0.058241
39.57 	0.052909 	4933 	0.052296
39.59 	0.059650 	4912 	0.059173
39.61 	0.057485 	4923 	0.056533
39.63 	0.051402 	4922 	0.050926
39.65 	0.043443 	4926 	0.043205
39.67 	0.054346 	4913 	0.053630
39.69 	0.053295 	4916 	0.052322
39.71 	0.054545 	4895 	0.053468
39.73 	0.055012 	4908 	0.054654
39.75 	0.059659 	4928 	0.058114
39.77 	0.054509 	4935 	0.053421
39.79 	0.049330 	4926 	0.049092
39.81 	0.054191 	4927 	0.053478
39.83 	0.054520 	4934 	0.053570
39.85 	0.049726 	4927 	0.049250
39.87 	0.053198 	4925 	0.052365
39.89 	0.055938 	4934 	0.054375
39.91 	0.053027 	4922 	0.052313
39.93 	0.060158 	4937 	0.059209
39.95 	0.047406 	4915 	0.046452
39.97 	0.055804 	4928 	0.055090
39.99 	0.053325 	4932 	0.052138
40.01 	0.048190 	4918 	0.047833
40.03 	0.051339 	4928 	0.050745
40.05 	0.052064 	4917 	0.051588
40.07 	0.050173 	4923 	0.049221
40.09 	0.053906 	4916 	0.053310
40.11 	0.052685 	4916 	0.051970
40.13 	0.050245 	4896 	0.049767
40.15 	0.055567 	4913 	0.054593
40.17 	0.053571 	4928 	0.052739
40.19 	0.053155 	4929 	0.052204
40.21 	0.052888 	4935 	0.051819
40.23 	0.053528 	4932 	0.052697
40.25 	0.049593 	4920 	0.048026
40.27 	0.045169 	4937 	0.044339
40.29 	0.048711 	4927 	0.048236
40.31 	0.050010 	4939 	0.049417
40.33 	0.051906 	4932 	0.050817
40.35 	0.052246 	4919 	0.051175
40.37 	0.051532 	4929 	0.050938
40.39 	0.053336 	4931 	0.052742
40.41 	0.053401 	4925 	0.052449
40.43 	0.054043 	4922 	0.053329
40.45 	0.054531 	4933 	0.053799
40.47 	0.050834 	4918 	0.049881
40.49 	0.050954 	4926 	0.050241
40.51 	0.057497 	4922 	0.057259
40.53 	0.049837 	4916 	0.048765
40.55 	0.049918 	4908 	0.049441
40.57 	0.056646 	4890 	0.056047
40.59 	0.051853 	4937 	0.050667
40.61 	0.048024 	4935 	0.047193
40.63 	0.053955 	4930 	0.053124
40.65 	0.052461 	4937 	0.051868
40.67 	0.051095 	4932 	0.050620
40.69 	0.049828 	4937 	0.049591
40.71 	0.056772 	4932 	0.055941
40.73 	0.048315 	4926 	0.047582
40.75 	0.049280 	4931 	0.048686
40.77 	0.053857 	4939 	0.053145
40.79 	0.051584 	4924 	0.050870
40.81 	0.056669 	4941 	0.055127
40.83 	0.052354 	4928 	0.051997
40.85 	0.053615 	4924 	0.052782
40.87 	0.055398 	4928 	0.054090
40.89 	0.056378 	4931 	0.055190
40.91 	0.047735 	4923 	0.046645
40.93 	0.049453 	4934 	0.048859
40.95 	0.046204 	4913 	0.045369
40.97 	0.046304 	4924 	0.045709
40.99 	0.053412 	4924 	0.052460
41.01 	0.058632 	4912 	0.058036
41.03 	0.054230 	4905 	0.053633
41.05 	0.045178 	4936 	0.044704
41.07 	0.052738 	4930 	0.051788
41.09 	0.050010 	4939 	0.049180
41.11 	0.049443 	4935 	0.048731
41.13 	0.053282 	4936 	0.052095
41.15 	0.052419 	4941 	0.051352
41.17 	0.048845 	4934 	0.048469
41.19 	0.050507 	4930 	0.050032
41.21 	0.049828 	4937 	0.049591
41.23 	0.043734 	4939 	0.043141
41.25 	0.051287 	4933 	0.050456
41.27 	0.049888 	4931 	0.049176
41.29 	0.045252 	4928 	0.044182
41.31 	0.048652 	4933 	0.048058
41.33 	0.045169 	4937 	0.044932
41.35 	0.051640 	4938 	0.050810
41.37 	0.047929 	4924 	0.047096
41.39 	0.050679 	4933 	0.050323
41.41 	0.045473 	4926 	0.044878
41.43 	0.048691 	4929 	0.047978
41.45 	0.051079 	4914 	0.050483
41.47 	0.047503 	4926 	0.047027
41.49 	0.046198 	4892 	0.045360
41.51 	0.046154 	4940 	0.045561
41.53 	0.053196 	4944 	0.052840
41.55 	0.051469 	4935 	0.050638
41.57 	0.050192 	4941 	0.049461
41.59 	0.049463 	4933 	0.048632
41.61 	0.044418 	4953 	0.044181
41.63 	0.050020 	4938 	0.049427
41.65 	0.043417 	4929 	0.042347
41.67 	0.043927 	4940 	0.043453
41.69 	0.047504 	4947 	0.047148
41.71 	0.046818 	4934 	0.045987
41.73 	0.052066 	4936 	0.051354
41.75 	0.050112 	4929 	0.049755
41.77 	0.047764 	4941 	0.046796
41.79 	0.050769 	4944 	0.050176
41.81 	0.051053 	4936 	0.049867
41.83 	0.044643 	4928 	0.044167
41.85 	0.044138 	4939 	0.043664
41.87 	0.049240 	4935 	0.048647
41.89 	0.048855 	4933 	0.048142
41.91 	0.047002 	4936 	0.045934
41.93 	0.042579 	4932 	0.042460
41.95 	0.055972 	4931 	0.054784
41.97 	0.041921 	4914 	0.041325
41.99 	0.045872 	4905 	0.045513
42.01 	0.043302 	4942 	0.042710
42.03 	0.039887 	4939 	0.039412
42.05 	0.046244 	4952 	0.045652
42.07 	0.047600 	4937 	0.046512
42.09 	0.048707 	4948 	0.047996
42.11 	0.048332 	4945 	0.047502
42.13 	0.049545 	4945 	0.048479
42.15 	0.046780 	4938 	0.045950
42.17 	0.046360 	4918 	0.045507
42.19 	0.041565 	4908 	0.040849
42.21 	0.043461 	4901 	0.042982
42.23 	0.048651 	4892 	0.047913
42.25 	0.048272 	4889 	0.047673
42.27 	0.047189 	4874 	0.046708
42.29 	0.043389 	4863 	0.042907
42.31 	0.047786 	4855 	0.046700
42.33 	0.046338 	4834 	0.045733
42.35 	0.049194 	4838 	0.048831
42.37 	0.045135 	4830 	0.044649
42.39 	0.041216 	4804 	0.040342
42.41 	0.046836 	4804 	0.045860
42.43 	0.043614 	4792 	0.043003
42.45 	0.043760 	4776 	0.043393
42.47 	0.046800 	4765 	0.045939
42.49 	0.045121 	4765 	0.044629
42.51 	0.049336 	4743 	0.048471
42.53 	0.045685 	4728 	0.044942
42.55 	0.044817 	4708 	0.044195
42.57 	0.050740 	4730 	0.049873
42.59 	0.045464 	4729 	0.045093
42.61 	0.048003 	4708 	0.047381
42.63 	0.045870 	4709 	0.045372
42.65 	0.043970 	4685 	0.043595
42.67 	0.048463 	4684 	0.048213
42.69 	0.045571 	4674 	0.045321
42.71 	0.045035 	4663 	0.044407
42.73 	0.042026 	4640 	0.041395
42.75 	0.050466 	4617 	0.049831
42.77 	0.042826 	4600 	0.042189
42.79 	0.049105 	4582 	0.048210
42.81 	0.044717 	4562 	0.044460
42.83 	0.042769 	4536 	0.042640
42.85 	0.047703 	4528 	0.047574
42.87 	0.045343 	4499 	0.044823
42.89 	0.043080 	4480 	0.042819
42.91 	0.046679 	4456 	0.046021
42.93 	0.046784 	4446 	0.045993
42.95 	0.048007 	4416 	0.047190
42.97 	0.045217 	4401 	0.044685
42.99 	0.050399 	4385 	0.049063
43.01 	0.044923 	4363 	0.044923
43.03 	0.047311 	4333 	0.046500
43.05 	0.043468 	4325 	0.043040
43.07 	0.045857 	4296 	0.045720
43.09 	0.044828 	4283 	0.044145
43.11 	0.050294 	4255 	0.049330
43.13 	0.043427 	4237 	0.042597
43.15 	0.041845 	4206 	0.041566
43.17 	0.039722 	4179 	0.039582
43.19 	0.049356 	4194 	0.048099
43.21 	0.050336 	4172 	0.049774
43.23 	0.037795 	4154 	0.037513
43.25 	0.049093 	4135 	0.048101
43.27 	0.047016 	4105 	0.046588
43.29 	0.045854 	4100 	0.044996
43.31 	0.042167 	4079 	0.041736
43.33 	0.039743 	4051 	0.039165
43.35 	0.041171 	4032 	0.040880
43.37 	0.044832 	4015 	0.044248
43.39 	0.045977 	4002 	0.045245
43.41 	0.043807 	3972 	0.043807
43.43 	0.044949 	3960 	0.044062
43.45 	0.045489 	3935 	0.045043
43.47 	0.046417 	3921 	0.045520
43.49 	0.046703 	3897 	0.045951
43.51 	0.040495 	3877 	0.040042
43.53 	0.046337 	3863 	0.045579
43.55 	0.046221 	2964 	0.045431
43.57 	0.037534 	2238 	0.037010
43.59 	0.049255 	1746 	0.048194
43.61 	0.045152 	1351 	0.044285
43.63 	0.047952 	1001 	0.046196
43.65 	0.059680 	687 	0.058827
43.67 	0.055777 	502 	0.052276
43.69 	0.046322 	367 	0.044725
43.71 	0.046025 	239 	0.046025
43.73 	0.041667 	120 	0.041667
43.75 	0.000000 	16 	0.000000