File: Example_Data/25SC_s1_0008.004.dat
#F C:\frames\spec\25SC_s1_0008.004
#C title =s:8 frm:4 25SC_s1
#C wavelength =0.15406

#S 1  fr_average C:\frames\spec\25SC_s1_0008.004 C:\win32app\speccom\mask.axs chi 0 180 0 360 0.02
#C 2 theta =0.000000 to 180 deg
#C   q   =0.000000 to 81.568 nm^-1
#C  chi  =0.000000 to 360 deg
#C collumns:
#C  1 position (2theta or chi in degrees)
#C  2 average intensity (sum of all counts in the region divided with number of pixels)
#C  3 Number of pixels in region)
#C  4 error (sum of sqrt(intensity) for all pixels divided by number)
#N 4
#L TTh  Int  N_pix  Err
32.99 	0.049180 	61 	0.049180
33.01 	0.058419 	873 	0.058419
33.03 	0.058950 	1391 	0.058108
33.05 	0.054069 	1757 	0.053403
33.07 	0.064878 	2050 	0.063449
33.09 	0.063911 	2347 	0.063163
33.11 	0.060489 	2579 	0.058180
33.13 	0.052632 	2793 	0.051339
33.15 	0.054685 	2999 	0.053513
33.17 	0.054670 	3201 	0.053755
33.19 	0.059246 	3342 	0.057990
33.21 	0.063446 	3436 	0.062593
33.23 	0.061311 	3523 	0.059788
33.25 	0.060908 	3612 	0.059611
33.27 	0.056749 	3630 	0.056265
33.29 	0.053454 	3648 	0.052651
33.31 	0.053005 	3660 	0.051885
33.33 	0.056158 	3686 	0.054887
33.35 	0.059285 	3694 	0.058334
33.37 	0.067851 	3714 	0.066432
33.39 	0.057656 	3729 	0.056242
33.41 	0.061765 	3740 	0.061295
33.43 	0.068333 	3761 	0.066931
33.45 	0.063875 	3773 	0.062322
33.47 	0.056609 	3798 	0.055221
33.49 	0.053032 	3809 	0.052263
33.51 	0.053211 	3815 	0.052290
33.53 	0.061182 	3841 	0.059657
33.55 	0.050481 	3843 	0.050177
33.57 	0.051844 	3877 	0.051064
33.59 	0.060309 	3880 	0.059705
33.61 	0.061141 	3909 	0.060092
33.63 	0.054095 	3919 	0.053473
33.65 	0.063597 	3931 	0.062405
33.67 	0.057410 	3954 	0.056966
33.69 	0.058943 	3953 	0.058202
33.71 	0.060377 	3975 	0.058904
33.73 	0.062687 	4004 	0.060932
33.75 	0.059765 	3999 	0.058154
33.77 	0.054161 	4025 	0.052682
33.79 	0.054442 	4041 	0.053862
33.81 	0.054978 	4038 	0.053817
33.83 	0.064198 	4050 	0.063619
33.85 	0.066358 	4099 	0.065500
33.87 	0.062272 	4111 	0.060705
33.89 	0.066974 	4121 	0.064984
33.91 	0.058086 	4149 	0.057239
33.93 	0.065767 	4151 	0.064779
33.95 	0.056685 	4181 	0.055984
33.97 	0.059905 	4190 	0.058483
33.99 	0.056667 	4200 	0.056248
34.01 	0.061951 	4213 	0.060700
34.03 	0.062205 	4244 	0.061239
34.05 	0.059972 	4252 	0.058709
34.07 	0.064902 	4268 	0.063392
34.09 	0.062529 	4286 	0.061572
34.11 	0.058345 	4302 	0.057392
34.13 	0.066388 	4308 	0.065572
34.15 	0.060956 	4331 	0.060009
34.17 	0.060460 	4350 	0.059113
34.19 	0.065796 	4362 	0.064162
34.21 	0.060856 	4371 	0.060320
34.23 	0.055315 	4393 	0.054915
34.25 	0.060400 	4404 	0.059868
34.27 	0.062415 	4422 	0.061488
34.29 	0.059301 	4435 	0.058773
34.31 	0.058546 	4458 	0.057627
34.33 	0.066204 	4471 	0.065025
34.35 	0.057315 	4484 	0.056531
34.37 	0.064574 	4491 	0.063269
34.39 	0.062195 	4502 	0.061154
34.41 	0.053469 	4526 	0.052671
34.43 	0.062789 	4539 	0.061628
34.45 	0.059537 	4535 	0.058891
34.47 	0.055967 	4592 	0.055584
34.49 	0.053731 	4597 	0.052839
34.51 	0.060356 	4606 	0.059720
34.53 	0.061598 	4643 	0.060715
34.55 	0.060090 	4643 	0.059333
34.57 	0.059013 	4660 	0.057232
34.59 	0.065241 	4675 	0.063821
34.61 	0.061529 	4697 	0.060531
34.63 	0.069427 	4710 	0.068432
34.65 	0.057615 	4721 	0.056250
34.67 	0.063278 	4741 	0.062660
34.69 	0.052167 	4754 	0.051181
34.71 	0.062316 	4766 	0.061087
34.73 	0.058701 	4787 	0.057355
34.75 	0.056572 	4808 	0.055598
34.77 	0.057908 	4818 	0.055841
34.79 	0.062811 	4824 	0.061718
34.81 	0.065222 	4845 	0.064255
34.83 	0.055944 	4862 	0.055703
34.85 	0.056891 	4869 	0.056409
34.87 	0.063681 	4868 	0.062959
34.89 	0.068824 	4882 	0.067384
34.91 	0.064523 	4882 	0.062343
34.93 	0.062053 	4899 	0.060619
34.95 	0.054806 	4890 	0.054187
34.97 	0.058140 	4902 	0.057184
34.99 	0.051052 	4897 	0.050095
35.01 	0.055454 	4923 	0.054383
35.03 	0.060287 	4943 	0.059576
35.05 	0.061249 	4947 	0.061012
35.07 	0.060931 	4940 	0.060457
35.09 	0.060771 	4953 	0.059589
35.11 	0.065696 	4947 	0.064394
35.13 	0.057281 	4958 	0.056572
35.15 	0.065627 	4937 	0.064796
35.17 	0.059644 	4946 	0.057967
35.19 	0.055241 	4942 	0.053700
35.21 	0.061072 	4945 	0.060479
35.23 	0.056421 	4945 	0.054980
35.25 	0.066356 	4943 	0.064915
35.27 	0.058812 	4948 	0.058101
35.29 	0.058038 	4945 	0.057091
35.31 	0.058180 	4933 	0.057348
35.33 	0.060894 	4943 	0.060183
35.35 	0.060097 	4942 	0.058892
35.37 	0.062361 	4939 	0.061293
35.39 	0.058443 	4945 	0.057239
35.41 	0.061104 	4926 	0.059440
35.43 	0.063248 	4933 	0.062298
35.45 	0.061981 	4937 	0.061131
35.47 	0.065301 	4931 	0.064707
35.49 	0.067821 	4910 	0.067105
35.51 	0.066382 	4926 	0.065293
35.53 	0.061022 	4949 	0.060174
35.55 	0.062487 	4945 	0.060809
35.57 	0.062842 	4933 	0.061892
35.59 	0.058038 	4945 	0.057091
35.61 	0.056050 	4942 	0.055576
35.63 	0.058264 	4943 	0.056941
35.65 	0.060667 	4945 	0.059483
35.67 	0.060097 	4942 	0.059149
35.69 	0.063081 	4946 	0.061778
35.71 	0.061373 	4937 	0.060543
35.73 	0.058752 	4936 	0.057328
35.75 	0.057798 	4931 	0.056966
35.77 	0.062614 	4951 	0.061667
35.79 	0.065491 	4932 	0.063353
35.81 	0.065275 	4933 	0.063375
35.83 	0.059644 	4946 	0.058815
35.85 	0.060790 	4935 	0.060059
35.87 	0.057688 	4923 	0.057093
35.89 	0.058573 	4934 	0.057505
35.91 	0.058656 	4927 	0.058062
35.93 	0.062919 	4927 	0.061591
35.95 	0.059182 	4917 	0.058348
35.97 	0.059446 	4912 	0.058850
35.99 	0.060336 	4939 	0.058893
36.01 	0.064503 	4930 	0.063790
36.03 	0.055837 	4943 	0.054888
36.05 	0.066127 	4945 	0.064706
36.07 	0.057299 	4939 	0.056587
36.09 	0.060931 	4940 	0.059864
36.11 	0.068980 	4929 	0.067553
36.13 	0.054229 	4942 	0.053399
36.15 	0.056489 	4939 	0.055659
36.17 	0.065381 	4925 	0.063240
36.19 	0.059109 	4940 	0.057093
36.21 	0.065936 	4929 	0.064629
36.23 	0.061398 	4935 	0.059836
36.25 	0.063550 	4941 	0.062483
36.27 	0.055228 	4925 	0.054634
36.29 	0.059014 	4931 	0.057945
36.31 	0.062500 	4928 	0.060816
36.33 	0.057571 	4933 	0.056364
36.35 	0.062487 	4929 	0.061299
36.37 	0.058095 	4923 	0.056786
36.39 	0.053038 	4921 	0.052919
36.41 	0.062296 	4896 	0.060860
36.43 	0.060674 	4928 	0.059842
36.45 	0.058418 	4930 	0.057567
36.47 	0.061994 	4936 	0.060925
36.49 	0.063537 	4942 	0.062470
36.51 	0.061018 	4933 	0.060186
36.53 	0.059883 	4943 	0.059053
36.55 	0.058453 	4927 	0.057502
36.57 	0.062627 	4934 	0.060945
36.59 	0.056894 	4939 	0.056657
36.61 	0.054756 	4931 	0.053924
36.63 	0.054350 	4931 	0.053113
36.65 	0.061841 	4932 	0.060515
36.67 	0.053550 	4930 	0.052718
36.69 	0.062487 	4929 	0.061418
36.71 	0.059338 	4921 	0.058980
36.73 	0.055838 	4925 	0.054529
36.75 	0.065939 	4944 	0.065228
36.77 	0.060785 	4919 	0.059693
36.79 	0.060150 	4921 	0.059317
36.81 	0.064890 	4916 	0.063579
36.83 	0.062258 	4915 	0.061305
36.85 	0.055533 	4898 	0.053859
36.87 	0.063511 	4944 	0.062326
36.89 	0.055330 	4916 	0.054972
36.91 	0.058693 	4941 	0.057981
36.93 	0.060852 	4930 	0.059763
36.95 	0.055544 	4933 	0.054832
36.97 	0.063437 	4934 	0.062606
36.99 	0.055117 	4935 	0.053811
37.01 	0.056558 	4933 	0.055845
37.03 	0.054224 	4924 	0.053391
37.05 	0.063122 	4927 	0.062289
37.07 	0.059777 	4935 	0.058946
37.09 	0.059456 	4928 	0.058486
37.11 	0.058967 	4935 	0.058136
37.13 	0.058286 	4924 	0.057453
37.15 	0.057853 	4909 	0.056779
37.17 	0.055533 	4934 	0.054583
37.19 	0.058680 	4925 	0.057729
37.21 	0.057149 	4917 	0.056672
37.23 	0.058764 	4918 	0.058049
37.25 	0.062105 	4911 	0.061748
37.27 	0.057622 	4894 	0.057003
37.29 	0.057809 	4930 	0.056146
37.31 	0.051874 	4935 	0.050569
37.33 	0.056424 	4927 	0.055948
37.35 	0.053463 	4938 	0.052514
37.37 	0.059671 	4927 	0.058007
37.39 	0.052728 	4931 	0.051540
37.41 	0.053336 	4931 	0.052267
37.43 	0.050487 	4932 	0.050012
37.45 	0.055443 	4924 	0.054015
37.47 	0.057415 	4929 	0.056683
37.49 	0.055454 	4923 	0.053788
37.51 	0.057774 	4933 	0.056587
37.53 	0.055906 	4919 	0.054953
37.55 	0.056795 	4930 	0.055488
37.57 	0.048325 	4925 	0.047968
37.59 	0.058596 	4915 	0.057285
37.61 	0.052621 	4922 	0.051788
37.63 	0.051027 	4919 	0.050074
37.65 	0.058154 	4918 	0.057916
37.67 	0.050163 	4904 	0.049307
37.69 	0.059004 	4898 	0.057808
37.71 	0.055184 	4929 	0.054471
37.73 	0.053155 	4929 	0.052679
37.75 	0.054656 	4940 	0.054419
37.77 	0.055894 	4920 	0.054446
37.79 	0.061055 	4930 	0.059985
37.81 	0.050476 	4933 	0.049883
37.83 	0.055488 	4920 	0.054892
37.85 	0.056278 	4922 	0.055683
37.87 	0.051225 	4939 	0.050632
37.89 	0.056041 	4925 	0.055327
37.91 	0.059432 	4930 	0.058600
37.93 	0.060175 	4919 	0.059222
37.95 	0.055070 	4921 	0.053999
37.97 	0.057618 	4929 	0.055598
37.99 	0.059446 	4912 	0.058373
38.01 	0.051948 	4928 	0.051473
38.03 	0.063149 	4909 	0.061717
38.05 	0.054213 	4925 	0.053737
38.07 	0.055205 	4909 	0.054250
38.09 	0.054736 	4878 	0.054135
38.11 	0.056332 	4935 	0.055601
38.13 	0.057322 	4937 	0.056729
38.15 	0.055714 	4918 	0.054622
38.17 	0.056592 	4930 	0.055761
38.19 	0.064300 	4930 	0.062280
38.21 	0.066220 	4923 	0.065149
38.23 	0.058323 	4938 	0.057611
38.25 	0.062030 	4917 	0.061553
38.27 	0.068154 	4930 	0.066491
38.29 	0.067019 	4924 	0.065472
38.31 	0.066978 	4927 	0.065650
38.33 	0.068237 	4924 	0.067285
38.35 	0.067776 	4928 	0.066350
38.37 	0.066206 	4924 	0.064521
38.39 	0.073538 	4909 	0.071152
38.41 	0.072314 	4923 	0.070410
38.43 	0.066517 	4916 	0.065564
38.45 	0.071777 	4918 	0.069356
38.47 	0.067862 	4907 	0.066191
38.49 	0.066024 	4877 	0.064703
38.51 	0.060422 	4932 	0.059214
38.53 	0.054372 	4929 	0.053778
38.55 	0.061183 	4936 	0.060352
38.57 	0.065814 	4923 	0.064842
38.59 	0.061535 	4924 	0.059751
38.61 	0.055105 	4936 	0.054156
38.63 	0.058692 	4924 	0.057384
38.65 	0.056324 	4918 	0.055490
38.67 	0.059955 	4937 	0.059244
38.69 	0.061967 	4922 	0.060896
38.71 	0.061332 	4924 	0.060381
38.73 	0.062017 	4918 	0.061660
38.75 	0.050741 	4927 	0.050365
38.77 	0.058501 	4923 	0.057430
38.79 	0.062221 	4934 	0.061390
38.81 	0.050285 	4912 	0.049689
38.83 	0.056516 	4919 	0.056039
38.85 	0.059650 	4912 	0.058696
38.87 	0.063124 	4911 	0.062408
38.89 	0.056974 	4897 	0.055897
38.91 	0.058128 	4903 	0.056575
38.93 	0.058323 	4938 	0.057374
38.95 	0.054087 	4918 	0.052757
38.97 	0.054958 	4931 	0.054721
38.99 	0.052866 	4937 	0.051798
39.01 	0.060187 	4918 	0.059353
39.03 	0.061005 	4934 	0.059680
39.05 	0.057259 	4925 	0.056664
39.07 	0.048538 	4924 	0.048062
39.09 	0.053423 	4923 	0.052332
39.11 	0.058203 	4931 	0.057728
39.13 	0.059110 	4923 	0.057682
39.15 	0.049440 	4915 	0.048725
39.17 	0.050638 	4937 	0.049926
39.19 	0.051251 	4917 	0.050417
39.21 	0.051935 	4910 	0.051577
39.23 	0.050964 	4925 	0.050251
39.25 	0.056481 	4922 	0.055747
39.27 	0.054786 	4910 	0.054190
39.29 	0.051418 	4901 	0.050820
39.31 	0.057125 	4884 	0.055566
39.33 	0.051511 	4931 	0.050679
39.35 	0.057143 	4935 	0.056193
39.37 	0.056198 	4929 	0.055604
39.39 	0.055589 	4929 	0.054876
39.41 	0.057392 	4931 	0.056541
39.43 	0.054328 	4933 	0.053853
39.45 	0.052792 	4925 	0.052078
39.47 	0.052610 	4923 	0.051758
39.49 	0.055342 	4933 	0.054392
39.51 	0.053818 	4924 	0.053223
39.53 	0.050173 	4923 	0.049340
39.55 	0.051433 	4919 	0.050838
39.57 	0.058788 	4933 	0.057937
39.59 	0.056393 	4912 	0.054703
39.61 	0.053626 	4923 	0.052912
39.63 	0.051605 	4922 	0.050415
39.65 	0.059886 	4926 	0.058816
39.67 	0.058213 	4913 	0.057498
39.69 	0.057567 	4916 	0.056475
39.71 	0.056588 	4895 	0.055870
39.73 	0.057661 	4908 	0.056587
39.75 	0.053369 	4928 	0.052517
39.77 	0.052077 	4935 	0.051365
39.79 	0.055217 	4926 	0.054266
39.81 	0.055815 	4927 	0.055458
39.83 	0.056749 	4934 	0.055562
39.85 	0.059468 	4927 	0.058022
39.87 	0.057868 	4925 	0.057392
39.89 	0.055533 	4934 	0.054939
39.91 	0.058106 	4922 	0.056797
39.93 	0.053879 	4937 	0.053167
39.95 	0.054730 	4915 	0.053539
39.97 	0.058644 	4928 	0.057694
39.99 	0.054136 	4932 	0.052810
40.01 	0.055917 	4918 	0.054845
40.03 	0.057630 	4928 	0.057016
40.05 	0.050031 	4917 	0.049197
40.07 	0.054235 	4923 	0.053283
40.09 	0.059601 	4916 	0.058767
40.11 	0.051668 	4916 	0.051072
40.13 	0.054126 	4896 	0.053647
40.15 	0.053328 	4913 	0.052732
40.17 	0.054789 	4928 	0.054313
40.19 	0.056198 	4929 	0.054990
40.21 	0.059980 	4935 	0.059030
40.23 	0.054947 	4932 	0.054235
40.25 	0.053049 	4920 	0.051977
40.27 	0.056512 	4937 	0.055563
40.29 	0.053785 	4927 	0.053191
40.31 	0.049605 	4939 	0.049131
40.33 	0.057380 	4932 	0.056549
40.35 	0.046961 	4919 	0.046008
40.37 	0.053966 	4929 	0.052659
40.39 	0.050497 	4931 	0.050022
40.41 	0.048934 	4925 	0.048101
40.43 	0.048151 	4922 	0.047675
40.45 	0.051287 	4933 	0.050456
40.47 	0.051037 	4918 	0.050561
40.49 	0.055826 	4926 	0.055113
40.51 	0.053027 	4922 	0.052075
40.53 	0.049837 	4916 	0.049718
40.55 	0.049104 	4908 	0.048507
40.57 	0.055010 	4890 	0.054052
40.59 	0.047397 	4937 	0.047160
40.61 	0.055319 	4935 	0.054844
40.63 	0.053955 	4930 	0.053480
40.65 	0.051853 	4937 	0.051379
40.67 	0.048865 	4932 	0.048014
40.69 	0.046384 	4937 	0.045910
40.71 	0.056164 	4932 	0.055332
40.73 	0.053390 	4926 	0.053033
40.75 	0.054350 	4931 	0.053518
40.77 	0.049200 	4939 	0.048607
40.79 	0.051178 	4924 	0.050345
40.81 	0.055454 	4941 	0.054368
40.83 	0.054586 	4928 	0.053635
40.85 	0.056458 	4924 	0.056220
40.87 	0.051948 	4928 	0.051235
40.89 	0.048672 	4931 	0.048315
40.91 	0.056470 	4923 	0.054903
40.93 	0.047831 	4934 	0.047119
40.95 	0.050885 	4913 	0.049673
40.97 	0.052396 	4924 	0.051326
40.99 	0.052803 	4924 	0.052089
41.01 	0.050896 	4912 	0.049465
41.03 	0.055046 	4905 	0.054090
41.05 	0.057536 	4936 	0.056587
41.07 	0.053144 	4930 	0.052431
41.09 	0.051630 	4939 	0.051155
41.11 	0.048632 	4935 	0.047683
41.13 	0.051256 	4936 	0.050663
41.15 	0.054240 	4941 	0.053410
41.17 	0.053912 	4934 	0.053199
41.19 	0.057201 	4930 	0.056607
41.21 	0.048410 	4937 	0.047579
41.23 	0.048188 	4939 	0.047713
41.25 	0.046827 	4933 	0.045996
41.27 	0.047860 	4931 	0.047504
41.29 	0.049716 	4928 	0.048765
41.31 	0.049260 	4933 	0.049023
41.33 	0.052258 	4937 	0.051902
41.35 	0.056501 	4938 	0.055058
41.37 	0.052396 	4924 	0.052040
41.39 	0.051895 	4933 	0.051420
41.41 	0.051157 	4926 	0.050087
41.43 	0.052749 	4929 	0.052036
41.45 	0.050672 	4914 	0.049837
41.47 	0.047097 	4926 	0.046126
41.49 	0.050286 	4892 	0.049687
41.51 	0.056275 	4940 	0.054971
41.53 	0.051375 	4944 	0.050664
41.55 	0.058967 	4935 	0.057760
41.57 	0.053228 	4941 	0.052142
41.59 	0.048855 	4933 	0.047905
41.61 	0.054109 	4953 	0.053162
41.63 	0.055286 	4938 	0.054574
41.65 	0.048894 	4929 	0.047686
41.67 	0.044534 	4940 	0.043586
41.69 	0.045280 	4947 	0.044925
41.71 	0.048034 	4934 	0.047203
41.73 	0.049838 	4936 	0.049245
41.75 	0.050517 	4929 	0.049804
41.77 	0.049787 	4941 	0.049195
41.79 	0.047532 	4944 	0.047058
41.81 	0.049230 	4936 	0.048755
41.83 	0.047078 	4928 	0.046127
41.85 	0.050820 	4939 	0.050207
41.87 	0.048430 	4935 	0.047836
41.89 	0.044598 	4933 	0.044360
41.91 	0.056929 	4936 	0.056454
41.93 	0.052717 	4932 	0.052242
41.95 	0.048063 	4931 	0.047826
41.97 	0.049247 	4914 	0.049009
41.99 	0.050968 	4905 	0.050013
42.01 	0.045123 	4942 	0.044412
42.03 	0.050618 	4939 	0.050262
42.05 	0.053514 	4952 	0.052686
42.07 	0.046587 	4937 	0.046112
42.09 	0.048707 	4948 	0.047878
42.11 	0.050152 	4945 	0.049184
42.13 	0.050152 	4945 	0.049322
42.15 	0.044350 	4938 	0.043520
42.17 	0.049614 	4918 	0.049018
42.19 	0.048289 	4908 	0.046976
42.21 	0.060396 	4901 	0.059320
42.23 	0.047833 	4892 	0.047115
42.25 	0.050317 	4889 	0.049359
42.27 	0.044317 	4874 	0.043596
42.29 	0.046268 	4863 	0.045545
42.31 	0.044696 	4855 	0.043610
42.33 	0.052131 	4834 	0.051525
42.35 	0.043613 	4838 	0.042887
42.37 	0.049482 	4830 	0.048391
42.39 	0.050999 	4804 	0.050268
42.41 	0.047877 	4804 	0.047267
42.43 	0.051336 	4792 	0.050093
42.45 	0.046064 	4776 	0.045818
42.47 	0.048898 	4765 	0.048284
42.49 	0.045960 	4765 	0.045591
42.51 	0.045541 	4743 	0.045047
42.53 	0.049281 	4728 	0.048166
42.55 	0.045879 	4708 	0.045382
42.57 	0.050951 	4730 	0.050064
42.59 	0.044407 	4729 	0.043911
42.61 	0.047579 	4708 	0.047081
42.63 	0.048206 	4709 	0.047335
42.65 	0.054216 	4685 	0.053340
42.67 	0.049744 	4684 	0.049244
42.69 	0.046855 	4674 	0.046584
42.71 	0.050611 	4663 	0.050109
42.73 	0.054526 	4640 	0.053516
42.75 	0.045701 	4617 	0.045193
42.77 	0.050217 	4600 	0.049432
42.79 	0.047577 	4582 	0.046938
42.81 	0.049978 	4562 	0.049208
42.83 	0.045855 	4536 	0.045468
42.85 	0.051678 	4528 	0.050902
42.87 	0.044232 	4499 	0.043581
42.89 	0.053125 	4480 	0.052340
42.91 	0.050494 	4456 	0.049705
42.93 	0.046334 	4446 	0.046070
42.95 	0.048687 	4416 	0.047891
42.97 	0.044990 	4401 	0.044457
42.99 	0.044698 	4385 	0.044030
43.01 	0.046069 	4363 	0.045532
43.03 	0.044773 	4333 	0.044097
43.05 	0.049942 	4325 	0.049514
43.07 	0.049814 	4296 	0.048723
43.09 	0.051599 	4283 	0.050915
43.11 	0.039718 	4255 	0.038892
43.13 	0.051452 	4237 	0.050760
43.15 	0.050880 	4206 	0.050300
43.17 	0.046901 	4179 	0.046200
43.19 	0.043157 	4194 	0.042878
43.21 	0.050575 	4172 	0.050014
43.23 	0.050554 	4154 	0.049285
43.25 	0.049577 	4135 	0.049152
43.27 	0.047259 	4105 	0.046546
43.29 	0.046829 	4100 	0.046544
43.31 	0.048296 	4079 	0.047865
43.33 	0.051345 	4051 	0.050333
43.35 	0.047123 	4032 	0.046687
43.37 	0.045579 	4015 	0.044995
43.39 	0.046227 	4002 	0.045202
43.41 	0.048842 	3972 	0.048547
43.43 	0.037879 	3960 	0.037879
43.45 	0.051588 	3935 	0.050993
43.47 	0.051262 	3921 	0.050665
43.49 	0.044137 	3897 	0.043986
43.51 	0.048749 	3877 	0.048145
43.53 	0.041419 	3863 	0.040964
43.55 	0.052294 	2964 	0.051306
43.57 	0.051385 	2238 	0.050862
43.59 	0.045819 	1746 	0.045819
43.61 	0.040711 	1351 	0.039843
43.63 	0.056943 	1001 	0.055187
43.65 	0.052402 	687 	0.051549
43.67 	0.053785 	502 	0.052618
43.69 	0.038147 	367 	0.038147
43.71 	0.046025 	239 	0.046025
43.73 	0.033333 	120 	0.033333
43.75 	0.000000 	16 	0.000000