File: Example_Data/25SC_s1_0040.001.dat
#F C:\frames\spec\25SC_s1_0040.001
#C title =s:40 frm:1 25SC_s1
#C wavelength =0.15406

#S 1  fr_average C:\frames\spec\25SC_s1_0040.001 C:\win32app\speccom\mask.axs chi 0 180 0 360 0.02
#C 2 theta =0.000000 to 180 deg
#C   q   =0.000000 to 81.568 nm^-1
#C  chi  =0.000000 to 360 deg
#C collumns:
#C  1 position (2theta or chi in degrees)
#C  2 average intensity (sum of all counts in the region divided with number of pixels)
#C  3 Number of pixels in region)
#C  4 error (sum of sqrt(intensity) for all pixels divided by number)
#N 4
#L TTh  Int  N_pix  Err
32.99 	0.081967 	61 	0.081967
33.01 	0.060710 	873 	0.058697
33.03 	0.059669 	1391 	0.057985
33.05 	0.068867 	1757 	0.067200
33.07 	0.054146 	2050 	0.054146
33.09 	0.070729 	2347 	0.068981
33.11 	0.064754 	2579 	0.062899
33.13 	0.048335 	2793 	0.047916
33.15 	0.054685 	2999 	0.053122
33.17 	0.060294 	3201 	0.058098
33.19 	0.055057 	3342 	0.054005
33.21 	0.056752 	3436 	0.056241
33.23 	0.055634 	3523 	0.055302
33.25 	0.060078 	3612 	0.058780
33.27 	0.059229 	3630 	0.058260
33.29 	0.052083 	3648 	0.051415
33.31 	0.057923 	3660 	0.056643
33.33 	0.067553 	3686 	0.066414
33.35 	0.060097 	3694 	0.058644
33.37 	0.063274 	3714 	0.062170
33.39 	0.061947 	3729 	0.060376
33.41 	0.051872 	3740 	0.050932
33.43 	0.053975 	3761 	0.053352
33.45 	0.062285 	3773 	0.061664
33.47 	0.057925 	3798 	0.057000
33.49 	0.054082 	3809 	0.053313
33.51 	0.055046 	3815 	0.054585
33.53 	0.055454 	3841 	0.055149
33.55 	0.059068 	3843 	0.058001
33.57 	0.059582 	3877 	0.058222
33.59 	0.062629 	3880 	0.061421
33.61 	0.065234 	3909 	0.064485
33.63 	0.058178 	3919 	0.057580
33.65 	0.054185 	3931 	0.052993
33.67 	0.059181 	3954 	0.058440
33.69 	0.058690 	3953 	0.058245
33.71 	0.059371 	3975 	0.058339
33.73 	0.060190 	4004 	0.059312
33.75 	0.060265 	3999 	0.059826
33.77 	0.059379 	4025 	0.059379
33.79 	0.056422 	4041 	0.055407
33.81 	0.062159 	4038 	0.060830
33.83 	0.054321 	4050 	0.053742
33.85 	0.062942 	4099 	0.062085
33.87 	0.055704 	4111 	0.055134
33.89 	0.063334 	4121 	0.062316
33.91 	0.063630 	4149 	0.062759
33.93 	0.057817 	4151 	0.056971
33.95 	0.058838 	4181 	0.058137
33.97 	0.057041 	4190 	0.056342
33.99 	0.056429 	4200 	0.055731
34.01 	0.056729 	4213 	0.056173
34.03 	0.054194 	4244 	0.053067
34.05 	0.055974 	4252 	0.055285
34.07 	0.056232 	4268 	0.055409
34.09 	0.055763 	4286 	0.054260
34.11 	0.057648 	4302 	0.056694
34.13 	0.057799 	4308 	0.056168
34.15 	0.058647 	4331 	0.057430
34.17 	0.057931 	4350 	0.056854
34.19 	0.059376 	4362 	0.058839
34.21 	0.058568 	4371 	0.057630
34.23 	0.060779 	4393 	0.059712
34.25 	0.052906 	4404 	0.051842
34.27 	0.062641 	4422 	0.061317
34.29 	0.060203 	4435 	0.059543
34.31 	0.058098 	4458 	0.057572
34.33 	0.058824 	4471 	0.057754
34.35 	0.060437 	4484 	0.059480
34.37 	0.054554 	4491 	0.054032
34.39 	0.062639 	4502 	0.061468
34.41 	0.058330 	4526 	0.056906
34.43 	0.054858 	4539 	0.054084
34.45 	0.059978 	4535 	0.058945
34.47 	0.056838 	4592 	0.056073
34.49 	0.055906 	4597 	0.055141
34.51 	0.051455 	4606 	0.050946
34.53 	0.058583 	4643 	0.057447
34.55 	0.053414 	4643 	0.052404
34.57 	0.050429 	4660 	0.049926
34.59 	0.060535 	4675 	0.059783
34.61 	0.059400 	4697 	0.058277
34.63 	0.052017 	4710 	0.051271
34.65 	0.055073 	4721 	0.054205
34.67 	0.054841 	4741 	0.054347
34.69 	0.058477 	4754 	0.057861
34.71 	0.057071 	4766 	0.056579
34.73 	0.054314 	4787 	0.053580
34.75 	0.051165 	4808 	0.050414
34.77 	0.060191 	4818 	0.059583
34.79 	0.061153 	4824 	0.059938
34.81 	0.058411 	4845 	0.057081
34.83 	0.055121 	4862 	0.054398
34.85 	0.052578 	4869 	0.051234
34.87 	0.055875 	4868 	0.054792
34.89 	0.054486 	4882 	0.053406
34.91 	0.054281 	4882 	0.053321
34.93 	0.055726 	4899 	0.054530
34.95 	0.050920 	4890 	0.050561
34.97 	0.057528 	4902 	0.057050
34.99 	0.054727 	4897 	0.053651
35.01 	0.059110 	4923 	0.058158
35.03 	0.057860 	4943 	0.056675
35.05 	0.058621 	4947 	0.058029
35.07 	0.056073 	4940 	0.055480
35.09 	0.059156 	4953 	0.058328
35.11 	0.051749 	4947 	0.050427
35.13 	0.058895 	4958 	0.057812
35.15 	0.055094 	4937 	0.054007
35.17 	0.058229 	4946 	0.056808
35.19 	0.051801 	4942 	0.051208
35.21 	0.056016 	4945 	0.055068
35.23 	0.056016 	4945 	0.054812
35.25 	0.062513 	4943 	0.060953
35.27 	0.061641 	4948 	0.060457
35.29 	0.061678 	4945 	0.060830
35.31 	0.053720 	4933 	0.053245
35.33 	0.057860 	4943 	0.057504
35.35 	0.054836 	4942 	0.054006
35.37 	0.057097 	4939 	0.055555
35.39 	0.060667 	4945 	0.059364
35.41 	0.057450 	4926 	0.057094
35.43 	0.057166 	4933 	0.056335
35.45 	0.051448 	4937 	0.050736
35.47 	0.051916 	4931 	0.051322
35.49 	0.054786 	4910 	0.053832
35.51 	0.052172 	4926 	0.051221
35.53 	0.054556 	4949 	0.053491
35.55 	0.056218 	4945 	0.055034
35.57 	0.056355 	4933 	0.055168
35.59 	0.051365 	4945 	0.050773
35.61 	0.060704 	4942 	0.059400
35.63 	0.047947 	4943 	0.047710
35.65 	0.050354 	4945 	0.050117
35.67 	0.060502 	4942 	0.059079
35.69 	0.047918 	4946 	0.047207
35.71 	0.056309 	4937 	0.055954
35.73 	0.059360 	4936 	0.058391
35.75 	0.055770 	4931 	0.054463
35.77 	0.054534 	4951 	0.053943
35.79 	0.054339 	4932 	0.053270
35.81 	0.051085 	4933 	0.050253
35.83 	0.051961 	4946 	0.050994
35.85 	0.062411 	4935 	0.060987
35.87 	0.050173 	4923 	0.049697
35.89 	0.057560 	4934 	0.057322
35.91 	0.049929 	4927 	0.049315
35.93 	0.052162 	4927 	0.051329
35.95 	0.057149 	4917 	0.056076
35.97 	0.057003 	4912 	0.056168
35.99 	0.060539 	4939 	0.059827
36.01 	0.054970 	4930 	0.053663
36.03 	0.053207 	4943 	0.052614
36.05 	0.051567 	4945 	0.050383
36.07 	0.054869 	4939 	0.053664
36.09 	0.059109 	4940 	0.058872
36.11 	0.052749 	4929 	0.051541
36.13 	0.056860 	4942 	0.056267
36.15 	0.056287 	4939 	0.055338
36.17 	0.058071 	4925 	0.057238
36.19 	0.056680 	4940 	0.056324
36.21 	0.063502 	4929 	0.062432
36.23 	0.053495 	4935 	0.052289
36.25 	0.054442 	4941 	0.053613
36.27 	0.058680 	4925 	0.057729
36.29 	0.060434 	4931 	0.058771
36.31 	0.054383 	4928 	0.053432
36.33 	0.056963 	4933 	0.056370
36.35 	0.056807 	4929 	0.055361
36.37 	0.057892 	4923 	0.057178
36.39 	0.058931 	4921 	0.057840
36.41 	0.053105 	4896 	0.052506
36.43 	0.054383 	4928 	0.053551
36.45 	0.060446 	4930 	0.059001
36.47 	0.056726 	4936 	0.055895
36.49 	0.055645 	4942 	0.054816
36.51 	0.055950 	4933 	0.055593
36.53 	0.054016 	4943 	0.053186
36.55 	0.055612 	4927 	0.054542
36.57 	0.059789 	4934 	0.059077
36.59 	0.056894 	4939 	0.056182
36.61 	0.056986 	4931 	0.056036
36.63 	0.061042 	4931 	0.059854
36.65 	0.051703 	4932 	0.051228
36.67 	0.056187 	4930 	0.055117
36.69 	0.056807 	4929 	0.056569
36.71 	0.059744 	4921 	0.059149
36.73 	0.061320 	4925 	0.059774
36.75 	0.056634 	4944 	0.055568
36.77 	0.051230 	4919 	0.050634
36.79 	0.055883 	4921 	0.055050
36.81 	0.059194 	4916 	0.058480
36.83 	0.054120 	4915 	0.053286
36.85 	0.053695 	4898 	0.052619
36.87 	0.058455 	4944 	0.057744
36.89 	0.061025 	4916 	0.059794
36.91 	0.053026 	4941 	0.052314
36.93 	0.055172 	4930 	0.054222
36.95 	0.056761 	4933 	0.055811
36.97 	0.054114 	4934 	0.053046
36.99 	0.054103 	4935 	0.053985
37.01 	0.051490 	4933 	0.049946
37.03 	0.053006 	4924 	0.052411
37.05 	0.051553 	4927 	0.050245
37.07 	0.055319 	4935 	0.054726
37.09 	0.056006 	4928 	0.054937
37.11 	0.057751 	4935 	0.056564
37.13 	0.052193 	4924 	0.051836
37.15 	0.056223 	4909 	0.055149
37.17 	0.056344 	4934 	0.055731
37.19 	0.054822 	4925 	0.054228
37.21 	0.050844 	4917 	0.050010
37.23 	0.057950 	4918 	0.057236
37.25 	0.049277 	4911 	0.048442
37.27 	0.060482 	4894 	0.059764
37.29 	0.055172 	4930 	0.054321
37.31 	0.053495 	4935 	0.053021
37.33 	0.066978 	4927 	0.065432
37.35 	0.056096 	4938 	0.055008
37.37 	0.053785 	4927 	0.052477
37.39 	0.052525 	4931 	0.051218
37.41 	0.057392 	4931 	0.056303
37.43 	0.053933 	4932 	0.053221
37.45 	0.053818 	4924 	0.053104
37.47 	0.054981 	4929 	0.053555
37.49 	0.049360 	4923 	0.048646
37.51 	0.045003 	4933 	0.044172
37.53 	0.052043 	4919 	0.051448
37.55 	0.048884 	4930 	0.048053
37.57 	0.055635 	4925 	0.054426
37.59 	0.056765 	4915 	0.055931
37.61 	0.051605 	4922 	0.051010
37.63 	0.055702 	4919 	0.054631
37.65 	0.057137 	4918 	0.056661
37.67 	0.056688 	4904 	0.055136
37.69 	0.050429 	4898 	0.049950
37.71 	0.054169 	4929 	0.053575
37.73 	0.049300 	4929 	0.048706
37.75 	0.054858 	4940 	0.053910
37.77 	0.049187 	4920 	0.048354
37.79 	0.051116 	4930 	0.050284
37.81 	0.048652 	4933 	0.048414
37.83 	0.061179 	4920 	0.060107
37.85 	0.049980 	4922 	0.048770
37.87 	0.050415 	4939 	0.049447
37.89 	0.050761 	4925 	0.049810
37.91 	0.055984 	4930 	0.055271
37.93 	0.058345 	4919 	0.057631
37.95 	0.058525 	4921 	0.057096
37.97 	0.051938 	4929 	0.051106
37.99 	0.052932 	4912 	0.052574
38.01 	0.052760 	4928 	0.052047
38.03 	0.054797 	4909 	0.054201
38.05 	0.052386 	4925 	0.051553
38.07 	0.054186 	4909 	0.052635
38.09 	0.053506 	4878 	0.052665
38.11 	0.051469 	4935 	0.050757
38.13 	0.053676 	4937 	0.053083
38.15 	0.061000 	4918 	0.060048
38.17 	0.058621 	4930 	0.057670
38.19 	0.058215 	4930 	0.057007
38.21 	0.048954 	4923 	0.048002
38.23 	0.057918 	4938 	0.057562
38.25 	0.069351 	4917 	0.068279
38.27 	0.066937 	4930 	0.065630
38.29 	0.062754 	4924 	0.061664
38.31 	0.067790 	4927 	0.065531
38.33 	0.063972 	4924 	0.063021
38.35 	0.071226 	4928 	0.069443
38.37 	0.066613 	4924 	0.064947
38.39 	0.068242 	4909 	0.066452
38.41 	0.072111 	4923 	0.070207
38.43 	0.072417 	4916 	0.071344
38.45 	0.068320 	4918 	0.066157
38.47 	0.071938 	4907 	0.070725
38.49 	0.074021 	4877 	0.072920
38.51 	0.071168 	4932 	0.069961
38.53 	0.071008 	4929 	0.069582
38.55 	0.073541 	4936 	0.072355
38.57 	0.069470 	4923 	0.068161
38.59 	0.074330 	4924 	0.072764
38.61 	0.066653 	4936 	0.065229
38.63 	0.065597 	4924 	0.064526
38.65 	0.069337 	4918 	0.067789
38.67 	0.061171 	4937 	0.059253
38.69 	0.064811 	4922 	0.064335
38.71 	0.059708 	4924 	0.058637
38.73 	0.054697 	4918 	0.054221
38.75 	0.054191 	4927 	0.052983
38.77 	0.062970 	4923 	0.061899
38.79 	0.061005 	4934 	0.059798
38.81 	0.055578 	4912 	0.054743
38.83 	0.057532 	4919 	0.056460
38.85 	0.051710 	4912 	0.050875
38.87 	0.051517 	4911 	0.051040
38.89 	0.052685 	4897 	0.051848
38.91 	0.051805 	4903 	0.050491
38.93 	0.047995 	4938 	0.047165
38.95 	0.042904 	4918 	0.042427
38.97 	0.048672 	4931 	0.048434
38.99 	0.049423 	4937 	0.048929
39.01 	0.050834 	4918 	0.050238
39.03 	0.048034 	4934 	0.046966
39.05 	0.047310 	4925 	0.046953
39.07 	0.050366 	4924 	0.049890
39.09 	0.043266 	4923 	0.042909
39.11 	0.052728 	4931 	0.051540
39.13 	0.047329 	4923 	0.046734
39.15 	0.047406 	4915 	0.047048
39.17 	0.046790 	4937 	0.045959
39.19 	0.045963 	4917 	0.045248
39.21 	0.042363 	4910 	0.041766
39.23 	0.038782 	4925 	0.038782
39.25 	0.046323 	4922 	0.045728
39.27 	0.044196 	4910 	0.043480
39.29 	0.044685 	4901 	0.044326
39.31 	0.046478 	4884 	0.045639
39.33 	0.047658 	4931 	0.046707
39.35 	0.049037 	4935 	0.048424
39.37 	0.048894 	4929 	0.048538
39.39 	0.047068 	4929 	0.047068
39.41 	0.045427 	4931 	0.044714
39.43 	0.044192 	4933 	0.043717
39.45 	0.044670 	4925 	0.043956
39.47 	0.042454 	4923 	0.041978
39.49 	0.043584 	4933 	0.042990
39.51 	0.046304 	4924 	0.045590
39.53 	0.044282 	4923 	0.044044
39.55 	0.050010 	4919 	0.049653
39.57 	0.043381 	4933 	0.042669
39.59 	0.040106 	4912 	0.039390
39.61 	0.044688 	4923 	0.044331
39.63 	0.051808 	4922 	0.051094
39.65 	0.045067 	4926 	0.044472
39.67 	0.045186 	4913 	0.044948
39.69 	0.044142 	4916 	0.043546
39.71 	0.042288 	4895 	0.042168
39.73 	0.046659 	4908 	0.045923
39.75 	0.047281 	4928 	0.046924
39.77 	0.043161 	4935 	0.042686
39.79 	0.048315 	4926 	0.047720
39.81 	0.040187 	4927 	0.039711
39.83 	0.040738 	4934 	0.040144
39.85 	0.040999 	4927 	0.040523
39.87 	0.044670 	4925 	0.044075
39.89 	0.043373 	4934 	0.042660
39.91 	0.039212 	4922 	0.038855
39.93 	0.039295 	4937 	0.039176
39.95 	0.045168 	4915 	0.044334
39.97 	0.045455 	4928 	0.044741
39.99 	0.043593 	4932 	0.043474
40.01 	0.041887 	4918 	0.041411
40.03 	0.041193 	4928 	0.040599
40.05 	0.041285 	4917 	0.040928
40.07 	0.045298 	4923 	0.044822
40.09 	0.042718 	4916 	0.042360
40.11 	0.041090 	4916 	0.040495
40.13 	0.045956 	4896 	0.045238
40.15 	0.039284 	4913 	0.039045
40.17 	0.046875 	4928 	0.046756
40.19 	0.038547 	4929 	0.038191
40.21 	0.042958 	4935 	0.042464
40.23 	0.038524 	4932 	0.038286
40.25 	0.043089 	4920 	0.042613
40.27 	0.039295 	4937 	0.039176
40.29 	0.043231 	4927 	0.042874
40.31 	0.043734 	4939 	0.043141
40.33 	0.045012 	4932 	0.044300
40.35 	0.043098 	4919 	0.042741
40.37 	0.041388 	4929 	0.041150
40.39 	0.040560 	4931 	0.040441
40.41 	0.040203 	4925 	0.039489
40.43 	0.042462 	4922 	0.041986
40.45 	0.041962 	4933 	0.041962
40.47 	0.045750 	4918 	0.045036
40.49 	0.043646 	4926 	0.043289
40.51 	0.038196 	4922 	0.037601
40.53 	0.039870 	4916 	0.039751
40.55 	0.040546 	4908 	0.040188
40.57 	0.043558 	4890 	0.043438
40.59 	0.040713 	4937 	0.039764
40.61 	0.042351 	4935 	0.041757
40.63 	0.042596 	4930 	0.041626
40.65 	0.044764 	4937 	0.044408
40.67 	0.041768 	4932 	0.041055
40.69 	0.042131 	4937 	0.041894
40.71 	0.042782 	4932 	0.042188
40.73 	0.046488 	4926 	0.046250
40.75 	0.038532 	4931 	0.037938
40.77 	0.035230 	4939 	0.034993
40.79 	0.041633 	4924 	0.041633
40.81 	0.044323 	4941 	0.043730
40.83 	0.041193 	4928 	0.040480
40.85 	0.037774 	4924 	0.037179
40.87 	0.045455 	4928 	0.045217
40.89 	0.043399 	4931 	0.042567
40.91 	0.041235 	4923 	0.040878
40.93 	0.037090 	4934 	0.036852
40.95 	0.041726 	4913 	0.041488
40.97 	0.039602 	4924 	0.038412
40.99 	0.037165 	4924 	0.036689
41.01 	0.036441 	4912 	0.035726
41.03 	0.037513 	4905 	0.036896
41.05 	0.039708 	4936 	0.039234
41.07 	0.040974 	4930 	0.040261
41.09 	0.043734 	4939 	0.043378
41.11 	0.039919 	4935 	0.038712
41.13 	0.037480 	4936 	0.037005
41.15 	0.039466 	4941 	0.038991
41.17 	0.039522 	4934 	0.038928
41.19 	0.040771 	4930 	0.040414
41.21 	0.045169 	4937 	0.044556
41.23 	0.038469 	4939 	0.037876
41.25 	0.039327 	4933 	0.038733
41.27 	0.042385 	4931 	0.041910
41.29 	0.039570 	4928 	0.039094
41.31 	0.039124 	4933 	0.039006
41.33 	0.044359 	4937 	0.043884
41.35 	0.038072 	4938 	0.037598
41.37 	0.038993 	4924 	0.038497
41.39 	0.042165 	4933 	0.041928
41.41 	0.040601 	4926 	0.040244
41.43 	0.038547 	4929 	0.037953
41.45 	0.040904 	4914 	0.040427
41.47 	0.043240 	4926 	0.043002
41.49 	0.043745 	4892 	0.043386
41.51 	0.041498 	4940 	0.040905
41.53 	0.041060 	4944 	0.040329
41.55 	0.044580 	4935 	0.044105
41.57 	0.047764 	4941 	0.046934
41.59 	0.041760 	4933 	0.041047
41.61 	0.037553 	4953 	0.036962
41.63 	0.036655 	4938 	0.036417
41.65 	0.038547 	4929 	0.037934
41.67 	0.041700 	4940 	0.041226
41.69 	0.035375 	4947 	0.035257
41.71 	0.040535 	4934 	0.039941
41.73 	0.040113 	4936 	0.039876
41.75 	0.040576 	4929 	0.040457
41.77 	0.040275 	4941 	0.039920
41.79 	0.038026 	4944 	0.037433
41.81 	0.041937 	4936 	0.041462
41.83 	0.043222 	4928 	0.042747
41.85 	0.041506 	4939 	0.041388
41.87 	0.035461 	4935 	0.035105
41.89 	0.047638 	4933 	0.046926
41.91 	0.035454 	4936 	0.035335
41.93 	0.040552 	4932 	0.039839
41.95 	0.040357 	4931 	0.040001
41.97 	0.036020 	4914 	0.035543
41.99 	0.041386 	4905 	0.041028
42.01 	0.041076 	4942 	0.040365
42.03 	0.036647 	4939 	0.036528
42.05 	0.038368 	4952 	0.038132
42.07 	0.041321 	4937 	0.040609
42.09 	0.040825 	4948 	0.040233
42.11 	0.042063 	4945 	0.041589
42.13 	0.041052 	4945 	0.040696
42.15 	0.043135 	4938 	0.042660
42.17 	0.038634 	4918 	0.038038
42.19 	0.038101 	4908 	0.037624
42.21 	0.045705 	4901 	0.045107
42.23 	0.037817 	4892 	0.037458
42.25 	0.038863 	4889 	0.038503
42.27 	0.038162 	4874 	0.037681
42.29 	0.038865 	4863 	0.038263
42.31 	0.039135 	4855 	0.038894
42.33 	0.041787 	4834 	0.041424
42.35 	0.039272 	4838 	0.038667
42.37 	0.034576 	4830 	0.034454
42.39 	0.038718 	4804 	0.037864
42.41 	0.036844 	4804 	0.036844
42.43 	0.034015 	4792 	0.033771
42.45 	0.036223 	4776 	0.035364
42.47 	0.035677 	4765 	0.035431
42.49 	0.035257 	4765 	0.035134
42.51 	0.033945 	4743 	0.033698
42.53 	0.032995 	4728 	0.032871
42.55 	0.042268 	4708 	0.042020
42.57 	0.034672 	4730 	0.034177
42.59 	0.038486 	4729 	0.038362
42.61 	0.036958 	4708 	0.036461
42.63 	0.037375 	4709 	0.036629
42.65 	0.037353 	4685 	0.036853
42.67 	0.034372 	4684 	0.033872
42.69 	0.037227 	4674 	0.036851
42.71 	0.033026 	4663 	0.032649
42.73 	0.034914 	4640 	0.034156
42.75 	0.037903 	4617 	0.037650
42.77 	0.037826 	4600 	0.037699
42.79 	0.034919 	4582 	0.034664
42.81 	0.035511 	4562 	0.035254
42.83 	0.038580 	4536 	0.037418
42.85 	0.035777 	4528 	0.035260
42.87 	0.035341 	4499 	0.034690
42.89 	0.036830 	4480 	0.036569
42.91 	0.042864 	4456 	0.042601
42.93 	0.042060 	4446 	0.041533
42.95 	0.035779 	4416 	0.035646
42.97 	0.036810 	4401 	0.036544
42.99 	0.033295 	4385 	0.033295
43.01 	0.039652 	4363 	0.039517
43.03 	0.040388 	4333 	0.039982
43.05 	0.034451 	4325 	0.034180
43.07 	0.035382 	4296 	0.034973
43.09 	0.038057 	4283 	0.037237
43.11 	0.041128 	4255 	0.040853
43.13 	0.039415 	4237 	0.039276
43.15 	0.037803 	4206 	0.037385
43.17 	0.037808 	4179 	0.037528
43.19 	0.043634 	4194 	0.043075
43.21 	0.038111 	4172 	0.037830
43.23 	0.032499 	4154 	0.032358
43.25 	0.036759 	4135 	0.035909
43.27 	0.042631 	4105 	0.042203
43.29 	0.033415 	4100 	0.033272
43.31 	0.044128 	4079 	0.043554
43.33 	0.042952 	4051 	0.042374
43.35 	0.033234 	4032 	0.032944
43.37 	0.038605 	4015 	0.038168
43.39 	0.036482 	4002 	0.036335
43.41 	0.042800 	3972 	0.041915
43.43 	0.036869 	3960 	0.036573
43.45 	0.034053 	3935 	0.033756
43.47 	0.035705 	3921 	0.035257
43.49 	0.037721 	3897 	0.036819
43.51 	0.041269 	3877 	0.040816
43.53 	0.039089 	3863 	0.038331
43.55 	0.037449 	2964 	0.036461
43.57 	0.036640 	2238 	0.036378
43.59 	0.039519 	1746 	0.038177
43.61 	0.037750 	1351 	0.036883
43.63 	0.023976 	1001 	0.023976
43.65 	0.039301 	687 	0.039301
43.67 	0.045817 	502 	0.044650
43.69 	0.038147 	367 	0.038147
43.71 	0.054393 	239 	0.054393
43.73 	0.033333 	120 	0.033333
43.75 	0.000000 	16 	0.000000