File: Example_Data/25SC_s1_0017.004.dat
#F C:\frames\spec\25SC_s1_0017.004
#C title =s:17 frm:4 25SC_s1
#C wavelength =0.15406

#S 1  fr_average C:\frames\spec\25SC_s1_0017.004 C:\win32app\speccom\mask.axs chi 0 180 0 360 0.02
#C 2 theta =0.000000 to 180 deg
#C   q   =0.000000 to 81.568 nm^-1
#C  chi  =0.000000 to 360 deg
#C collumns:
#C  1 position (2theta or chi in degrees)
#C  2 average intensity (sum of all counts in the region divided with number of pixels)
#C  3 Number of pixels in region)
#C  4 error (sum of sqrt(intensity) for all pixels divided by number)
#N 4
#L TTh  Int  N_pix  Err
32.99 	0.065574 	61 	0.065574
33.01 	0.063001 	873 	0.063001
33.03 	0.065421 	1391 	0.064578
33.05 	0.059761 	1757 	0.058427
33.07 	0.059024 	2050 	0.057881
33.09 	0.062207 	2347 	0.061708
33.11 	0.056999 	2579 	0.056053
33.13 	0.070533 	2793 	0.069065
33.15 	0.056686 	2999 	0.056067
33.17 	0.059356 	3201 	0.058228
33.19 	0.062238 	3342 	0.061537
33.21 	0.055588 	3436 	0.054366
33.23 	0.057337 	3523 	0.056839
33.25 	0.065615 	3612 	0.064155
33.27 	0.058953 	3630 	0.057662
33.29 	0.053454 	3648 	0.051942
33.31 	0.061475 	3660 	0.060355
33.33 	0.067010 	3686 	0.065872
33.35 	0.057932 	3694 	0.056478
33.37 	0.062466 	3714 	0.060731
33.39 	0.056584 	3729 	0.055641
33.41 	0.050535 	3740 	0.049908
33.43 	0.052911 	3761 	0.052288
33.45 	0.061490 	3773 	0.059937
33.47 	0.053186 	3798 	0.052569
33.49 	0.053295 	3809 	0.051911
33.51 	0.057667 	3815 	0.056746
33.53 	0.063525 	3841 	0.062458
33.55 	0.060370 	3843 	0.059607
33.57 	0.051070 	3877 	0.050617
33.59 	0.060309 	3880 	0.059379
33.61 	0.058839 	3909 	0.057615
33.63 	0.056392 	3919 	0.055495
33.65 	0.068176 	3931 	0.066984
33.67 	0.061710 	3954 	0.060228
33.69 	0.064255 	3953 	0.063366
33.71 	0.056352 	3975 	0.055026
33.73 	0.060689 	4004 	0.059958
33.75 	0.063016 	3999 	0.062430
33.77 	0.065093 	4025 	0.063032
33.79 	0.060876 	4041 	0.060441
33.81 	0.052749 	4038 	0.052314
33.83 	0.071111 	4050 	0.069809
33.85 	0.058551 	4099 	0.057122
33.87 	0.057650 	4111 	0.056653
33.89 	0.061393 	4121 	0.059403
33.91 	0.061220 	4149 	0.059667
33.93 	0.057095 	4151 	0.056107
33.95 	0.055967 	4181 	0.055104
33.97 	0.066587 	4190 	0.065049
33.99 	0.054524 	4200 	0.053687
34.01 	0.059340 	4213 	0.058089
34.03 	0.059378 	4244 	0.058274
34.05 	0.056679 	4252 	0.055715
34.07 	0.060684 	4268 	0.059449
34.09 	0.056696 	4286 	0.054919
34.11 	0.055323 	4302 	0.054234
34.13 	0.057567 	4308 	0.056344
34.15 	0.055645 	4331 	0.054699
34.17 	0.064138 	4350 	0.063195
34.19 	0.057084 	4362 	0.056010
34.21 	0.059254 	4371 	0.058450
34.23 	0.054177 	4393 	0.053222
34.25 	0.057448 	4404 	0.056384
34.27 	0.058571 	4422 	0.057643
34.29 	0.058625 	4435 	0.057436
34.31 	0.060341 	4458 	0.059290
34.33 	0.055692 	4471 	0.055299
34.35 	0.061329 	4484 	0.060001
34.37 	0.054776 	4491 	0.053320
34.39 	0.059307 	4502 	0.058656
34.41 	0.056562 	4526 	0.055505
34.43 	0.062789 	4539 	0.061757
34.45 	0.061522 	4535 	0.060876
34.47 	0.058362 	4592 	0.056959
34.49 	0.062214 	4597 	0.061174
34.51 	0.061007 	4606 	0.060096
34.53 	0.055137 	4643 	0.054359
34.55 	0.063106 	4643 	0.061592
34.57 	0.060300 	4660 	0.059148
34.59 	0.063957 	4675 	0.062328
34.61 	0.057909 	4697 	0.056912
34.63 	0.059448 	4710 	0.058204
34.65 	0.060580 	4721 	0.059464
34.67 	0.060114 	4741 	0.059125
34.69 	0.062053 	4754 	0.060698
34.71 	0.060428 	4766 	0.059302
34.73 	0.059745 	4787 	0.058379
34.75 	0.056780 	4808 	0.055684
34.77 	0.059568 	4818 	0.058839
34.79 	0.056385 	4824 	0.055656
34.81 	0.062126 	4845 	0.060635
34.83 	0.061497 	4862 	0.060895
34.85 	0.055453 	4869 	0.054490
34.87 	0.065735 	4868 	0.064652
34.89 	0.053257 	4882 	0.052177
34.91 	0.055715 	4882 	0.054635
34.93 	0.057971 	4899 	0.056756
34.95 	0.061759 	4890 	0.060561
34.97 	0.064259 	4902 	0.062825
34.99 	0.057178 	4897 	0.056580
35.01 	0.061954 	4923 	0.061002
35.03 	0.067773 	4943 	0.066351
35.05 	0.051546 	4947 	0.051073
35.07 	0.053846 	4940 	0.053372
35.09 	0.063598 	4953 	0.062060
35.11 	0.057813 	4947 	0.056866
35.13 	0.055869 	4958 	0.054924
35.15 	0.057525 	4937 	0.056081
35.17 	0.063486 	4946 	0.062775
35.19 	0.058276 	4942 	0.057209
35.21 	0.055410 	4945 	0.054225
35.23 	0.060263 	4945 	0.059078
35.25 	0.061501 	4943 	0.060316
35.27 	0.055780 	4948 	0.054715
35.29 	0.059050 	4945 	0.057510
35.31 	0.063653 	4933 	0.062347
35.33 	0.061501 	4943 	0.060316
35.35 	0.063942 	4942 	0.063349
35.37 	0.067220 	4939 	0.065797
35.39 	0.058038 	4945 	0.056972
35.41 	0.059683 	4926 	0.057900
35.43 	0.054733 	4933 	0.054140
35.45 	0.062184 	4937 	0.060878
35.47 	0.063273 	4931 	0.062085
35.49 	0.056619 	4910 	0.056142
35.51 	0.061307 	4926 	0.060099
35.53 	0.060618 	4949 	0.059553
35.55 	0.058645 	4945 	0.057224
35.57 	0.059801 	4933 	0.058970
35.59 	0.060667 	4945 	0.059246
35.61 	0.056455 	4942 	0.055744
35.63 	0.058669 	4943 	0.057839
35.65 	0.063701 	4945 	0.062753
35.67 	0.061716 	4942 	0.060768
35.69 	0.063283 	4946 	0.061862
35.71 	0.061171 	4937 	0.060083
35.73 	0.060373 	4936 	0.059305
35.75 	0.067126 	4931 	0.066532
35.77 	0.058776 	4951 	0.057948
35.79 	0.066504 	4932 	0.064703
35.81 	0.056152 	4933 	0.055084
35.83 	0.062273 	4946 	0.061325
35.85 	0.060993 	4935 	0.060399
35.87 	0.055657 	4923 	0.054824
35.89 	0.063235 	4934 	0.062522
35.91 	0.057845 	4927 	0.056774
35.93 	0.057439 	4927 	0.056844
35.95 	0.059182 	4917 	0.058468
35.97 	0.059243 	4912 	0.058050
35.99 	0.058919 	4939 	0.057970
36.01 	0.054158 	4930 	0.053683
36.03 	0.060894 	4943 	0.059690
36.05 	0.058645 	4945 	0.057816
36.07 	0.060539 	4939 	0.059234
36.09 	0.062955 	4940 	0.061533
36.11 	0.060256 	4929 	0.059067
36.13 	0.057871 	4942 	0.057141
36.15 	0.057299 	4939 	0.055757
36.17 	0.058883 	4925 	0.057813
36.19 	0.049393 	4940 	0.048207
36.21 	0.059647 	4929 	0.058340
36.23 	0.055724 	4935 	0.054419
36.25 	0.053026 	4941 	0.051465
36.27 	0.056650 	4925 	0.055441
36.29 	0.052322 	4931 	0.051609
36.31 	0.061282 	4928 	0.059975
36.33 	0.064869 	4933 	0.063801
36.35 	0.059850 	4929 	0.058780
36.37 	0.060938 	4923 	0.060324
36.39 	0.056899 	4921 	0.055709
36.41 	0.060662 	4896 	0.059705
36.43 	0.060674 	4928 	0.059485
36.45 	0.059026 	4930 	0.057719
36.47 	0.062196 	4936 	0.060990
36.49 	0.057264 	4942 	0.055842
36.51 	0.054328 	4933 	0.053259
36.53 	0.059478 	4943 	0.059004
36.55 	0.057845 	4927 	0.057012
36.57 	0.057154 	4934 	0.056323
36.59 	0.053655 	4939 	0.052943
36.61 	0.054147 	4931 	0.053434
36.63 	0.056175 	4931 	0.055106
36.65 	0.058800 	4932 	0.058087
36.67 	0.055578 	4930 	0.054984
36.69 	0.059647 	4929 	0.058815
36.71 	0.053851 	4921 	0.053375
36.73 	0.062538 	4925 	0.061824
36.75 	0.052589 	4944 	0.051286
36.77 	0.053669 	4919 	0.052240
36.79 	0.058321 	4921 	0.057369
36.81 	0.051668 	4916 	0.050596
36.83 	0.062258 	4915 	0.060471
36.85 	0.061454 	4898 	0.060258
36.87 	0.051982 	4944 	0.051271
36.89 	0.058788 	4916 	0.057715
36.91 	0.055454 	4941 	0.054387
36.93 	0.055781 	4930 	0.055068
36.95 	0.054733 	4933 	0.053902
36.97 	0.056952 	4934 	0.055883
36.99 	0.058359 	4935 	0.057409
37.01 	0.054125 	4933 	0.053532
37.03 	0.060114 	4924 	0.059162
37.05 	0.052567 	4927 	0.051497
37.07 	0.055117 	4935 	0.054167
37.09 	0.057630 	4928 	0.056303
37.11 	0.057143 	4935 	0.056174
37.13 	0.054224 	4924 	0.053867
37.15 	0.054594 	4909 	0.053639
37.17 	0.050061 	4934 	0.049467
37.19 	0.053401 	4925 	0.052212
37.21 	0.055725 	4917 	0.054772
37.23 	0.053680 	4918 	0.052847
37.25 	0.052331 	4911 	0.051835
37.27 	0.057213 	4894 	0.056255
37.29 	0.050304 	4930 	0.049809
37.31 	0.057345 	4935 	0.056258
37.33 	0.057033 	4927 	0.056438
37.35 	0.053463 	4938 	0.052988
37.37 	0.057642 	4927 	0.056572
37.39 	0.052525 	4931 	0.052050
37.41 	0.053539 	4931 	0.052588
37.43 	0.050487 	4932 	0.049774
37.45 	0.052193 	4924 	0.051242
37.47 	0.054575 	4929 	0.053862
37.49 	0.058298 	4923 	0.057703
37.51 	0.053517 	4933 	0.052923
37.53 	0.051840 	4919 	0.051244
37.55 	0.058824 	4930 	0.057873
37.57 	0.056853 	4925 	0.056258
37.59 	0.054120 	4915 	0.052909
37.61 	0.054246 	4922 	0.053413
37.63 	0.055092 	4919 	0.054259
37.65 	0.057747 	4918 	0.056675
37.67 	0.057096 	4904 	0.056380
37.69 	0.052470 	4898 	0.051394
37.71 	0.053763 	4929 	0.053407
37.73 	0.061067 	4929 	0.059760
37.75 	0.060324 	4940 	0.059612
37.77 	0.048374 	4920 	0.047660
37.79 	0.052535 	4930 	0.051585
37.81 	0.051693 	4933 	0.051218
37.83 	0.051829 	4920 	0.050639
37.85 	0.053637 	4922 	0.052804
37.87 	0.055679 	4939 	0.054968
37.89 	0.058071 	4925 	0.057357
37.91 	0.059635 	4930 	0.058328
37.93 	0.058142 	4919 	0.057289
37.95 	0.053038 	4921 	0.052086
37.97 	0.055589 	4929 	0.054639
37.99 	0.051303 	4912 	0.050826
38.01 	0.057224 	4928 	0.055897
38.03 	0.057853 	4909 	0.056540
38.05 	0.054213 	4925 	0.053975
38.07 	0.060297 	4909 	0.059462
38.09 	0.056376 	4878 	0.053934
38.11 	0.060385 	4935 	0.059079
38.13 	0.052461 	4937 	0.051492
38.15 	0.062627 	4918 	0.062270
38.17 	0.061866 	4930 	0.060084
38.19 	0.061258 	4930 	0.060050
38.21 	0.061548 	4923 	0.060834
38.23 	0.062373 	4938 	0.061187
38.25 	0.063860 	4917 	0.062292
38.27 	0.065720 	4930 	0.064651
38.29 	0.062754 	4924 	0.061564
38.31 	0.064136 	4927 	0.063066
38.33 	0.059911 	4924 	0.058959
38.35 	0.066356 	4928 	0.065028
38.37 	0.074330 	4924 	0.073002
38.39 	0.064575 	4909 	0.063501
38.41 	0.071095 	4923 	0.069667
38.43 	0.062856 	4916 	0.061903
38.45 	0.061000 	4918 	0.060048
38.47 	0.066028 	4907 	0.064357
38.49 	0.066024 	4877 	0.064223
38.51 	0.065896 	4932 	0.064333
38.53 	0.065531 	4929 	0.064817
38.55 	0.065032 	4936 	0.063707
38.57 	0.065001 	4923 	0.064030
38.59 	0.058489 	4924 	0.057775
38.61 	0.056929 	4936 	0.056098
38.63 	0.061942 	4924 	0.060494
38.65 	0.059984 	4918 	0.059130
38.67 	0.061373 	4937 	0.060305
38.69 	0.055872 	4922 	0.054543
38.71 	0.057271 	4924 	0.056676
38.73 	0.055714 	4918 	0.054880
38.75 	0.062107 	4927 	0.060918
38.77 	0.059313 	4923 	0.058243
38.79 	0.058979 	4934 	0.057910
38.81 	0.058225 	4912 	0.057748
38.83 	0.055092 	4919 	0.054378
38.85 	0.052321 	4912 	0.050890
38.87 	0.059255 	4911 	0.058658
38.89 	0.056361 	4897 	0.055284
38.91 	0.055068 	4903 	0.053635
38.93 	0.056703 	4938 	0.055635
38.95 	0.056934 	4918 	0.055981
38.97 	0.052728 	4931 	0.051421
38.99 	0.055094 	4937 	0.054620
39.01 	0.052054 	4918 	0.050863
39.03 	0.052088 	4934 	0.051138
39.05 	0.049543 	4925 	0.048711
39.07 	0.048741 	4924 	0.048265
39.09 	0.058501 	4923 	0.057192
39.11 	0.052322 	4931 	0.051134
39.13 	0.053829 	4923 	0.052738
39.15 	0.056562 	4915 	0.055251
39.17 	0.055297 	4937 	0.054585
39.19 	0.050641 	4917 	0.049926
39.21 	0.056415 	4910 	0.055819
39.23 	0.056244 	4925 	0.055411
39.25 	0.053637 	4922 	0.052685
39.27 	0.051527 	4910 	0.050931
39.29 	0.052234 	4901 	0.051637
39.31 	0.057125 	4884 	0.056166
39.33 	0.057189 	4931 	0.056476
39.35 	0.052280 	4935 	0.051330
39.37 	0.054981 	4929 	0.053792
39.39 	0.054372 	4929 	0.054016
39.41 	0.055364 	4931 	0.054532
39.43 	0.054125 	4933 	0.053769
39.45 	0.054619 	4925 	0.053549
39.47 	0.061954 	4923 	0.060288
39.49 	0.051085 	4933 	0.049878
39.51 	0.051381 	4924 	0.050667
39.53 	0.053220 	4923 	0.052149
39.55 	0.055092 	4919 	0.054497
39.57 	0.060612 	4933 	0.059425
39.59 	0.057818 	4912 	0.056267
39.61 	0.058704 	4923 	0.057752
39.63 	0.054246 	4922 	0.053294
39.65 	0.055623 	4926 	0.055029
39.67 	0.054753 	4913 	0.053422
39.69 	0.056143 	4916 	0.055071
39.71 	0.060674 	4895 	0.060195
39.73 	0.051141 	4908 	0.050664
39.75 	0.060471 	4928 	0.059876
39.77 	0.056940 	4935 	0.056228
39.79 	0.060292 	4926 	0.059579
39.81 	0.052973 	4927 	0.052379
39.83 	0.055736 	4934 	0.054529
39.85 	0.058047 	4927 	0.056977
39.87 	0.060305 	4925 	0.058877
39.89 	0.058573 	4934 	0.057386
39.91 	0.057903 	4922 	0.056832
39.93 	0.049220 	4937 	0.048746
39.95 	0.055137 	4915 	0.053826
39.97 	0.058036 	4928 	0.057323
39.99 	0.052514 	4932 	0.051445
40.01 	0.055510 	4918 	0.054677
40.03 	0.054180 	4928 	0.053110
40.05 	0.052471 	4917 	0.052114
40.07 	0.057485 	4923 	0.056652
40.09 	0.056143 	4916 	0.055309
40.11 	0.049227 	4916 	0.048035
40.13 	0.056781 	4896 	0.055824
40.15 	0.051903 	4913 	0.051068
40.17 	0.052557 	4928 	0.052319
40.19 	0.051126 	4929 	0.050651
40.21 	0.054711 	4935 	0.053604
40.23 	0.054947 	4932 	0.054235
40.25 	0.058130 	4920 	0.056444
40.27 	0.049625 	4937 	0.049151
40.29 	0.057439 	4927 	0.056369
40.31 	0.056084 	4939 	0.055491
40.33 	0.054542 	4932 	0.053691
40.35 	0.052043 	4919 	0.050971
40.37 	0.054372 	4929 	0.053540
40.39 	0.048469 	4931 	0.047994
40.41 	0.054822 	4925 	0.054347
40.43 	0.051199 	4922 	0.050247
40.45 	0.054328 	4933 	0.053497
40.47 	0.052054 	4918 	0.050982
40.49 	0.052578 	4926 	0.051984
40.51 	0.055262 	4922 	0.054072
40.53 	0.049634 	4916 	0.049038
40.55 	0.053790 	4908 	0.053432
40.57 	0.052761 	4890 	0.052042
40.59 	0.051853 	4937 	0.050785
40.61 	0.055319 	4935 	0.054370
40.63 	0.053144 	4930 	0.052669
40.65 	0.053271 	4937 	0.052559
40.67 	0.043187 	4932 	0.042950
40.69 	0.054487 	4937 	0.054012
40.71 	0.046837 	4932 	0.046243
40.73 	0.052781 	4926 	0.051810
40.75 	0.051105 	4931 	0.050392
40.77 	0.053452 	4939 	0.052859
40.79 	0.053209 	4924 	0.051900
40.81 	0.052419 	4941 	0.051707
40.83 	0.050122 	4928 	0.049765
40.85 	0.049350 	4924 	0.048517
40.87 	0.055804 	4928 	0.054853
40.89 	0.050497 	4931 	0.050022
40.91 	0.053829 	4923 	0.052758
40.93 	0.053506 	4934 	0.051468
40.95 	0.052717 	4913 	0.051883
40.97 	0.059708 	4924 	0.058736
40.99 	0.047522 	4924 	0.046928
41.01 	0.053542 	4912 	0.052946
41.03 	0.056881 	4905 	0.056164
41.05 	0.053890 	4936 	0.053296
41.07 	0.048884 	4930 	0.048053
41.09 	0.049808 	4939 	0.049096
41.11 	0.054509 	4935 	0.053678
41.13 	0.049230 	4936 	0.048637
41.15 	0.049585 	4941 	0.048992
41.17 	0.048034 	4934 	0.047559
41.19 	0.050304 	4930 	0.049354
41.21 	0.053069 	4937 	0.052475
41.23 	0.052237 	4939 	0.050933
41.25 	0.050274 	4933 	0.050155
41.27 	0.049888 	4931 	0.049057
41.29 	0.048904 	4928 	0.048053
41.31 	0.055139 	4933 	0.054308
41.33 	0.044359 	4937 	0.043647
41.35 	0.046983 	4938 	0.046152
41.37 	0.050366 	4924 	0.049057
41.39 	0.048449 	4933 	0.047361
41.41 	0.054405 	4926 	0.053573
41.43 	0.050112 	4929 	0.049260
41.45 	0.056777 	4914 	0.055942
41.47 	0.044052 	4926 	0.043081
41.49 	0.049264 	4892 	0.048186
41.51 	0.051417 	4940 	0.050943
41.53 	0.050364 	4944 	0.049890
41.55 	0.051672 	4935 	0.051078
41.57 	0.053835 	4941 	0.052768
41.59 	0.045003 	4933 	0.044409
41.61 	0.048455 	4953 	0.047982
41.63 	0.050628 	4938 	0.050153
41.65 	0.051532 	4929 	0.050462
41.67 	0.044130 	4940 	0.043655
41.69 	0.043663 	4947 	0.043308
41.71 	0.051682 	4934 	0.051207
41.73 	0.054295 	4936 	0.053939
41.75 	0.049300 	4929 	0.048825
41.77 	0.042502 	4941 	0.041435
41.79 	0.049353 	4944 	0.048523
41.81 	0.047407 	4936 	0.046576
41.83 	0.054180 	4928 	0.052873
41.85 	0.047378 	4939 	0.046429
41.87 	0.046606 	4935 	0.045894
41.89 	0.049260 	4933 	0.049023
41.91 	0.048015 	4936 	0.047184
41.93 	0.049676 	4932 	0.049082
41.95 	0.044413 	4931 	0.043581
41.97 	0.047619 	4914 	0.047261
41.99 	0.045464 	4905 	0.044867
42.01 	0.050182 	4942 	0.049471
42.03 	0.050415 	4939 	0.050296
42.05 	0.045436 	4952 	0.044944
42.07 	0.050841 	4937 	0.049654
42.09 	0.044665 	4948 	0.043954
42.11 	0.048534 	4945 	0.047942
42.13 	0.048534 	4945 	0.047942
42.15 	0.049615 	4938 	0.049141
42.17 	0.050834 	4918 	0.050000
42.19 	0.046047 	4908 	0.045451
42.21 	0.051418 	4901 	0.050701
42.23 	0.048855 	4892 	0.048376
42.25 	0.048476 	4889 	0.047997
42.27 	0.042675 	4874 	0.042315
42.29 	0.049558 	4863 	0.048956
42.31 	0.049022 	4855 	0.048157
42.33 	0.044477 	4834 	0.043871
42.35 	0.050641 	4838 	0.049672
42.37 	0.048654 	4830 	0.047664
42.39 	0.042465 	4804 	0.042221
42.41 	0.043505 	4804 	0.043140
42.43 	0.047788 	4792 	0.047299
42.45 	0.047948 	4776 	0.047457
42.47 	0.050577 	4765 	0.049717
42.49 	0.050787 	4765 	0.050172
42.51 	0.051866 	4743 	0.051001
42.53 	0.049281 	4728 	0.048909
42.55 	0.049278 	4708 	0.048282
42.57 	0.043763 	4730 	0.043020
42.59 	0.047156 	4729 	0.046041
42.61 	0.045242 	4708 	0.044226
42.63 	0.047356 	4709 	0.046859
42.65 	0.051441 	4685 	0.050566
42.67 	0.047609 	4684 	0.046483
42.69 	0.046641 	4674 	0.046140
42.71 	0.050397 	4663 	0.049140
42.73 	0.048922 	4640 	0.047912
42.75 	0.045267 	4617 	0.044506
42.77 	0.044565 	4600 	0.044311
42.79 	0.043213 	4582 	0.042701
42.81 	0.047786 	4562 	0.046759
42.83 	0.047178 	4536 	0.046403
42.85 	0.052783 	4528 	0.052265
42.87 	0.049344 	4499 	0.048563
42.89 	0.042188 	4480 	0.041534
42.91 	0.050943 	4456 	0.050154
42.93 	0.046334 	4446 	0.045939
42.95 	0.043705 	4416 	0.042909
42.97 	0.051352 	4401 	0.050420
42.99 	0.048803 	4385 	0.048001
43.01 	0.046757 	4363 	0.046354
43.03 	0.044773 	4333 	0.044367
43.05 	0.045087 	4325 	0.044139
43.07 	0.047253 	4296 	0.046435
43.09 	0.044361 	4283 	0.043404
43.11 	0.041598 	4255 	0.041047
43.13 	0.049091 	4237 	0.048677
43.15 	0.045887 	4206 	0.045190
43.17 	0.051208 	4179 	0.050648
43.19 	0.044349 	4194 	0.043651
43.21 	0.043145 	4172 	0.042022
43.23 	0.045017 	4154 	0.044735
43.25 	0.047400 	4135 	0.046409
43.27 	0.052132 	4105 	0.051275
43.29 	0.044878 	4100 	0.044164
43.31 	0.045354 	4079 	0.044780
43.33 	0.048383 	4051 	0.047347
43.35 	0.043899 	4032 	0.043172
43.37 	0.047821 	4015 	0.047529
43.39 	0.045227 	4002 	0.044349
43.41 	0.052115 	3972 	0.051377
43.43 	0.047727 	3960 	0.046692
43.45 	0.037611 	3935 	0.037165
43.47 	0.045397 	3921 	0.044500
43.49 	0.053888 	3897 	0.053286
43.51 	0.046686 	3877 	0.046383
43.53 	0.047631 	3863 	0.047025
43.55 	0.050270 	2964 	0.049875
43.57 	0.046470 	2238 	0.046470
43.59 	0.053265 	1746 	0.052929
43.61 	0.048853 	1351 	0.048419
43.63 	0.039960 	1001 	0.039960
43.65 	0.050946 	687 	0.050946
43.67 	0.061753 	502 	0.059419
43.69 	0.046322 	367 	0.046322
43.71 	0.029289 	239 	0.029289
43.73 	0.058333 	120 	0.058333
43.75 	0.062500 	16 	0.062500