File: Example_Data/25SC_s1_0025.001.dat
#F C:\frames\spec\25SC_s1_0025.001
#C title =s:25 frm:1 25SC_s1
#C wavelength =0.15406

#S 1  fr_average C:\frames\spec\25SC_s1_0025.001 C:\win32app\speccom\mask.axs chi 0 180 0 360 0.02
#C 2 theta =0.000000 to 180 deg
#C   q   =0.000000 to 81.568 nm^-1
#C  chi  =0.000000 to 360 deg
#C collumns:
#C  1 position (2theta or chi in degrees)
#C  2 average intensity (sum of all counts in the region divided with number of pixels)
#C  3 Number of pixels in region)
#C  4 error (sum of sqrt(intensity) for all pixels divided by number)
#N 4
#L TTh  Int  N_pix  Err
32.99 	0.065574 	61 	0.065574
33.01 	0.052692 	873 	0.052021
33.03 	0.065421 	1391 	0.064578
33.05 	0.066591 	1757 	0.066257
33.07 	0.051707 	2050 	0.051422
33.09 	0.058372 	2347 	0.057374
33.11 	0.059713 	2579 	0.059032
33.13 	0.057644 	2793 	0.056805
33.15 	0.060687 	2999 	0.059287
33.17 	0.057170 	3201 	0.056438
33.19 	0.058049 	3342 	0.057699
33.21 	0.062864 	3436 	0.061500
33.23 	0.063014 	3523 	0.062183
33.25 	0.054264 	3612 	0.053453
33.27 	0.066391 	3630 	0.064777
33.29 	0.058114 	3648 	0.056669
33.31 	0.057923 	3660 	0.057123
33.33 	0.064569 	3686 	0.063456
33.35 	0.063346 	3694 	0.061919
33.37 	0.053581 	3714 	0.052293
33.39 	0.059802 	3729 	0.058545
33.41 	0.057487 	3740 	0.055920
33.43 	0.060622 	3761 	0.059376
33.45 	0.059899 	3773 	0.058968
33.47 	0.050816 	3798 	0.050354
33.49 	0.065109 	3809 	0.064340
33.51 	0.058978 	3815 	0.057596
33.53 	0.065868 	3841 	0.064801
33.55 	0.055946 	3843 	0.055031
33.57 	0.064225 	3877 	0.062563
33.59 	0.057990 	3880 	0.057386
33.61 	0.056536 	3909 	0.055787
33.63 	0.055882 	3919 	0.054985
33.65 	0.056474 	3931 	0.054984
33.67 	0.060698 	3954 	0.059957
33.69 	0.061725 	3953 	0.060836
33.71 	0.059119 	3975 	0.057793
33.73 	0.055195 	4004 	0.054756
33.75 	0.049512 	3999 	0.048780
33.77 	0.055652 	4025 	0.054755
33.79 	0.066320 	4041 	0.065137
33.81 	0.059683 	4038 	0.058087
33.83 	0.062716 	4050 	0.061848
33.85 	0.057575 	4099 	0.056432
33.87 	0.054731 	4111 	0.054019
33.89 	0.058966 	4121 	0.057687
33.91 	0.059773 	4149 	0.058079
33.93 	0.059745 	4151 	0.058192
33.95 	0.055967 	4181 	0.055267
33.97 	0.060621 	4190 	0.059479
33.99 	0.056905 	4200 	0.055789
34.01 	0.055780 	4213 	0.054945
34.03 	0.052074 	4244 	0.051521
34.05 	0.057385 	4252 	0.056007
34.07 	0.055295 	4268 	0.054334
34.09 	0.051563 	4286 	0.051017
34.11 	0.057183 	4302 	0.056366
34.13 	0.054318 	4308 	0.053638
34.15 	0.060725 	4331 	0.059350
34.17 	0.053793 	4350 	0.053389
34.19 	0.057084 	4362 	0.056144
34.21 	0.054450 	4371 	0.052708
34.23 	0.056681 	4393 	0.055881
34.25 	0.058129 	4404 	0.057331
34.27 	0.059701 	4422 	0.059437
34.29 	0.060203 	4435 	0.059278
34.31 	0.063033 	4458 	0.061719
34.33 	0.054127 	4471 	0.052947
34.35 	0.061329 	4484 	0.060415
34.37 	0.060788 	4491 	0.060136
34.39 	0.056197 	4502 	0.055417
34.41 	0.057004 	4526 	0.056616
34.43 	0.054417 	4539 	0.053256
34.45 	0.060639 	4535 	0.059994
34.47 	0.052265 	4592 	0.051499
34.49 	0.060909 	4597 	0.060272
34.51 	0.057534 	4606 	0.056898
34.53 	0.058152 	4643 	0.056386
34.55 	0.052121 	4643 	0.051491
34.57 	0.059871 	4660 	0.059117
34.59 	0.058182 	4675 	0.057179
34.61 	0.053225 	4697 	0.052602
34.63 	0.061783 	4710 	0.061286
34.65 	0.051260 	4721 	0.050640
34.67 	0.054630 	4741 	0.054259
34.69 	0.054901 	4754 	0.054162
34.71 	0.054763 	4766 	0.053903
34.73 	0.057865 	4787 	0.056519
34.75 	0.055116 	4808 	0.053776
34.77 	0.055210 	4818 	0.053366
34.79 	0.054519 	4824 	0.053669
34.81 	0.053457 	4845 	0.052974
34.83 	0.051213 	4862 	0.050973
34.85 	0.049497 	4869 	0.048053
34.87 	0.054643 	4868 	0.054041
34.89 	0.054076 	4882 	0.052876
34.91 	0.052642 	4882 	0.052162
34.93 	0.058379 	4899 	0.057423
34.95 	0.057055 	4890 	0.055737
34.97 	0.054264 	4902 	0.052830
34.99 	0.057995 	4897 	0.057038
35.01 	0.055048 	4923 	0.054334
35.03 	0.056443 	4943 	0.055258
35.05 	0.057206 	4947 	0.055904
35.07 	0.055668 	4940 	0.054364
35.09 	0.055926 	4953 	0.055216
35.11 	0.053972 	4947 	0.053498
35.13 	0.052844 	4958 	0.052253
35.15 	0.059348 	4937 	0.058517
35.17 	0.050546 	4946 	0.049835
35.19 	0.065358 	4942 	0.064153
35.21 	0.060263 	4945 	0.059296
35.23 	0.059050 	4945 	0.057609
35.25 	0.055432 	4943 	0.054464
35.27 	0.057195 	4948 	0.056484
35.29 	0.062285 	4945 	0.061337
35.31 	0.058382 	4933 	0.058026
35.33 	0.052802 	4943 	0.051498
35.35 	0.058276 	4942 	0.056854
35.37 	0.062158 	4939 	0.060616
35.39 	0.056825 	4945 	0.056233
35.41 	0.051563 	4926 	0.050969
35.43 	0.057369 	4933 	0.056043
35.45 	0.052461 	4937 	0.052224
35.47 	0.055161 	4931 	0.053617
35.49 	0.061303 	4910 	0.060707
35.51 	0.056841 	4926 	0.056009
35.53 	0.060012 	4949 	0.058828
35.55 	0.054601 	4945 	0.053515
35.57 	0.057369 	4933 	0.056300
35.59 	0.051365 	4945 	0.050417
35.61 	0.058681 	4942 	0.057614
35.63 	0.058467 	4943 	0.057281
35.65 	0.054196 	4945 	0.053130
35.67 	0.055038 	4942 	0.054090
35.69 	0.058229 	4946 	0.057400
35.71 	0.062184 	4937 	0.060740
35.73 	0.053485 	4936 	0.052535
35.75 	0.051308 	4931 	0.049882
35.77 	0.055140 	4951 	0.054056
35.79 	0.061841 	4932 	0.060871
35.81 	0.053517 	4933 	0.052686
35.83 	0.058027 	4946 	0.056132
35.85 	0.056940 	4935 	0.055872
35.87 	0.059720 	4923 	0.058530
35.89 	0.058776 	4934 	0.057470
35.91 	0.053582 	4927 	0.052988
35.93 	0.055206 	4927 	0.054354
35.95 	0.056335 	4917 	0.054429
35.97 	0.055985 	4912 	0.055270
35.99 	0.053857 	4939 	0.052908
36.01 	0.055984 	4930 	0.054083
36.03 	0.058669 	4943 	0.057839
36.05 	0.057027 	4945 	0.056198
36.07 	0.060134 	4939 	0.059303
36.09 	0.058300 	4940 	0.057114
36.11 	0.053966 	4929 	0.052382
36.13 	0.055848 	4942 	0.055255
36.15 	0.062361 	4939 	0.060938
36.17 	0.052589 	4925 	0.051142
36.19 	0.057287 	4940 	0.056102
36.21 	0.053561 	4929 	0.052966
36.23 	0.051469 	4935 	0.050994
36.25 	0.060109 	4941 	0.058924
36.27 	0.060914 	4925 	0.059724
36.29 	0.058406 	4931 	0.057574
36.31 	0.067776 	4928 	0.067063
36.33 	0.057774 	4933 	0.056587
36.35 	0.056807 	4929 	0.056212
36.37 	0.057079 	4923 	0.056365
36.39 	0.056696 	4921 	0.055386
36.41 	0.055556 	4896 	0.054034
36.43 	0.055804 	4928 	0.054734
36.45 	0.058621 	4930 	0.057195
36.47 	0.049838 	4936 	0.049245
36.49 	0.055038 	4942 	0.053359
36.51 	0.059193 	4933 	0.057887
36.53 	0.058871 	4943 	0.057923
36.55 	0.052162 	4927 	0.052162
36.57 	0.060803 	4934 	0.059833
36.59 	0.061551 	4939 	0.060958
36.61 	0.056581 	4931 	0.055255
36.63 	0.058000 	4931 	0.056931
36.65 	0.054745 	4932 	0.054032
36.67 	0.051318 	4930 	0.051200
36.69 	0.052952 	4929 	0.051407
36.71 	0.060760 	4921 	0.059570
36.73 	0.056244 	4925 	0.054935
36.75 	0.052589 	4944 	0.051997
36.77 	0.063224 	4919 	0.062510
36.79 	0.057305 	4921 	0.056829
36.81 	0.054719 	4916 	0.053885
36.83 	0.057986 	4915 	0.056675
36.85 	0.051858 	4898 	0.050782
36.87 	0.054612 	4944 	0.053901
36.89 	0.059398 	4916 	0.058206
36.91 	0.063145 	4941 	0.062315
36.93 	0.062475 	4930 	0.061148
36.95 	0.055950 	4933 	0.055000
36.97 	0.050669 	4934 	0.049956
36.99 	0.054103 	4935 	0.053154
37.01 	0.058180 	4933 	0.056755
37.03 	0.056661 	4924 	0.056185
37.05 	0.059874 	4927 	0.058804
37.07 	0.055319 	4935 	0.054251
37.09 	0.056818 	4928 	0.056699
37.11 	0.055117 	4935 	0.053455
37.13 	0.048741 	4924 	0.048027
37.15 	0.053779 	4909 	0.053063
37.17 	0.061816 	4934 	0.061104
37.19 	0.055025 	4925 	0.054074
37.21 	0.056742 	4917 	0.055789
37.23 	0.061814 	4918 	0.060623
37.25 	0.053553 	4911 	0.052957
37.27 	0.057417 	4894 	0.056460
37.29 	0.053347 	4930 	0.051783
37.31 	0.062006 	4935 	0.060700
37.33 	0.059671 	4927 	0.058958
37.35 	0.058931 	4938 	0.058456
37.37 	0.056830 	4927 	0.055879
37.39 	0.052119 	4931 	0.051763
37.41 	0.056175 	4931 	0.054770
37.43 	0.051095 	4932 	0.050620
37.45 	0.057067 	4924 	0.056354
37.47 	0.054778 	4929 	0.053233
37.49 	0.055454 	4923 	0.054383
37.51 	0.052301 	4933 	0.051707
37.53 	0.057125 	4919 	0.055577
37.55 	0.051521 	4930 	0.050808
37.57 	0.056853 	4925 	0.055901
37.59 	0.054730 	4915 	0.053400
37.61 	0.058513 	4922 	0.057561
37.63 	0.053669 	4919 	0.052836
37.65 	0.052664 	4918 	0.051592
37.67 	0.056485 	4904 	0.055529
37.69 	0.055941 	4898 	0.054984
37.71 	0.052952 	4929 	0.051882
37.73 	0.058024 	4929 	0.057073
37.75 	0.050000 	4940 	0.049051
37.77 	0.064228 	4920 	0.063513
37.79 	0.054564 	4930 	0.053594
37.81 	0.052301 	4933 	0.051569
37.83 	0.053455 	4920 	0.052265
37.85 	0.057091 	4922 	0.056258
37.87 	0.057097 	4939 	0.056504
37.89 	0.049746 	4925 	0.049033
37.91 	0.054564 	4930 	0.053613
37.93 	0.060175 	4919 	0.059441
37.95 	0.053241 	4921 	0.052646
37.97 	0.049909 	4929 	0.049196
37.99 	0.054967 	4912 	0.054352
38.01 	0.059050 	4928 	0.058456
38.03 	0.056631 	4909 	0.055776
38.05 	0.056853 	4925 	0.055663
38.07 	0.056427 	4909 	0.055592
38.09 	0.061296 	4878 	0.060455
38.11 	0.060385 	4935 	0.059554
38.13 	0.055297 	4937 	0.053992
38.15 	0.052054 	4918 	0.051339
38.17 	0.055172 	4930 	0.054697
38.19 	0.055375 	4930 	0.054781
38.21 	0.060329 	4923 	0.058901
38.23 	0.061968 	4938 	0.060051
38.25 	0.061216 	4917 	0.059767
38.27 	0.057404 	4930 	0.056691
38.29 	0.059504 	4924 	0.057958
38.31 	0.059265 	4927 	0.058552
38.33 	0.054833 	4924 	0.053981
38.35 	0.061080 	4928 	0.059534
38.37 	0.063972 	4924 	0.062545
38.39 	0.068242 	4909 	0.066333
38.41 	0.059110 	4923 	0.058753
38.43 	0.069365 	4916 	0.068770
38.45 	0.070557 	4918 	0.068175
38.47 	0.066639 	4907 	0.064968
38.49 	0.077917 	4877 	0.076215
38.51 	0.068735 	4932 	0.067072
38.53 	0.073443 	4929 	0.071541
38.55 	0.069692 	4936 	0.068743
38.57 	0.078407 	4923 	0.077218
38.59 	0.070268 	4924 	0.068821
38.61 	0.070300 	4936 	0.068757
38.63 	0.067831 	4924 	0.066403
38.65 	0.072794 	4918 	0.070988
38.67 	0.075755 	4937 	0.074193
38.69 	0.074157 	4922 	0.072967
38.71 	0.066409 	4924 	0.065200
38.73 	0.063440 	4918 	0.062845
38.75 	0.065760 	4927 	0.064552
38.77 	0.066829 	4923 	0.065758
38.79 	0.066275 	4934 	0.065088
38.81 	0.061279 	4912 	0.059728
38.83 	0.054889 	4919 	0.053817
38.85 	0.058225 	4912 	0.056913
38.87 	0.055997 	4911 	0.055281
38.89 	0.057382 	4897 	0.056066
38.91 	0.056700 	4903 	0.056103
38.93 	0.055083 	4938 	0.054253
38.95 	0.046360 	4918 	0.045507
38.97 	0.051511 	4931 	0.051154
38.99 	0.050233 	4937 	0.049996
39.01 	0.051037 	4918 	0.050184
39.03 	0.051885 	4934 	0.050816
39.05 	0.048528 	4925 	0.048171
39.07 	0.045695 	4924 	0.045100
39.09 	0.044891 	4923 	0.044177
39.11 	0.052322 	4931 	0.051372
39.13 	0.050579 	4923 	0.049865
39.15 	0.046796 	4915 	0.046319
39.17 	0.040916 	4937 	0.040678
39.19 	0.050234 	4917 	0.049281
39.21 	0.045010 	4910 	0.044294
39.23 	0.045279 	4925 	0.044447
39.25 	0.049167 	4922 	0.048691
39.27 	0.043585 	4910 	0.043107
39.29 	0.047337 	4901 	0.045903
39.31 	0.050778 	4884 	0.049819
39.33 	0.045021 	4931 	0.044665
39.35 	0.047011 	4935 	0.046418
39.37 	0.040982 	4929 	0.040625
39.39 	0.044837 	4929 	0.044242
39.41 	0.047658 	4931 	0.046945
39.43 	0.047233 	4933 	0.046995
39.45 	0.043858 	4925 	0.043739
39.47 	0.040423 	4923 	0.040185
39.49 	0.048855 	4933 	0.047905
39.51 	0.044476 	4924 	0.043881
39.53 	0.046110 	4923 	0.045158
39.55 	0.047367 	4919 	0.046772
39.57 	0.040949 	4933 	0.040474
39.59 	0.039902 	4912 	0.039783
39.61 	0.041032 	4923 	0.040199
39.63 	0.041853 	4922 	0.041496
39.65 	0.047706 	4926 	0.047111
39.67 	0.042947 	4913 	0.042351
39.69 	0.042311 	4916 	0.041953
39.71 	0.043718 	4895 	0.043239
39.73 	0.048492 	4908 	0.047776
39.75 	0.044846 	4928 	0.044608
39.77 	0.050051 	4935 	0.048982
39.79 	0.041210 	4926 	0.040734
39.81 	0.043028 	4927 	0.042315
39.83 	0.038306 	4934 	0.037831
39.85 	0.040796 	4927 	0.040439
39.87 	0.047716 	4925 	0.047002
39.89 	0.045197 	4934 	0.044722
39.91 	0.045307 	4922 	0.044593
39.93 	0.045574 	4937 	0.045100
39.95 	0.037233 	4915 	0.037114
39.97 	0.045049 	4928 	0.044573
39.99 	0.043390 	4932 	0.043153
40.01 	0.048190 	4918 	0.047714
40.03 	0.042411 	4928 	0.041935
40.05 	0.042302 	4917 	0.042064
40.07 	0.042251 	4923 	0.041537
40.09 	0.041090 	4916 	0.040733
40.11 	0.045159 	4916 	0.044682
40.13 	0.042484 	4896 	0.042244
40.15 	0.048443 	4913 	0.047966
40.17 	0.044440 	4928 	0.043489
40.19 	0.044634 	4929 	0.043921
40.21 	0.043364 	4935 	0.042889
40.23 	0.043998 	4932 	0.043048
40.25 	0.041463 	4920 	0.040749
40.27 	0.039093 	4937 	0.038381
40.29 	0.043231 	4927 	0.042756
40.31 	0.041709 	4939 	0.041472
40.33 	0.042174 	4932 	0.041580
40.35 	0.046961 	4919 	0.046365
40.37 	0.039968 	4929 	0.039730
40.39 	0.045427 	4931 	0.045071
40.41 	0.045482 	4925 	0.044769
40.43 	0.038805 	4922 	0.038329
40.45 	0.045408 	4933 	0.044933
40.47 	0.040667 	4918 	0.040190
40.49 	0.045270 	4926 	0.044913
40.51 	0.041650 	4922 	0.041174
40.53 	0.039870 	4916 	0.039512
40.55 	0.037897 	4908 	0.037181
40.57 	0.041309 	4890 	0.040949
40.59 	0.043954 	4937 	0.043361
40.61 	0.041743 	4935 	0.041505
40.63 	0.043611 	4930 	0.043016
40.65 	0.039093 	4937 	0.038124
40.67 	0.038118 	4932 	0.037762
40.69 	0.039700 	4937 	0.039344
40.71 	0.042985 	4932 	0.042628
40.73 	0.036541 	4926 	0.035946
40.75 	0.038735 	4931 	0.038378
40.77 	0.040696 	4939 	0.039866
40.79 	0.039805 	4924 	0.038853
40.81 	0.042502 	4941 	0.041909
40.83 	0.043628 	4928 	0.043509
40.85 	0.043054 	4924 	0.042460
40.87 	0.042817 	4928 	0.041984
40.89 	0.042385 	4931 	0.042266
40.91 	0.038391 	4923 	0.038153
40.93 	0.044589 	4934 	0.044232
40.95 	0.039284 	4913 	0.038926
40.97 	0.041836 	4924 	0.041122
40.99 	0.042242 	4924 	0.042123
41.01 	0.044992 	4912 	0.044157
41.03 	0.038532 	4905 	0.038054
41.05 	0.041937 	4936 	0.041343
41.07 	0.037323 	4930 	0.037085
41.09 	0.043936 	4939 	0.043106
41.11 	0.042958 	4935 	0.042721
41.13 	0.041126 	4936 	0.040296
41.15 	0.044525 	4941 	0.043933
41.17 	0.043778 	4934 	0.043303
41.19 	0.042596 	4930 	0.042121
41.21 	0.043144 	4937 	0.042788
41.23 	0.036850 	4939 	0.036494
41.25 	0.039732 	4933 	0.039376
41.27 	0.040560 	4931 	0.040203
41.29 	0.038149 	4928 	0.037793
41.31 	0.043787 	4933 	0.043430
41.33 	0.042941 	4937 	0.042110
41.35 	0.042932 	4938 	0.042339
41.37 	0.047725 	4924 	0.047487
41.39 	0.036894 	4933 	0.036419
41.41 	0.038165 	4926 	0.037332
41.43 	0.036721 	4929 	0.036365
41.45 	0.041921 	4914 	0.041563
41.47 	0.038165 	4926 	0.037689
41.49 	0.042723 	4892 	0.042244
41.51 	0.041296 	4940 	0.041058
41.53 	0.041060 	4944 	0.040112
41.55 	0.044174 	4935 	0.043324
41.57 	0.039668 	4941 	0.039431
41.59 	0.043989 	4933 	0.043396
41.61 	0.038361 	4953 	0.038242
41.63 	0.037262 	4938 	0.037143
41.65 	0.036113 	4929 	0.035519
41.67 	0.042308 	4940 	0.041833
41.69 	0.041439 	4947 	0.040966
41.71 	0.039724 	4934 	0.039249
41.73 	0.038290 	4936 	0.038171
41.75 	0.045445 	4929 	0.044732
41.77 	0.042906 	4941 	0.041958
41.79 	0.039846 	4944 	0.039372
41.81 	0.036872 	4936 	0.036397
41.83 	0.041802 	4928 	0.041326
41.85 	0.039279 	4939 	0.038805
41.87 	0.042553 	4935 	0.041604
41.89 	0.036084 	4933 	0.036084
41.91 	0.032618 	4936 	0.032261
41.93 	0.038727 	4932 	0.037658
41.95 	0.038735 	4931 	0.038141
41.97 	0.034188 	4914 	0.033711
41.99 	0.042610 	4905 	0.041873
42.01 	0.037839 	4942 	0.037365
42.03 	0.040899 	4939 	0.040780
42.05 	0.039378 	4952 	0.038905
42.07 	0.035042 	4937 	0.034923
42.09 	0.040420 	4948 	0.039828
42.11 	0.041658 	4945 	0.041066
42.13 	0.040040 	4945 	0.039685
42.15 	0.037465 	4938 	0.037227
42.17 	0.037617 	4918 	0.037379
42.19 	0.040750 	4908 	0.040392
42.21 	0.038972 	4901 	0.038374
42.23 	0.033729 	4892 	0.033729
42.25 	0.038454 	4889 	0.038454
42.27 	0.043086 	4874 	0.042845
42.29 	0.040304 	4863 	0.039441
42.31 	0.038311 	4855 	0.038070
42.33 	0.036409 	4834 	0.036166
42.35 	0.035759 	4838 	0.034911
42.37 	0.040994 	4830 	0.040630
42.39 	0.043922 	4804 	0.043190
42.41 	0.045171 	4804 	0.044195
42.43 	0.041736 	4792 	0.041003
42.45 	0.037688 	4776 	0.037566
42.47 	0.036726 	4765 	0.036234
42.49 	0.037775 	4765 	0.037653
42.51 	0.036053 	4743 	0.035806
42.53 	0.037860 	4728 	0.037488
42.55 	0.039082 	4708 	0.038834
42.57 	0.037209 	4730 	0.036838
42.59 	0.039120 	4729 	0.038873
42.61 	0.041419 	4708 	0.040921
42.63 	0.036101 	4709 	0.035603
42.65 	0.036926 	4685 	0.036551
42.67 	0.035440 	4684 	0.035190
42.69 	0.041934 	4674 	0.041683
42.71 	0.037529 	4663 	0.037027
42.73 	0.040302 	4640 	0.039271
42.75 	0.038553 	4617 	0.037919
42.77 	0.041957 	4600 	0.041574
42.79 	0.041467 	4582 	0.040955
42.81 	0.043183 	4562 	0.042926
42.83 	0.033510 	4536 	0.033122
42.85 	0.038207 	4528 	0.038077
42.87 	0.038231 	4499 	0.037970
42.89 	0.037277 	4480 	0.036623
42.91 	0.032765 	4456 	0.032239
42.93 	0.036887 	4446 	0.036492
42.95 	0.031929 	4416 	0.031531
42.97 	0.038173 	4401 	0.037907
42.99 	0.037400 	4385 	0.037400
43.01 	0.036901 	4363 	0.036498
43.03 	0.043850 	4333 	0.042611
43.05 	0.044162 	4325 	0.043485
43.07 	0.035382 	4296 	0.034973
43.09 	0.044828 	4283 	0.044692
43.11 	0.038778 	4255 	0.038503
43.13 	0.040595 	4237 	0.040180
43.15 	0.039467 	4206 	0.039328
43.17 	0.034219 	4179 	0.033214
43.19 	0.038388 	4194 	0.037829
43.21 	0.038351 	4172 	0.037508
43.23 	0.036110 	4154 	0.035405
43.25 	0.038694 	4135 	0.038411
43.27 	0.040926 	4105 	0.040046
43.29 	0.034634 	4100 	0.034348
43.31 	0.035793 	4079 	0.035075
43.33 	0.039003 	4051 	0.039003
43.35 	0.034722 	4032 	0.034141
43.37 	0.033375 	4015 	0.033229
43.39 	0.039980 	4002 	0.039834
43.41 	0.036757 	3972 	0.036757
43.43 	0.036616 	3960 	0.036468
43.45 	0.038882 	3935 	0.038584
43.47 	0.037490 	3921 	0.037490
43.49 	0.038748 	3897 	0.038748
43.51 	0.032499 	3877 	0.032348
43.53 	0.039865 	3863 	0.039562
43.55 	0.038462 	2964 	0.038066
43.57 	0.037980 	2238 	0.036933
43.59 	0.037801 	1746 	0.036459
43.61 	0.040711 	1351 	0.039843
43.63 	0.030969 	1001 	0.030969
43.65 	0.027656 	687 	0.027656
43.67 	0.041833 	502 	0.041833
43.69 	0.040872 	367 	0.039276
43.71 	0.041841 	239 	0.041841
43.73 	0.050000 	120 	0.050000
43.75 	0.000000 	16 	0.000000