File: Example_Data/25SC_s1_0020.002.dat
#F C:\frames\spec\25SC_s1_0020.002
#C title =s:20 frm:2 25SC_s1
#C wavelength =0.15406

#S 1  fr_average C:\frames\spec\25SC_s1_0020.002 C:\win32app\speccom\mask.axs chi 0 180 0 360 0.02
#C 2 theta =0.000000 to 180 deg
#C   q   =0.000000 to 81.568 nm^-1
#C  chi  =0.000000 to 360 deg
#C collumns:
#C  1 position (2theta or chi in degrees)
#C  2 average intensity (sum of all counts in the region divided with number of pixels)
#C  3 Number of pixels in region)
#C  4 error (sum of sqrt(intensity) for all pixels divided by number)
#N 4
#L TTh  Int  N_pix  Err
32.99 	0.049180 	61 	0.049180
33.01 	0.065292 	873 	0.062608
33.03 	0.063983 	1391 	0.063562
33.05 	0.067729 	1757 	0.066395
33.07 	0.062439 	2050 	0.061296
33.09 	0.064764 	2347 	0.063516
33.11 	0.067468 	2579 	0.065651
33.13 	0.058002 	2793 	0.056953
33.15 	0.059353 	2999 	0.058572
33.17 	0.055920 	3201 	0.054456
33.19 	0.061341 	3342 	0.059237
33.21 	0.052678 	3436 	0.052337
33.23 	0.059608 	3523 	0.058278
33.25 	0.063677 	3612 	0.062379
33.27 	0.055372 	3630 	0.054726
33.29 	0.058662 	3648 	0.057538
33.31 	0.050273 	3660 	0.049953
33.33 	0.058600 	3686 	0.057647
33.35 	0.058744 	3694 	0.057475
33.37 	0.067044 	3714 	0.065782
33.39 	0.048270 	3729 	0.047485
33.41 	0.051337 	3740 	0.050554
33.43 	0.046530 	3761 	0.045596
33.45 	0.056984 	3773 	0.055897
33.47 	0.059768 	3798 	0.058997
33.49 	0.050669 	3809 	0.049747
33.51 	0.055832 	3815 	0.055065
33.53 	0.059099 	3841 	0.057879
33.55 	0.057767 	3843 	0.057310
33.57 	0.057261 	3877 	0.056656
33.59 	0.059021 	3880 	0.058115
33.61 	0.062164 	3909 	0.060816
33.63 	0.056902 	3919 	0.055856
33.65 	0.054439 	3931 	0.053992
33.67 	0.062468 	3954 	0.061431
33.69 	0.062737 	3953 	0.061083
33.71 	0.061132 	3975 	0.060248
33.73 	0.059940 	4004 	0.058623
33.75 	0.055514 	3999 	0.054781
33.77 	0.056894 	4025 	0.055876
33.79 	0.060629 	4041 	0.059759
33.81 	0.060426 	4038 	0.058951
33.83 	0.057284 	4050 	0.056416
33.85 	0.058795 	4099 	0.057937
33.87 	0.052055 	4111 	0.051343
33.89 	0.052414 	4121 	0.051562
33.91 	0.053025 	4149 	0.052460
33.93 	0.057095 	4151 	0.056107
33.95 	0.055967 	4181 	0.054426
33.97 	0.059666 	4190 	0.057988
33.99 	0.060952 	4200 	0.060534
34.01 	0.054593 	4213 	0.053481
34.03 	0.057022 	4244 	0.055895
34.05 	0.055268 	4252 	0.054166
34.07 	0.058575 	4268 	0.057340
34.09 	0.056696 	4286 	0.055876
34.11 	0.062297 	4302 	0.061071
34.13 	0.057335 	4308 	0.055839
34.15 	0.057262 	4331 	0.055887
34.17 	0.058391 	4350 	0.057448
34.19 	0.053187 	4362 	0.052247
34.21 	0.061771 	4371 	0.060565
34.23 	0.058275 	4393 	0.057741
34.25 	0.056767 	4404 	0.055681
34.27 	0.061284 	4422 	0.059562
34.29 	0.060203 	4435 	0.058618
34.31 	0.059892 	4458 	0.059104
34.33 	0.050772 	4471 	0.050641
34.35 	0.061775 	4484 	0.059816
34.37 	0.058562 	4491 	0.057366
34.39 	0.055753 	4502 	0.055102
34.41 	0.051701 	4526 	0.051054
34.43 	0.052214 	4539 	0.051182
34.45 	0.054686 	4535 	0.053523
34.47 	0.055531 	4592 	0.054766
34.49 	0.053296 	4597 	0.052658
34.51 	0.049501 	4606 	0.048738
34.53 	0.049968 	4643 	0.048958
34.55 	0.059660 	4643 	0.058398
34.57 	0.057940 	4660 	0.056536
34.59 	0.053690 	4675 	0.052416
34.61 	0.057909 	4697 	0.056912
34.63 	0.050106 	4710 	0.049857
34.65 	0.056344 	4721 	0.055351
34.67 	0.065809 	4741 	0.064697
34.69 	0.056584 	4754 	0.055721
34.71 	0.062946 	4766 	0.062208
34.73 	0.059118 	4787 	0.057508
34.75 	0.059276 	4808 	0.058667
34.77 	0.057285 	4818 	0.056313
34.79 	0.057836 	4824 	0.057107
34.81 	0.067079 	4845 	0.065609
34.83 	0.057795 	4862 	0.056811
34.85 	0.056274 	4869 	0.055071
34.87 	0.055053 	4868 	0.054452
34.89 	0.060631 	4882 	0.059911
34.91 	0.058173 	4882 	0.056613
34.93 	0.055726 	4899 	0.055247
34.95 	0.057055 	4890 	0.055737
34.97 	0.059772 	4902 	0.058577
34.99 	0.054727 	4897 	0.054129
35.01 	0.057892 	4923 	0.056464
35.03 	0.061097 	4943 	0.060385
35.05 	0.061451 	4947 	0.060741
35.07 	0.058502 	4940 	0.057316
35.09 	0.057743 	4953 	0.057151
35.11 	0.055387 	4947 	0.054558
35.13 	0.055466 	4958 	0.055230
35.15 	0.056917 	4937 	0.055968
35.17 	0.058633 	4946 	0.057686
35.19 	0.058074 	4942 	0.057125
35.21 	0.053589 	4945 	0.052879
35.23 	0.054196 	4945 	0.053584
35.25 	0.051588 	4943 	0.050877
35.27 	0.062449 	4948 	0.061147
35.29 	0.056421 	4945 	0.055473
35.31 	0.056761 	4933 	0.055454
35.33 	0.060287 	4943 	0.058628
35.35 	0.066370 	4942 	0.064948
35.37 	0.058109 	4939 	0.057635
35.39 	0.056421 	4945 	0.055354
35.41 	0.059683 	4926 	0.057642
35.43 	0.060409 	4933 	0.059341
35.45 	0.054892 	4937 	0.053942
35.47 	0.063476 	4931 	0.062288
35.49 	0.063747 	4910 	0.063390
35.51 	0.056841 	4926 	0.056366
35.53 	0.062437 	4949 	0.061727
35.55 	0.059050 	4945 	0.057865
35.57 	0.056963 	4933 	0.056370
35.59 	0.063498 	4945 	0.062413
35.61 	0.053420 	4942 	0.053064
35.63 	0.057657 	4943 	0.055860
35.65 	0.060061 	4945 	0.059113
35.67 	0.060097 	4942 	0.059603
35.69 	0.054185 	4946 	0.052882
35.71 	0.059955 	4937 	0.058532
35.73 	0.062601 	4936 	0.061652
35.75 	0.056986 	4931 	0.056036
35.77 	0.062816 	4951 	0.061869
35.79 	0.049676 	4932 	0.049082
35.81 	0.056761 	4933 	0.056167
35.83 	0.055803 	4946 	0.054954
35.85 	0.057143 	4935 	0.055956
35.87 	0.058501 	4923 	0.057668
35.89 	0.061411 	4934 	0.060817
35.91 	0.052973 	4927 	0.051784
35.93 	0.057236 	4927 	0.056522
35.95 	0.060606 	4917 	0.059534
35.97 	0.051710 	4912 	0.051233
35.99 	0.060336 	4939 	0.059012
36.01 	0.058418 	4930 	0.057091
36.03 	0.059883 	4943 	0.058560
36.05 	0.056825 	4945 	0.055640
36.07 	0.055274 	4939 	0.054326
36.09 	0.059312 	4940 	0.058363
36.11 	0.061067 	4929 	0.060473
36.13 	0.053217 	4942 	0.052269
36.15 	0.060134 	4939 	0.059303
36.17 	0.051777 	4925 	0.050806
36.19 	0.058300 	4940 	0.057707
36.21 	0.058227 	4929 	0.057395
36.23 	0.054711 	4935 	0.053406
36.25 	0.057478 	4941 	0.056056
36.27 	0.050355 	4925 	0.049404
36.29 	0.055567 	4931 	0.054953
36.31 	0.056615 	4928 	0.055189
36.33 	0.059801 	4933 	0.058376
36.35 	0.052952 	4929 	0.052120
36.37 	0.062157 	4923 	0.061086
36.39 	0.058321 	4921 	0.057250
36.41 	0.060866 	4896 	0.060028
36.43 	0.057427 	4928 	0.056833
36.45 	0.055578 	4930 	0.054984
36.47 	0.054092 	4936 	0.052906
36.49 	0.051194 	4942 	0.051194
36.51 	0.062031 	4933 	0.061437
36.53 	0.057860 	4943 	0.056793
36.55 	0.053988 	4927 	0.053156
36.57 	0.056344 	4934 	0.055988
36.59 	0.059121 	4939 	0.057698
36.61 	0.052930 	4931 	0.052455
36.63 	0.061042 	4931 	0.060211
36.65 	0.054542 	4932 	0.053710
36.67 	0.057809 	4930 	0.056621
36.69 	0.054372 	4929 	0.053302
36.71 	0.062182 	4921 	0.061349
36.73 	0.056244 	4925 	0.054559
36.75 	0.057443 	4944 	0.055746
36.77 	0.060581 	4919 	0.059510
36.79 	0.054664 	4921 	0.054068
36.81 	0.057771 	4916 	0.057056
36.83 	0.053510 	4915 	0.052914
36.85 	0.047366 	4898 	0.046768
36.87 	0.051375 	4944 	0.051138
36.89 	0.059601 	4916 	0.058033
36.91 	0.052823 	4941 	0.051599
36.93 	0.061055 	4930 	0.059272
36.95 	0.054328 	4933 	0.053141
36.97 	0.055330 	4934 	0.054143
36.99 	0.056130 	4935 	0.055180
37.01 	0.060815 	4933 	0.059489
37.03 	0.059708 	4924 	0.058280
37.05 	0.054394 	4927 	0.053899
37.07 	0.048227 	4935 	0.047633
37.09 	0.049310 	4928 	0.048716
37.11 	0.060182 	4935 	0.058995
37.13 	0.056052 	4924 	0.054981
37.15 	0.057242 	4909 	0.056406
37.17 	0.054925 	4934 	0.054688
37.19 	0.056853 	4925 	0.056020
37.21 	0.053285 	4917 	0.052451
37.23 	0.054697 	4918 	0.054101
37.25 	0.055793 	4911 	0.054362
37.27 	0.052922 	4894 	0.051845
37.29 	0.054564 	4930 	0.053475
37.31 	0.057751 	4935 	0.056920
37.33 	0.060889 	4927 	0.058848
37.35 	0.058323 	4938 	0.057493
37.37 	0.054394 	4927 	0.053919
37.39 	0.046644 	4931 	0.045693
37.41 	0.053539 	4931 	0.052826
37.43 	0.057380 	4932 	0.057024
37.45 	0.054427 	4924 	0.053119
37.47 	0.056604 	4929 	0.054821
37.49 	0.053626 	4923 	0.052912
37.51 	0.048855 	4933 	0.048142
37.53 	0.051433 	4919 	0.050242
37.55 	0.056592 	4930 	0.055523
37.57 	0.055228 	4925 	0.053801
37.59 	0.054934 	4915 	0.053861
37.61 	0.055262 	4922 	0.054429
37.63 	0.052856 	4919 	0.052023
37.65 	0.055510 	4918 	0.054081
37.67 	0.050367 	4904 	0.049153
37.69 	0.056350 	4898 	0.055752
37.71 	0.053763 	4929 	0.053050
37.73 	0.052343 	4929 	0.051868
37.75 	0.054251 	4940 	0.053065
37.77 	0.050813 	4920 	0.049741
37.79 	0.052333 	4930 	0.051857
37.81 	0.049463 	4933 	0.048988
37.83 	0.053252 	4920 	0.052538
37.85 	0.054246 	4922 	0.053394
37.87 	0.051630 	4939 	0.051037
37.89 	0.052386 	4925 	0.051791
37.91 	0.054361 	4930 	0.053173
37.93 	0.044725 	4919 	0.044248
37.95 	0.056493 	4921 	0.055302
37.97 	0.046663 	4929 	0.046187
37.99 	0.055782 	4912 	0.055305
38.01 	0.053571 	4928 	0.052739
38.03 	0.051334 	4909 	0.050738
38.05 	0.053198 	4925 	0.052722
38.07 	0.051538 	4909 	0.050583
38.09 	0.052071 	4878 	0.050990
38.11 	0.052482 	4935 	0.052007
38.13 	0.052056 	4937 	0.051700
38.15 	0.050224 	4918 	0.049747
38.17 	0.054970 	4930 	0.054375
38.19 	0.050304 	4930 	0.050067
38.21 	0.053829 	4923 	0.052877
38.23 	0.054678 	4938 	0.053729
38.25 	0.053895 	4917 	0.053299
38.27 	0.054970 	4930 	0.054375
38.29 	0.052396 	4924 	0.052040
38.31 	0.056627 	4927 	0.055676
38.33 	0.057474 	4924 	0.056046
38.35 	0.058036 	4928 	0.056490
38.37 	0.062145 	4924 	0.060955
38.39 	0.062131 	4909 	0.060818
38.41 	0.060938 	4923 	0.060106
38.43 	0.060822 	4916 	0.059749
38.45 	0.060187 	4918 	0.058996
38.47 	0.058488 	4907 	0.057533
38.49 	0.064589 	4877 	0.063508
38.51 	0.064882 	4932 	0.063220
38.53 	0.065125 	4929 	0.063936
38.55 	0.062804 	4936 	0.062329
38.57 	0.061751 	4923 	0.061275
38.59 	0.063972 	4924 	0.062664
38.61 	0.063614 	4936 	0.062190
38.63 	0.055646 	4924 	0.054337
38.65 	0.063237 	4918 	0.062046
38.67 	0.059145 	4937 	0.057840
38.69 	0.058716 	4922 	0.057764
38.71 	0.058692 	4924 	0.057126
38.73 	0.054697 	4918 	0.053863
38.75 	0.056627 	4927 	0.055794
38.77 	0.053220 	4923 	0.052744
38.79 	0.054925 	4934 	0.053856
38.81 	0.050896 	4912 	0.050419
38.83 	0.052246 	4919 	0.051512
38.85 	0.052321 	4912 	0.051486
38.87 	0.049481 	4911 	0.049123
38.89 	0.054932 	4897 	0.053835
38.91 	0.048746 	4903 	0.048387
38.93 	0.050830 	4938 	0.050237
38.95 	0.046360 	4918 	0.045507
38.97 	0.050497 	4931 	0.049784
38.99 	0.045979 	4937 	0.045149
39.01 	0.044530 	4918 	0.044173
39.03 	0.044386 	4934 	0.043911
39.05 	0.049340 	4925 	0.048864
39.07 	0.049959 	4924 	0.049365
39.09 	0.049563 	4923 	0.048611
39.11 	0.048874 	4931 	0.048280
39.13 	0.045501 	4923 	0.045144
39.15 	0.047406 	4915 	0.047168
39.17 	0.038485 	4937 	0.037872
39.19 	0.049420 	4917 	0.048825
39.21 	0.048269 	4910 	0.048030
39.23 	0.042437 	4925 	0.041961
39.25 	0.052011 	4922 	0.051178
39.27 	0.045825 	4910 	0.045228
39.29 	0.045705 	4901 	0.045107
39.31 	0.046274 	4884 	0.045794
39.33 	0.049888 	4931 	0.048938
39.35 	0.048430 	4935 	0.047836
39.37 	0.041793 	4929 	0.041080
39.39 	0.043822 	4929 	0.043466
39.41 	0.043602 	4931 	0.043245
39.43 	0.045408 	4933 	0.044815
39.45 	0.043249 	4925 	0.042892
39.47 	0.045907 	4923 	0.045312
39.49 	0.045814 	4933 	0.045339
39.51 	0.042851 	4924 	0.042138
39.53 	0.047938 	4923 	0.047224
39.55 	0.048384 	4919 	0.047788
39.57 	0.041760 	4933 	0.041166
39.59 	0.048656 	4912 	0.047464
39.61 	0.044282 	4923 	0.043568
39.63 	0.046323 	4922 	0.045609
39.65 	0.041007 	4926 	0.040650
39.67 	0.042947 	4913 	0.042590
39.69 	0.044548 	4916 	0.043833
39.71 	0.046578 	4895 	0.045980
39.73 	0.043399 	4908 	0.042802
39.75 	0.045455 	4928 	0.044622
39.77 	0.049443 	4935 	0.048968
39.79 	0.045676 	4926 	0.045081
39.81 	0.044246 	4927 	0.043751
39.83 	0.049453 	4934 	0.049215
39.85 	0.047696 	4927 	0.046864
39.87 	0.044873 	4925 	0.043783
39.89 	0.042359 	4934 	0.041528
39.91 	0.041447 	4922 	0.040713
39.93 	0.041726 	4937 	0.041132
39.95 	0.052085 	4915 	0.051609
39.97 	0.043019 	4928 	0.042425
39.99 	0.048256 	4932 	0.048138
40.01 	0.045954 	4918 	0.045358
40.03 	0.043628 	4928 	0.042915
40.05 	0.044539 	4917 	0.044063
40.07 	0.041641 	4923 	0.041403
40.09 	0.044142 	4916 	0.043546
40.11 	0.043124 	4916 	0.043005
40.13 	0.044730 	4896 	0.044611
40.15 	0.042133 	4913 	0.041298
40.17 	0.044846 	4928 	0.044370
40.19 	0.041996 	4929 	0.041878
40.21 	0.044377 	4935 	0.043665
40.23 	0.042579 	4932 	0.041985
40.25 	0.049390 	4920 	0.048914
40.27 	0.041726 	4937 	0.040876
40.29 	0.045464 	4927 	0.044988
40.31 	0.043531 	4939 	0.043057
40.33 	0.043796 	4932 	0.042964
40.35 	0.043911 	4919 	0.043316
40.37 	0.046054 	4929 	0.045103
40.39 	0.041777 	4931 	0.041658
40.41 	0.039188 	4925 	0.038593
40.43 	0.041650 	4922 	0.040817
40.45 	0.046219 	4933 	0.045388
40.47 	0.041074 	4918 	0.040835
40.49 	0.046894 	4926 	0.045943
40.51 	0.045916 	4922 	0.045321
40.53 	0.043124 	4916 	0.042886
40.55 	0.043806 	4908 	0.042971
40.57 	0.035174 	4890 	0.034814
40.59 	0.037270 	4937 	0.037151
40.61 	0.040932 	4935 	0.040576
40.63 	0.042191 	4930 	0.041834
40.65 	0.047397 	4937 	0.046804
40.67 	0.040146 	4932 	0.039790
40.69 	0.041928 	4937 	0.041572
40.71 	0.046837 	4932 	0.046124
40.73 	0.039992 	4926 	0.039140
40.75 	0.045630 	4931 	0.044541
40.77 	0.045556 	4939 	0.044963
40.79 	0.046710 	4924 	0.045520
40.81 	0.043918 	4941 	0.043444
40.83 	0.037744 	4928 	0.037149
40.85 	0.042851 	4924 	0.042257
40.87 	0.043831 	4928 	0.043475
40.89 	0.039546 	4931 	0.039071
40.91 	0.040219 	4923 	0.039743
40.93 	0.042562 	4934 	0.041493
40.95 	0.040708 	4913 	0.040351
40.97 	0.042445 	4924 	0.041712
40.99 	0.042851 	4924 	0.041900
41.01 	0.041531 	4912 	0.040796
41.03 	0.046483 	4905 	0.046244
41.05 	0.037277 	4936 	0.037040
41.07 	0.039554 	4930 	0.039197
41.09 	0.040696 	4939 	0.040459
41.11 	0.042148 	4935 	0.041436
41.13 	0.042342 	4936 	0.041867
41.15 	0.044930 	4941 	0.044575
41.17 	0.042764 	4934 	0.042290
41.19 	0.044828 	4930 	0.044352
41.21 	0.043144 	4937 	0.042432
41.23 	0.037255 	4939 	0.037017
41.25 	0.045814 	4933 	0.044983
41.27 	0.041979 	4931 	0.041148
41.29 	0.041396 	4928 	0.041277
41.31 	0.042976 	4933 	0.042382
41.33 	0.039093 	4937 	0.038381
41.35 	0.042527 	4938 	0.041816
41.37 	0.043461 	4924 	0.042985
41.39 	0.039124 	4933 	0.038649
41.41 	0.042834 	4926 	0.042358
41.43 	0.046865 	4929 	0.046509
41.45 	0.041718 	4914 	0.041360
41.47 	0.042225 	4926 	0.041987
41.49 	0.039452 	4892 	0.039213
41.51 	0.036640 	4940 	0.036165
41.53 	0.037419 	4944 	0.037301
41.55 	0.041540 	4935 	0.040828
41.57 	0.035823 	4941 	0.035348
41.59 	0.042165 	4933 	0.041809
41.61 	0.042600 	4953 	0.041891
41.63 	0.039085 	4938 	0.038729
41.65 	0.038953 	4929 	0.038834
41.67 	0.037652 	4940 	0.037533
41.69 	0.039216 	4947 	0.038860
41.71 	0.042156 	4934 	0.041682
41.73 	0.044976 	4936 	0.044264
41.75 	0.042808 	4929 	0.042332
41.77 	0.038251 	4941 	0.037896
41.79 	0.040655 	4944 	0.040063
41.81 	0.046394 	4936 	0.045682
41.83 	0.044643 	4928 	0.044286
41.85 	0.043126 	4939 	0.042533
41.87 	0.033637 	4935 	0.033519
41.89 	0.039124 	4933 	0.038768
41.91 	0.043760 	4936 	0.043404
41.93 	0.040754 	4932 	0.040042
41.95 	0.038126 	4931 	0.038007
41.97 	0.041311 	4914 	0.040715
41.99 	0.037920 	4905 	0.037323
42.01 	0.039053 	4942 	0.038816
42.03 	0.037862 	4939 	0.037150
42.05 	0.040186 	4952 	0.040186
42.07 	0.034839 	4937 	0.034246
42.09 	0.043654 	4948 	0.043062
42.11 	0.040445 	4945 	0.039853
42.13 	0.044085 	4945 	0.043256
42.15 	0.035439 	4938 	0.034609
42.17 	0.040260 	4918 	0.039546
42.19 	0.038101 	4908 	0.037624
42.21 	0.039992 	4901 	0.039394
42.23 	0.041087 	4892 	0.040848
42.25 	0.039681 	4889 	0.039082
42.27 	0.038777 	4874 	0.038296
42.29 	0.038454 	4863 	0.038333
42.31 	0.038929 	4855 	0.038688
42.33 	0.038271 	4834 	0.037544
42.35 	0.037412 	4838 	0.037170
42.37 	0.040994 	4830 	0.040266
42.39 	0.041007 	4804 	0.040642
42.41 	0.035803 	4804 	0.035682
42.43 	0.041736 	4792 	0.040514
42.45 	0.035176 	4776 	0.034931
42.47 	0.046380 	4765 	0.046134
42.49 	0.037146 	4765 	0.036408
42.51 	0.037951 	4743 	0.037457
42.53 	0.040821 	4728 	0.040449
42.55 	0.036321 	4708 	0.035699
42.57 	0.037632 	4730 	0.037384
42.59 	0.038063 	4729 	0.037691
42.61 	0.030374 	4708 	0.030374
42.63 	0.043958 	4709 	0.043585
42.65 	0.037994 	4685 	0.037618
42.67 	0.038642 	4684 	0.038392
42.69 	0.039153 	4674 	0.038255
42.71 	0.035814 	4663 	0.035563
42.73 	0.033405 	4640 	0.033026
42.75 	0.038120 	4617 	0.037739
42.77 	0.034130 	4600 	0.033876
42.79 	0.035356 	4582 	0.034972
42.81 	0.037045 	4562 	0.036788
42.83 	0.038801 	4536 	0.038413
42.85 	0.039311 	4528 	0.038793
42.87 	0.039120 	4499 	0.038859
42.89 	0.035714 	4480 	0.035584
42.91 	0.036804 	4456 	0.036673
42.93 	0.040036 	4446 	0.039377
42.95 	0.043025 	4416 	0.042627
42.97 	0.041809 	4401 	0.041409
42.99 	0.040821 	4385 	0.039997
43.01 	0.035984 	4363 	0.035179
43.03 	0.038080 	4333 	0.037674
43.05 	0.038382 	4325 	0.037840
43.07 	0.036313 	4296 	0.035631
43.09 	0.035956 	4283 	0.035135
43.11 	0.040423 	4255 	0.039735
43.13 	0.038471 	4237 	0.037779
43.15 	0.035901 	4206 	0.035483
43.17 	0.039722 	4179 	0.039279
43.19 	0.032904 	4194 	0.032485
43.21 	0.040268 	4172 	0.039145
43.23 	0.040202 	4154 	0.039779
43.25 	0.041112 	4135 	0.040829
43.27 	0.039464 	4105 	0.038870
43.29 	0.042683 	4100 	0.042254
43.31 	0.037754 	4079 	0.037324
43.33 	0.038509 	4051 	0.038364
43.35 	0.032242 	4032 	0.031806
43.37 	0.036613 	4015 	0.036175
43.39 	0.041479 	4002 	0.040894
43.41 	0.038520 	3972 	0.038077
43.43 	0.039141 	3960 	0.038993
43.45 	0.035070 	3935 	0.034772
43.47 	0.040296 	3921 	0.039848
43.49 	0.034899 	3897 	0.034598
43.51 	0.034821 	3877 	0.034670
43.53 	0.035465 	3863 	0.035313
43.55 	0.039811 	2964 	0.039613
43.57 	0.037087 	2238 	0.036825
43.59 	0.047537 	1746 	0.047537
43.61 	0.040711 	1351 	0.039843
43.63 	0.034965 	1001 	0.034380
43.65 	0.037846 	687 	0.037846
43.67 	0.039841 	502 	0.038674
43.69 	0.043597 	367 	0.043597
43.71 	0.029289 	239 	0.029289
43.73 	0.041667 	120 	0.041667
43.75 	0.125000 	16 	0.125000