File: Example_Data/25SC_s1_0021.000.dat
#F C:\frames\spec\25SC_s1_0021.000
#C title =s:21 frm:0 25SC_s1
#C wavelength =0.15406

#S 1  fr_average C:\frames\spec\25SC_s1_0021.000 C:\win32app\speccom\mask.axs chi 0 180 0 360 0.02
#C 2 theta =0.000000 to 180 deg
#C   q   =0.000000 to 81.568 nm^-1
#C  chi  =0.000000 to 360 deg
#C collumns:
#C  1 position (2theta or chi in degrees)
#C  2 average intensity (sum of all counts in the region divided with number of pixels)
#C  3 Number of pixels in region)
#C  4 error (sum of sqrt(intensity) for all pixels divided by number)
#N 4
#L TTh  Int  N_pix  Err
32.99 	0.098361 	61 	0.098361
33.01 	0.052692 	873 	0.051350
33.03 	0.066139 	1391 	0.065718
33.05 	0.057484 	1757 	0.056484
33.07 	0.074634 	2050 	0.072348
33.09 	0.061355 	2347 	0.059317
33.11 	0.065142 	2579 	0.064233
33.13 	0.063373 	2793 	0.062534
33.15 	0.059687 	2999 	0.059687
33.17 	0.063418 	3201 	0.062137
33.19 	0.064333 	3342 	0.063281
33.21 	0.064610 	3436 	0.063587
33.23 	0.062731 	3523 	0.060375
33.25 	0.058140 	3612 	0.057166
33.27 	0.063636 	3630 	0.062480
33.29 	0.052357 	3648 	0.051394
33.31 	0.063934 	3660 	0.062974
33.33 	0.064026 	3686 	0.062437
33.35 	0.059827 	3694 	0.058875
33.37 	0.062466 	3714 	0.061205
33.39 	0.056315 	3729 	0.055373
33.41 	0.056417 	3740 	0.055791
33.43 	0.059293 	3761 	0.058202
33.45 	0.066260 	3773 	0.065018
33.47 	0.067930 	3798 	0.065746
33.49 	0.061959 	3809 	0.061190
33.51 	0.055046 	3815 	0.054739
33.53 	0.052590 	3841 	0.051370
33.55 	0.061931 	3843 	0.060254
33.57 	0.056745 	3877 	0.055536
33.59 	0.056959 	3880 	0.056204
33.61 	0.056280 	3909 	0.054757
33.63 	0.060985 	3919 	0.059789
33.65 	0.060544 	3931 	0.058732
33.67 	0.065503 	3954 	0.064022
33.69 	0.062484 	3953 	0.060558
33.71 	0.062138 	3975 	0.061254
33.73 	0.063187 	4004 	0.062163
33.75 	0.059015 	3999 	0.057550
33.77 	0.057888 	4025 	0.056142
33.79 	0.055927 	4041 	0.055347
33.81 	0.061664 	4038 	0.060359
33.83 	0.068889 	4050 	0.067587
33.85 	0.059039 	4099 	0.057610
33.87 	0.056434 	4111 	0.055128
33.89 	0.062364 	4121 	0.061653
33.91 	0.057122 	4149 	0.055828
33.93 	0.056854 	4151 	0.054855
33.95 	0.062186 	4181 	0.061626
33.97 	0.064439 	4190 	0.062983
33.99 	0.063333 	4200 	0.062218
34.01 	0.056729 	4213 	0.055617
34.03 	0.055844 	4244 	0.054717
34.05 	0.058796 	4252 	0.057418
34.07 	0.055061 	4268 	0.053688
34.09 	0.066262 	4286 	0.064212
34.11 	0.059275 	4302 	0.058049
34.13 	0.061049 	4308 	0.059939
34.15 	0.055414 	4331 	0.054468
34.17 	0.059080 	4350 	0.057577
34.19 	0.058001 	4362 	0.057061
34.21 	0.056966 	4371 	0.056162
34.23 	0.057136 	4393 	0.056603
34.25 	0.062443 	4404 	0.060958
34.27 	0.059249 	4422 	0.058433
34.29 	0.060879 	4435 	0.060087
34.31 	0.063033 	4458 	0.061850
34.33 	0.058824 	4471 	0.057644
34.35 	0.060660 	4484 	0.060007
34.37 	0.056558 	4491 	0.056297
34.39 	0.051755 	4502 	0.051364
34.41 	0.061644 	4526 	0.060997
34.43 	0.059705 	4539 	0.058543
34.45 	0.061301 	4535 	0.059880
34.47 	0.049216 	4592 	0.048451
34.49 	0.057864 	4597 	0.056844
34.51 	0.057317 	4606 	0.056426
34.53 	0.058367 	4643 	0.057232
34.55 	0.057506 	4643 	0.056749
34.57 	0.051717 	4660 	0.050837
34.59 	0.057754 	4675 	0.056877
34.61 	0.056845 	4697 	0.055972
34.63 	0.058599 	4710 	0.056982
34.65 	0.055073 	4721 	0.054577
34.67 	0.050622 	4741 	0.050128
34.69 	0.061001 	4754 	0.060262
34.71 	0.059589 	4766 	0.058728
34.73 	0.052225 	4787 	0.051491
34.75 	0.061980 	4808 	0.060600
34.77 	0.053964 	4818 	0.052870
34.79 	0.059080 	4824 	0.057380
34.81 	0.057792 	4845 	0.056945
34.83 	0.053476 	4862 	0.052151
34.85 	0.057301 	4869 	0.056219
34.87 	0.054026 	4868 	0.052943
34.89 	0.057763 	4882 	0.056904
34.91 	0.057968 	4882 	0.057008
34.93 	0.048581 	4899 	0.047744
34.95 	0.059714 	4890 	0.059115
34.97 	0.058140 	4902 	0.057064
34.99 	0.058199 	4897 	0.057003
35.01 	0.054438 	4923 	0.053605
35.03 	0.053207 	4943 	0.052258
35.05 	0.053164 	4947 	0.052453
35.07 	0.055668 	4940 	0.054818
35.09 	0.062185 	4953 	0.061593
35.11 	0.052961 	4947 	0.052014
35.13 	0.048407 	4958 	0.047580
35.15 	0.061373 	4937 	0.060899
35.17 	0.065305 	4946 	0.064239
35.19 	0.057669 	4942 	0.056464
35.21 	0.050758 	4945 	0.050285
35.23 	0.051972 	4945 	0.051142
35.25 	0.058669 	4943 	0.057128
35.27 	0.058812 	4948 	0.057983
35.29 	0.060061 	4945 	0.059468
35.31 	0.057977 	4933 	0.057383
35.33 	0.057455 	4943 	0.056625
35.35 	0.060097 	4942 	0.058280
35.37 	0.057502 	4939 	0.056908
35.39 	0.059050 	4945 	0.057628
35.41 	0.059277 	4926 	0.058564
35.43 	0.056355 	4933 	0.055643
35.45 	0.058538 	4937 	0.057588
35.47 	0.060028 	4931 	0.059078
35.49 	0.052546 	4910 	0.051711
35.51 	0.049939 	4926 	0.049087
35.53 	0.062437 	4949 	0.061608
35.55 	0.059252 	4945 	0.058166
35.57 	0.058788 	4933 	0.058075
35.59 	0.055005 	4945 	0.054156
35.61 	0.056455 	4942 	0.056218
35.63 	0.057657 	4943 	0.056117
35.65 	0.059050 	4945 	0.058220
35.67 	0.058478 	4942 	0.057767
35.69 	0.054387 	4946 	0.052966
35.71 	0.059753 	4937 	0.058566
35.73 	0.056321 	4936 	0.055015
35.75 	0.065707 	4931 	0.063925
35.77 	0.061200 	4951 	0.060135
35.79 	0.054947 	4932 	0.053878
35.81 	0.060004 	4933 	0.058935
35.83 	0.061868 	4946 	0.060664
35.85 	0.054711 	4935 	0.053643
35.87 	0.062767 	4923 	0.061815
35.89 	0.054925 	4934 	0.054213
35.91 	0.056424 	4927 	0.056067
35.93 	0.061498 	4927 	0.060071
35.95 	0.063250 	4917 	0.061801
35.97 	0.059650 	4912 	0.058934
35.99 	0.054262 	4939 	0.053550
36.01 	0.058215 	4930 	0.057027
36.03 	0.054825 	4943 	0.053758
36.05 	0.060263 	4945 	0.059671
36.07 	0.054667 	4939 	0.054074
36.09 	0.059514 	4940 	0.058684
36.11 	0.056604 	4929 	0.056128
36.13 	0.054229 	4942 	0.053162
36.15 	0.059931 	4939 	0.057994
36.17 	0.056041 	4925 	0.055208
36.19 	0.060931 	4940 	0.059390
36.21 	0.059038 	4929 	0.057612
36.23 	0.056332 	4935 	0.055858
36.25 	0.053026 	4941 	0.052314
36.27 	0.059898 	4925 	0.058709
36.29 	0.065301 	4931 	0.064232
36.31 	0.054992 	4928 	0.054160
36.33 	0.059801 	4933 	0.058614
36.35 	0.053966 	4929 	0.053134
36.37 	0.057892 	4923 	0.057059
36.39 	0.056086 	4921 	0.055253
36.41 	0.064338 	4896 	0.063979
36.43 	0.062500 	4928 	0.061074
36.45 	0.052941 	4930 	0.052109
36.47 	0.057131 	4936 	0.056182
36.49 	0.060704 	4942 	0.058808
36.51 	0.059801 	4933 	0.059208
36.53 	0.060085 	4943 	0.058900
36.55 	0.065354 	4927 	0.063809
36.57 	0.063843 	4934 	0.063012
36.59 	0.057097 	4939 	0.056504
36.61 	0.053742 	4931 	0.052791
36.63 	0.060231 	4931 	0.059281
36.65 	0.059813 	4932 	0.058863
36.67 	0.054970 	4930 	0.054494
36.69 	0.060256 	4929 	0.059543
36.71 	0.058728 	4921 	0.057776
36.73 	0.064162 	4925 	0.062854
36.75 	0.060477 	4944 	0.059411
36.77 	0.061395 	4919 	0.060422
36.79 	0.057915 	4921 	0.056844
36.81 	0.057771 	4916 	0.057175
36.83 	0.061648 	4915 	0.060575
36.85 	0.062883 	4898 	0.062404
36.87 	0.058657 	4944 	0.057946
36.89 	0.059398 	4916 	0.057849
36.91 	0.055859 	4941 	0.055029
36.93 	0.059026 	4930 	0.058076
36.95 	0.054531 	4933 	0.053462
36.97 	0.064248 	4934 	0.062467
36.99 	0.063425 	4935 	0.062455
37.01 	0.065477 	4933 	0.064290
37.03 	0.057677 	4924 	0.056606
37.05 	0.059468 	4927 	0.058636
37.07 	0.057751 	4935 	0.056564
37.09 	0.053369 	4928 	0.052536
37.11 	0.063425 	4935 	0.062594
37.13 	0.060114 	4924 	0.058329
37.15 	0.056427 	4909 	0.055353
37.17 	0.059181 	4934 	0.057737
37.19 	0.061320 	4925 	0.060706
37.21 	0.061420 	4917 	0.060943
37.23 	0.053070 	4918 	0.052237
37.25 	0.060476 	4911 	0.059403
37.27 	0.059256 	4894 	0.058140
37.29 	0.054158 	4930 	0.053208
37.31 	0.057345 	4935 	0.055565
37.33 	0.054394 	4927 	0.053443
37.35 	0.056703 	4938 	0.055873
37.37 	0.053988 	4927 	0.053394
37.39 	0.058000 	4931 	0.057406
37.41 	0.063476 	4931 	0.062288
37.43 	0.057380 	4932 	0.056787
37.45 	0.056052 	4924 	0.055457
37.47 	0.055995 	4929 	0.055401
37.49 	0.057079 	4923 	0.056603
37.51 	0.056355 	4933 	0.055761
37.53 	0.055092 	4919 	0.054021
37.55 	0.060852 	4930 	0.059664
37.57 	0.056447 	4925 	0.056209
37.59 	0.055341 	4915 	0.054030
37.61 	0.061154 	4922 	0.060559
37.63 	0.059362 	4919 	0.057794
37.65 	0.055917 	4918 	0.054726
37.67 	0.059135 	4904 	0.058180
37.69 	0.057983 	4898 	0.057624
37.71 	0.059647 	4929 	0.058459
37.73 	0.060864 	4929 	0.059537
37.75 	0.056478 	4940 	0.056122
37.77 	0.061585 	4920 	0.060871
37.79 	0.056592 	4930 	0.056117
37.81 	0.059193 	4933 	0.058243
37.83 	0.060976 	4920 	0.059785
37.85 	0.056684 	4922 	0.055494
37.87 	0.054262 	4939 	0.052720
37.89 	0.053807 	4925 	0.052856
37.91 	0.053753 	4930 	0.052802
37.93 	0.056312 	4919 	0.054764
37.95 	0.055070 	4921 	0.054237
37.97 	0.055995 	4929 	0.055144
37.99 	0.053746 	4912 	0.053269
38.01 	0.056818 	4928 	0.055986
38.03 	0.058871 	4909 	0.058394
38.05 	0.055838 	4925 	0.055362
38.07 	0.062742 	4909 	0.062145
38.09 	0.056376 	4878 	0.055415
38.11 	0.061803 	4935 	0.060854
38.13 	0.054284 	4937 	0.053216
38.15 	0.056730 	4918 	0.055658
38.17 	0.055172 	4930 	0.054459
38.19 	0.055375 	4930 	0.054306
38.21 	0.060735 	4923 	0.060259
38.23 	0.060956 	4938 	0.060106
38.25 	0.064674 	4917 	0.063601
38.27 	0.055375 	4930 	0.054544
38.29 	0.063566 	4924 	0.062218
38.31 	0.059062 	4927 	0.058349
38.33 	0.072502 	4924 	0.070837
38.35 	0.065747 	4928 	0.065152
38.37 	0.064582 	4924 	0.063868
38.39 	0.069464 	4909 	0.068032
38.41 	0.069876 	4923 	0.067853
38.43 	0.074451 	4916 	0.072902
38.45 	0.076861 	4918 	0.075669
38.47 	0.074995 	4907 	0.073543
38.49 	0.074636 	4877 	0.072194
38.51 	0.079278 	4932 	0.076784
38.53 	0.075472 	4929 	0.073689
38.55 	0.078606 	4936 	0.076945
38.57 	0.080845 	4923 	0.078822
38.59 	0.075751 	4924 	0.074681
38.61 	0.082658 	4936 	0.081096
38.63 	0.088546 	4924 	0.086266
38.65 	0.078081 	4918 	0.077009
38.67 	0.083046 	4937 	0.081247
38.69 	0.082487 	4922 	0.081039
38.71 	0.081235 	4924 	0.079054
38.73 	0.077471 	4918 	0.076279
38.75 	0.078141 	4927 	0.076833
38.77 	0.072923 	4923 	0.071833
38.79 	0.073976 	4934 	0.072433
38.81 	0.065554 	4912 	0.064600
38.83 	0.073592 	4919 	0.071310
38.85 	0.067590 	4912 	0.066636
38.87 	0.060273 	4911 	0.059080
38.89 	0.067184 	4897 	0.066107
38.91 	0.058944 	4903 	0.057371
38.93 	0.062576 	4938 	0.061034
38.95 	0.059984 	4918 	0.059269
38.97 	0.054350 	4931 	0.053518
38.99 	0.053271 	4937 	0.052559
39.01 	0.051850 	4918 	0.050897
39.03 	0.056546 	4934 	0.055597
39.05 	0.052995 	4925 	0.052400
39.07 	0.048741 	4924 	0.047908
39.09 	0.046110 	4923 	0.045634
39.11 	0.052728 	4931 	0.052252
39.13 	0.049766 	4923 	0.048695
39.15 	0.050051 	4915 	0.049217
39.17 	0.048005 	4937 	0.047273
39.19 	0.045963 	4917 	0.045248
39.21 	0.054786 	4910 	0.053832
39.23 	0.049949 	4925 	0.048879
39.25 	0.048964 	4922 	0.048131
39.27 	0.044399 	4910 	0.043922
39.29 	0.051010 	4901 	0.050293
39.31 	0.052621 	4884 	0.052141
39.33 	0.044818 	4931 	0.044462
39.35 	0.050051 	4935 	0.048982
39.37 	0.046663 	4929 	0.046068
39.39 	0.043011 	4929 	0.042773
39.41 	0.045427 	4931 	0.044833
39.43 	0.041151 	4933 	0.040676
39.45 	0.047919 	4925 	0.047562
39.47 	0.040016 	4923 	0.039659
39.49 	0.046219 	4933 	0.046101
39.51 	0.047929 	4924 	0.047572
39.53 	0.051595 	4923 	0.050881
39.55 	0.047164 	4919 	0.047045
39.57 	0.049260 	4933 	0.048666
39.59 	0.048860 	4912 	0.048144
39.61 	0.051391 	4923 	0.050202
39.63 	0.046729 	4922 	0.046253
39.65 	0.048721 	4926 	0.048245
39.67 	0.044779 	4913 	0.044183
39.69 	0.046583 	4916 	0.046106
39.71 	0.044535 	4895 	0.044057
39.73 	0.046251 	4908 	0.046012
39.75 	0.046875 	4928 	0.046518
39.77 	0.045795 	4935 	0.045083
39.79 	0.046285 	4926 	0.045690
39.81 	0.049523 	4927 	0.048572
39.83 	0.049047 	4934 	0.048098
39.85 	0.044449 	4927 	0.043854
39.87 	0.048934 	4925 	0.048815
39.89 	0.042156 	4934 	0.041563
39.91 	0.049370 	4922 	0.048894
39.93 	0.048815 	4937 	0.048340
39.95 	0.046185 	4915 	0.045589
39.97 	0.045252 	4928 	0.044895
39.99 	0.042782 	4932 	0.042188
40.01 	0.046767 	4918 	0.045814
40.03 	0.045455 	4928 	0.044385
40.05 	0.041489 	4917 	0.041250
40.07 	0.047532 	4923 	0.047056
40.09 	0.044142 	4916 	0.043665
40.11 	0.042921 	4916 	0.042683
40.13 	0.045956 	4896 	0.045238
40.15 	0.043151 	4913 	0.042793
40.17 	0.042208 	4928 	0.041732
40.19 	0.043214 	4929 	0.042976
40.21 	0.043972 	4935 	0.043378
40.23 	0.048054 	4932 	0.047460
40.25 	0.040854 	4920 	0.040616
40.27 	0.046182 	4937 	0.045707
40.29 	0.044855 	4927 	0.044023
40.31 	0.043126 	4939 	0.042652
40.33 	0.041971 	4932 	0.041496
40.35 	0.046554 	4919 	0.046197
40.37 	0.042605 	4929 	0.042130
40.39 	0.041371 	4931 	0.041133
40.41 	0.042234 	4925 	0.041520
40.43 	0.047135 	4922 	0.046659
40.45 	0.046017 	4933 	0.045660
40.47 	0.045140 	4918 	0.044307
40.49 	0.033496 	4926 	0.033139
40.51 	0.047338 	4922 	0.046981
40.53 	0.041701 	4916 	0.041462
40.55 	0.041361 	4908 	0.040764
40.57 	0.040900 	4890 	0.040900
40.59 	0.045979 	4937 	0.045604
40.61 	0.042958 	4935 	0.042484
40.63 	0.043813 	4930 	0.043219
40.65 	0.044967 	4937 	0.044729
40.67 	0.037307 	4932 	0.036951
40.69 	0.039498 	4937 	0.039260
40.71 	0.042985 	4932 	0.042747
40.73 	0.042225 	4926 	0.041274
40.75 	0.036909 	4931 	0.036553
40.77 	0.043531 	4939 	0.042819
40.79 	0.042648 	4924 	0.042053
40.81 	0.043513 	4941 	0.042901
40.83 	0.036729 	4928 	0.036353
40.85 	0.043461 	4924 	0.042727
40.87 	0.040787 	4928 	0.040074
40.89 	0.043602 	4931 	0.043364
40.91 	0.046313 	4923 	0.045837
40.93 	0.041751 	4934 	0.041514
40.95 	0.044779 	4913 	0.044183
40.97 	0.040211 	4924 	0.039240
40.99 	0.036962 	4924 	0.036605
41.01 	0.039088 	4912 	0.038849
41.03 	0.038124 	4905 	0.037886
41.05 	0.042139 	4936 	0.041783
41.07 	0.038945 	4930 	0.038589
41.09 	0.046366 	4939 	0.046247
41.11 	0.045187 	4935 	0.044594
41.13 	0.043963 	4936 	0.043607
41.15 	0.046752 	4941 	0.046040
41.17 	0.043373 	4934 	0.042660
41.19 	0.042799 	4930 	0.042086
41.21 	0.045372 	4937 	0.044660
41.23 	0.040696 	4939 	0.040222
41.25 	0.038516 	4933 	0.038160
41.27 	0.038329 	4931 	0.037379
41.29 	0.043222 	4928 	0.042747
41.31 	0.039732 	4933 	0.039257
41.33 	0.040916 	4937 	0.040322
41.35 	0.042325 	4938 	0.042088
41.37 	0.032291 	4924 	0.031934
41.39 	0.039935 	4933 	0.039460
41.41 	0.038571 	4926 	0.038095
41.43 	0.044431 	4929 	0.044193
41.45 	0.043549 	4914 	0.043430
41.47 	0.046082 	4926 	0.045606
41.49 	0.043949 	4892 	0.043590
41.51 	0.040891 	4940 	0.040179
41.53 	0.041667 	4944 	0.040956
41.55 	0.043566 	4935 	0.043092
41.57 	0.042906 	4941 	0.042788
41.59 	0.036286 	4933 	0.036167
41.61 	0.040178 	4953 	0.039350
41.63 	0.040097 	4938 	0.039860
41.65 	0.041793 	4929 	0.041318
41.67 	0.037045 	4940 	0.036689
41.69 	0.040833 	4947 	0.040241
41.71 	0.036482 	4934 	0.036244
41.73 	0.039708 	4936 	0.038996
41.75 	0.039765 	4929 	0.039170
41.77 	0.040275 	4941 	0.039564
41.79 	0.039644 	4944 	0.039170
41.81 	0.039708 	4936 	0.038996
41.83 	0.040381 	4928 	0.040263
41.85 	0.043734 	4939 	0.043378
41.87 	0.040527 	4935 	0.040289
41.89 	0.041151 	4933 	0.040676
41.91 	0.038290 	4936 	0.037815
41.93 	0.042985 	4932 	0.042747
41.95 	0.040965 	4931 	0.040114
41.97 	0.040293 	4914 	0.039578
41.99 	0.039144 	4905 	0.038666
42.01 	0.039660 	4942 	0.039304
42.03 	0.037457 	4939 	0.037220
42.05 	0.035339 	4952 	0.035221
42.07 	0.037270 	4937 	0.036795
42.09 	0.039006 	4948 	0.038650
42.11 	0.036603 	4945 	0.035892
42.13 	0.039636 	4945 	0.039399
42.15 	0.043742 	4938 	0.043387
42.17 	0.038430 	4918 	0.037835
42.19 	0.035249 	4908 	0.034532
42.21 	0.039380 	4901 	0.039141
42.23 	0.034137 	4892 	0.033778
42.25 	0.042544 	4889 	0.042305
42.27 	0.039188 	4874 	0.039067
42.29 	0.039276 	4863 	0.039156
42.31 	0.040577 	4855 	0.039973
42.33 	0.039926 	4834 	0.038956
42.35 	0.034932 	4838 	0.034326
42.37 	0.039130 	4830 	0.038888
42.39 	0.036012 	4804 	0.035646
42.41 	0.042673 	4804 	0.042429
42.43 	0.036519 	4792 	0.036030
42.45 	0.045226 	4776 	0.044736
42.47 	0.037566 	4765 	0.036582
42.49 	0.041763 	4765 	0.041517
42.51 	0.034788 	4743 	0.034418
42.53 	0.039763 	4728 	0.039639
42.55 	0.037171 	4708 	0.037046
42.57 	0.039958 	4730 	0.039710
42.59 	0.039755 	4729 	0.039383
42.61 	0.036321 	4708 	0.035948
42.63 	0.034402 	4709 	0.034278
42.65 	0.042263 	4685 	0.042012
42.67 	0.039069 	4684 	0.038569
42.69 	0.034874 	4674 	0.034372
42.71 	0.033026 	4663 	0.032523
42.73 	0.043103 	4640 	0.042598
42.75 	0.036387 	4617 	0.036134
42.77 	0.040870 	4600 	0.040233
42.79 	0.044740 	4582 	0.044357
42.81 	0.039018 	4562 	0.038761
42.83 	0.037257 	4536 	0.036870
42.85 	0.041519 	4528 	0.041002
42.87 	0.042676 	4499 	0.042286
42.89 	0.037946 	4480 	0.037293
42.91 	0.039722 	4456 	0.039722
42.93 	0.035538 	4446 	0.035011
42.95 	0.037364 	4416 	0.036834
42.97 	0.043172 	4401 	0.042506
42.99 	0.044242 	4385 	0.043440
43.01 	0.038047 	4363 	0.037376
43.03 	0.040849 	4333 	0.040444
43.05 	0.035145 	4325 	0.034874
43.07 	0.038641 	4296 	0.038368
43.09 	0.039458 	4283 	0.039185
43.11 	0.036663 	4255 	0.036525
43.13 	0.036819 	4237 	0.036680
43.15 	0.040656 	4206 	0.040099
43.17 	0.042355 	4179 	0.041794
43.19 	0.045303 	4194 	0.044604
43.21 	0.040508 	4172 	0.040087
43.23 	0.038036 	4154 	0.037613
43.25 	0.035308 	4135 	0.035167
43.27 	0.039220 	4105 	0.038935
43.29 	0.041220 	4100 	0.040505
43.31 	0.040941 	4079 	0.040223
43.33 	0.040237 	4051 	0.039803
43.35 	0.038442 	4032 	0.037861
43.37 	0.046575 	4015 	0.045992
43.39 	0.041479 	4002 	0.040894
43.41 	0.040282 	3972 	0.039692
43.43 	0.033838 	3960 	0.033395
43.45 	0.039898 	3935 	0.039749
43.47 	0.038766 	3921 	0.038616
43.49 	0.035925 	3897 	0.035775
43.51 	0.037142 	3877 	0.036538
43.53 	0.033911 	3863 	0.033760
43.55 	0.041498 	2964 	0.041300
43.57 	0.033512 	2238 	0.033250
43.59 	0.034364 	1746 	0.034364
43.61 	0.034789 	1351 	0.034789
43.63 	0.039960 	1001 	0.039375
43.65 	0.033479 	687 	0.031774
43.67 	0.045817 	502 	0.044650
43.69 	0.040872 	367 	0.040872
43.71 	0.041841 	239 	0.041841
43.73 	0.033333 	120 	0.033333
43.75 	0.000000 	16 	0.000000