File: Example_Data/25SC_s1_0040.004.dat
#F C:\frames\spec\25SC_s1_0040.004
#C title =s:40 frm:4 25SC_s1
#C wavelength =0.15406

#S 1  fr_average C:\frames\spec\25SC_s1_0040.004 C:\win32app\speccom\mask.axs chi 0 180 0 360 0.02
#C 2 theta =0.000000 to 180 deg
#C   q   =0.000000 to 81.568 nm^-1
#C  chi  =0.000000 to 360 deg
#C collumns:
#C  1 position (2theta or chi in degrees)
#C  2 average intensity (sum of all counts in the region divided with number of pixels)
#C  3 Number of pixels in region)
#C  4 error (sum of sqrt(intensity) for all pixels divided by number)
#N 4
#L TTh  Int  N_pix  Err
32.99 	0.098361 	61 	0.088758
33.01 	0.066438 	873 	0.064425
33.03 	0.065421 	1391 	0.063315
33.05 	0.051793 	1757 	0.050793
33.07 	0.049268 	2050 	0.048983
33.09 	0.061781 	2347 	0.060783
33.11 	0.060101 	2579 	0.059192
33.13 	0.054064 	2793 	0.053015
33.15 	0.060687 	2999 	0.059710
33.17 	0.057482 	3201 	0.056201
33.19 	0.062837 	3342 	0.062107
33.21 	0.052678 	3436 	0.051286
33.23 	0.051944 	3523 	0.051612
33.25 	0.061739 	3612 	0.060928
33.27 	0.052617 	3630 	0.051326
33.29 	0.053180 	3648 	0.052698
33.31 	0.064754 	3660 	0.063794
33.33 	0.055887 	3686 	0.055251
33.35 	0.058744 	3694 	0.056524
33.37 	0.061120 	3714 	0.060174
33.39 	0.061947 	3729 	0.060219
33.41 	0.057754 	3740 	0.056971
33.43 	0.052911 	3761 	0.051484
33.45 	0.059104 	3773 	0.058017
33.47 	0.056082 	3798 	0.054360
33.49 	0.057758 	3809 	0.057143
33.51 	0.062385 	3815 	0.062078
33.53 	0.058318 	3841 	0.057251
33.55 	0.059329 	3843 	0.058414
33.57 	0.055197 	3877 	0.053989
33.59 	0.059278 	3880 	0.058523
33.61 	0.054234 	3909 	0.053485
33.63 	0.054606 	3919 	0.053858
33.65 	0.059018 	3931 	0.057379
33.67 	0.056904 	3954 	0.056460
33.69 	0.061472 	3953 	0.059670
33.71 	0.058365 	3975 	0.057481
33.73 	0.059441 	4004 	0.057978
33.75 	0.064516 	3999 	0.062758
33.77 	0.055652 	4025 	0.055070
33.79 	0.055927 	4041 	0.055492
33.81 	0.054235 	4038 	0.053364
33.83 	0.058025 	4050 	0.056868
33.85 	0.063918 	4099 	0.062632
33.87 	0.060326 	4111 	0.059329
33.89 	0.064790 	4121 	0.063226
33.91 	0.057845 	4149 	0.056857
33.93 	0.065526 	4151 	0.063833
33.95 	0.057403 	4181 	0.056702
33.97 	0.056802 	4190 	0.055940
33.99 	0.055238 	4200 	0.054122
34.01 	0.056017 	4213 	0.055600
34.03 	0.063619 	4244 	0.062101
34.05 	0.060677 	4252 	0.059300
34.07 	0.051546 	4268 	0.050997
34.09 	0.051563 	4286 	0.050743
34.11 	0.060902 	4302 	0.060085
34.13 	0.057103 	4308 	0.056559
34.15 	0.060032 	4331 	0.059627
34.17 	0.057241 	4350 	0.056703
34.19 	0.057542 	4362 	0.056737
34.21 	0.060398 	4371 	0.059594
34.23 	0.054632 	4393 	0.053832
34.25 	0.055631 	4404 	0.054966
34.27 	0.051560 	4422 	0.050236
34.29 	0.055693 	4435 	0.054901
34.31 	0.062584 	4458 	0.062059
34.33 	0.061731 	4471 	0.061076
34.35 	0.068020 	4484 	0.066300
34.37 	0.050991 	4491 	0.050208
34.39 	0.060640 	4502 	0.058948
34.41 	0.056120 	4526 	0.055344
34.43 	0.061908 	4539 	0.060875
34.45 	0.064388 	4535 	0.063204
34.47 	0.060322 	4592 	0.059429
34.49 	0.057429 	4597 	0.056409
34.51 	0.060790 	4606 	0.059498
34.53 	0.051475 	4643 	0.050971
34.55 	0.057937 	4643 	0.057054
34.57 	0.061588 	4660 	0.059702
34.59 	0.063957 	4675 	0.062830
34.61 	0.059825 	4697 	0.058828
34.63 	0.063057 	4710 	0.062062
34.65 	0.059098 	4721 	0.057733
34.67 	0.057794 	4741 	0.057052
34.69 	0.051746 	4754 	0.050370
34.71 	0.058749 	4766 	0.057643
34.73 	0.062252 	4787 	0.061395
34.75 	0.060732 	4808 	0.059636
34.77 	0.054172 	4818 	0.053686
34.79 	0.050580 	4824 	0.049852
34.81 	0.066047 	4845 	0.065080
34.83 	0.060263 	4862 	0.059299
34.85 	0.062436 	4869 	0.061353
34.87 	0.059367 	4868 	0.058525
34.89 	0.059402 	4882 	0.058682
34.91 	0.061041 	4882 	0.059841
34.93 	0.061441 	4899 	0.059628
34.95 	0.057669 	4890 	0.057429
34.97 	0.063443 	4902 	0.062846
34.99 	0.055748 	4897 	0.054791
35.01 	0.056876 	4923 	0.055686
35.03 	0.058871 	4943 	0.057686
35.05 	0.063069 	4947 	0.061766
35.07 	0.059919 	4940 	0.059326
35.09 	0.060166 	4953 	0.058845
35.11 	0.058419 	4947 	0.057472
35.13 	0.061315 	4958 	0.060370
35.15 	0.059348 	4937 	0.058161
35.17 	0.061464 	4946 	0.060753
35.19 	0.057669 	4942 	0.056346
35.21 	0.056218 	4945 	0.055251
35.23 	0.052781 	4945 	0.051596
35.25 	0.059276 	4943 	0.058209
35.27 	0.058812 	4948 	0.057628
35.29 	0.057230 	4945 	0.056282
35.31 	0.062234 	4933 	0.061046
35.33 	0.062917 	4943 	0.061969
35.35 	0.056455 	4942 	0.055862
35.37 	0.058514 	4939 	0.057209
35.39 	0.055410 	4945 	0.054462
35.41 	0.055217 	4926 	0.054147
35.43 	0.063248 	4933 	0.062179
35.45 	0.054081 	4937 	0.053725
35.47 	0.058406 	4931 	0.057456
35.49 	0.062933 	4910 	0.061720
35.51 	0.058465 	4926 	0.057276
35.53 	0.064255 	4949 	0.062579
35.55 	0.056016 	4945 	0.054832
35.57 	0.057977 	4933 	0.056908
35.59 	0.058038 	4945 	0.057091
35.61 	0.065561 	4942 	0.064237
35.63 	0.056241 	4943 	0.055649
35.65 	0.052983 	4945 	0.052509
35.67 	0.059895 	4942 	0.058709
35.69 	0.056207 	4946 	0.055023
35.71 	0.054487 	4937 	0.054012
35.73 	0.058752 	4936 	0.057565
35.75 	0.061854 	4931 	0.060784
35.77 	0.059786 	4951 	0.058958
35.79 	0.059002 	4932 	0.058527
35.81 	0.054125 	4933 	0.053057
35.83 	0.062273 	4946 	0.061088
35.85 	0.059574 	4935 	0.058487
35.87 	0.057892 	4923 	0.056563
35.89 	0.051682 	4934 	0.050495
35.91 	0.060280 	4927 	0.059210
35.93 	0.060077 	4927 	0.058869
35.95 	0.052064 	4917 	0.051230
35.97 	0.055375 	4912 	0.054759
35.99 	0.057906 	4939 	0.056720
36.01 	0.062069 	4930 	0.060881
36.03 	0.062310 	4943 	0.061481
36.05 	0.054398 	4945 	0.053451
36.07 	0.065398 	4939 	0.064805
36.09 	0.056883 	4940 	0.055934
36.11 	0.060864 	4929 	0.060389
36.13 	0.057467 	4942 	0.056400
36.15 	0.060741 	4939 	0.059387
36.17 	0.059086 	4925 	0.057540
36.19 	0.058300 	4940 	0.057470
36.21 	0.058430 	4929 	0.057598
36.23 	0.064438 	4935 	0.063943
36.25 	0.054847 	4941 	0.054254
36.27 	0.056853 	4925 	0.056020
36.29 	0.058203 	4931 	0.056996
36.31 	0.063515 	4928 	0.062782
36.33 	0.049666 	4933 	0.048953
36.35 	0.059647 	4929 	0.058696
36.37 	0.053829 	4923 	0.052639
36.39 	0.057509 	4921 	0.056318
36.41 	0.053717 	4896 	0.053119
36.43 	0.052760 	4928 	0.051809
36.45 	0.055781 	4930 	0.054930
36.47 	0.053890 	4936 	0.052703
36.49 	0.053622 	4942 	0.053029
36.51 	0.059396 	4933 	0.058208
36.53 	0.055432 	4943 	0.054721
36.55 	0.054394 	4927 	0.053681
36.57 	0.055736 	4934 	0.055142
36.59 	0.058514 	4939 	0.057209
36.61 	0.050294 	4931 	0.049700
36.63 	0.054147 	4931 	0.053434
36.65 	0.056975 	4932 	0.056025
36.67 	0.055375 	4930 	0.053949
36.69 	0.059850 	4929 	0.058761
36.71 	0.057712 	4921 	0.057117
36.73 	0.049543 	4925 	0.049305
36.75 	0.052791 	4944 	0.052317
36.77 	0.056922 	4919 	0.055850
36.79 	0.054664 	4921 	0.053711
36.81 	0.056550 	4916 	0.055597
36.83 	0.058800 	4915 	0.057965
36.85 	0.050020 	4898 	0.049662
36.87 	0.061691 	4944 	0.060388
36.89 	0.058381 	4916 	0.056832
36.91 	0.058895 	4941 	0.057947
36.93 	0.055578 	4930 	0.054390
36.95 	0.047841 	4933 	0.047010
36.97 	0.053912 	4934 	0.053199
36.99 	0.049037 	4935 	0.048444
37.01 	0.052098 	4933 	0.051267
37.03 	0.052396 	4924 	0.051207
37.05 	0.053988 	4927 	0.052680
37.07 	0.049037 	4935 	0.048563
37.09 	0.050933 	4928 	0.050696
37.11 	0.055117 	4935 	0.054167
37.13 	0.051990 	4924 	0.051157
37.15 	0.061316 	4909 	0.060481
37.17 	0.055938 	4934 	0.055345
37.19 	0.054010 	4925 	0.053415
37.21 	0.060403 	4917 	0.059092
37.23 	0.051037 	4918 	0.050084
37.25 	0.052331 	4911 	0.051258
37.27 	0.053944 	4894 	0.053225
37.29 	0.051116 	4930 	0.050284
37.31 	0.053495 	4935 	0.052783
37.33 	0.055206 	4927 	0.054730
37.35 	0.054881 	4938 	0.053912
37.37 	0.057236 	4927 	0.056641
37.39 	0.047860 	4931 	0.047504
37.41 	0.052119 	4931 	0.051525
37.43 	0.056975 	4932 	0.055886
37.45 	0.056052 	4924 	0.055100
37.47 	0.047271 	4929 	0.046677
37.49 	0.054032 	4923 	0.053418
37.51 	0.058990 	4933 	0.058397
37.53 	0.053263 	4919 	0.052072
37.55 	0.054361 	4930 	0.053510
37.57 	0.053198 	4925 	0.052246
37.59 	0.055544 	4915 	0.054233
37.61 	0.057294 	4922 	0.056679
37.63 	0.050417 	4919 	0.049107
37.65 	0.051444 	4918 	0.050253
37.67 	0.054445 	4904 	0.053490
37.69 	0.050225 	4898 	0.049985
37.71 	0.057821 	4929 	0.056851
37.73 	0.044431 	4929 	0.043480
37.75 	0.050000 	4940 	0.048814
37.77 	0.046545 	4920 	0.046307
37.79 	0.054361 	4930 	0.053153
37.81 	0.052909 	4933 	0.051959
37.83 	0.054472 	4920 	0.053638
37.85 	0.051808 	4922 	0.050380
37.87 	0.049403 	4939 	0.049047
37.89 	0.057462 	4925 	0.056253
37.91 	0.055375 	4930 	0.054544
37.93 	0.055702 	4919 	0.054988
37.95 	0.059947 	4921 	0.058162
37.97 	0.056401 	4929 	0.055212
37.99 	0.057003 	4912 	0.056407
38.01 	0.052963 	4928 	0.052012
38.03 	0.055408 	4909 	0.054454
38.05 	0.053807 	4925 	0.053093
38.07 	0.047871 	4909 	0.047036
38.09 	0.053711 	4878 	0.052269
38.11 	0.053698 	4935 	0.052492
38.13 	0.064412 	4937 	0.063344
38.15 	0.054900 	4918 	0.053590
38.17 	0.055984 	4930 	0.054796
38.19 	0.054158 	4930 	0.053445
38.21 	0.061954 	4923 	0.061478
38.23 	0.058323 	4938 	0.057473
38.25 	0.059182 	4917 	0.058587
38.27 	0.062475 	4930 	0.061168
38.29 	0.060317 	4924 	0.059365
38.31 	0.064745 	4927 	0.063794
38.33 	0.060926 	4924 	0.060331
38.35 	0.056412 	4928 	0.055105
38.37 	0.060114 	4924 	0.059004
38.39 	0.060501 	4909 	0.059408
38.41 	0.064189 	4923 	0.063237
38.43 	0.063873 	4916 	0.062443
38.45 	0.065880 	4918 	0.065047
38.47 	0.065824 	4907 	0.063437
38.49 	0.068075 	4877 	0.065032
38.51 	0.069343 	4932 	0.068393
38.53 	0.068168 	4929 	0.066841
38.55 	0.069895 	4936 	0.067976
38.57 	0.060126 	4923 	0.059055
38.59 	0.063363 	4924 	0.062292
38.61 	0.058347 	4936 	0.057279
38.63 	0.061942 	4924 	0.060871
38.65 	0.065067 	4918 	0.063161
38.67 	0.061171 	4937 	0.060340
38.69 	0.062983 	4922 	0.062268
38.71 	0.061942 	4924 	0.060990
38.73 	0.062627 	4918 	0.061674
38.75 	0.060686 	4927 	0.059735
38.77 	0.055454 	4923 	0.054383
38.79 	0.058776 	4934 	0.058182
38.81 	0.057003 	4912 	0.055652
38.83 	0.056922 	4919 	0.055969
38.85 	0.053542 	4912 	0.052827
38.87 	0.053146 	4911 	0.052430
38.89 	0.052277 	4897 	0.051200
38.91 	0.057720 	4903 	0.056625
38.93 	0.053665 	4938 	0.052598
38.95 	0.055714 	4918 	0.054880
38.97 	0.055972 	4931 	0.055378
38.99 	0.051651 	4937 	0.051295
39.01 	0.053477 	4918 	0.052167
39.03 	0.057357 	4934 	0.056407
39.05 	0.057665 	4925 	0.056832
39.07 	0.052193 	4924 	0.051599
39.09 	0.048954 	4923 	0.048359
39.11 	0.055770 	4931 	0.054938
39.13 	0.053423 	4923 	0.052709
39.15 	0.054730 	4915 	0.053539
39.17 	0.055297 	4937 	0.054703
39.19 	0.051861 	4917 	0.050908
39.21 	0.055193 	4910 	0.054358
39.23 	0.050964 	4925 	0.050013
39.25 	0.054856 	4922 	0.053666
39.27 	0.048269 	4910 	0.047911
39.29 	0.052846 	4901 	0.051054
39.31 	0.052007 	4884 	0.051287
39.33 	0.054147 	4931 	0.053553
39.35 	0.051874 	4935 	0.050925
39.37 	0.053358 	4929 	0.052407
39.39 	0.061067 	4929 	0.059978
39.41 	0.050700 	4931 	0.049749
39.43 	0.050476 	4933 	0.049764
39.45 	0.057056 	4925 	0.055985
39.47 	0.054438 	4923 	0.053962
39.49 	0.061018 	4933 	0.059830
39.51 	0.056458 	4924 	0.055863
39.53 	0.053626 	4923 	0.052912
39.55 	0.057735 	4919 	0.056544
39.57 	0.049868 	4933 	0.048799
39.59 	0.049267 	4912 	0.048552
39.61 	0.053220 	4923 	0.052744
39.63 	0.052824 	4922 	0.052229
39.65 	0.053390 	4926 	0.052558
39.67 	0.057602 	4913 	0.056529
39.69 	0.056347 	4916 	0.055155
39.71 	0.054341 	4895 	0.053144
39.73 	0.053790 	4908 	0.053312
39.75 	0.061485 	4928 	0.060158
39.77 	0.059169 	4935 	0.058220
39.79 	0.053390 	4926 	0.052538
39.81 	0.061498 	4927 	0.060785
39.83 	0.049858 	4934 	0.049146
39.85 	0.045870 	4927 	0.045394
39.87 	0.057056 	4925 	0.055747
39.89 	0.053506 	4934 	0.052537
39.91 	0.055668 	4922 	0.055192
39.93 	0.057120 	4937 	0.056526
39.95 	0.050661 	4915 	0.049946
39.97 	0.059659 	4928 	0.058589
39.99 	0.056772 	4932 	0.056059
40.01 	0.049410 	4918 	0.049172
40.03 	0.053571 	4928 	0.052125
40.05 	0.048810 	4917 	0.047976
40.07 	0.053016 	4923 	0.052184
40.09 	0.051465 	4916 	0.050630
40.11 	0.052075 	4916 	0.051241
40.13 	0.051879 	4896 	0.051281
40.15 	0.052514 	4913 	0.051560
40.17 	0.054180 	4928 	0.053586
40.19 	0.052952 	4929 	0.052477
40.21 	0.053698 	4935 	0.053342
40.23 	0.052920 	4932 	0.052326
40.25 	0.054268 	4920 	0.052959
40.27 	0.055094 	4937 	0.054382
40.29 	0.052567 	4927 	0.051616
40.31 	0.056894 	4939 	0.055333
40.33 	0.051298 	4932 	0.049872
40.35 	0.054076 	4919 	0.053242
40.37 	0.055386 	4929 	0.054436
40.39 	0.050700 	4931 	0.049987
40.41 	0.048731 	4925 	0.048136
40.43 	0.056684 	4922 	0.055970
40.45 	0.050476 	4933 	0.050001
40.47 	0.054697 	4918 	0.054101
40.49 	0.049127 	4926 	0.048651
40.51 	0.059935 	4922 	0.058864
40.53 	0.053499 	4916 	0.052903
40.55 	0.052363 	4908 	0.051767
40.57 	0.056237 	4890 	0.054800
40.59 	0.050638 	4937 	0.049926
40.61 	0.049240 	4935 	0.048765
40.63 	0.048276 	4930 	0.047563
40.65 	0.054081 	4937 	0.053113
40.67 	0.052514 	4932 	0.051920
40.69 	0.050233 	4937 	0.049402
40.71 	0.050081 	4932 	0.049725
40.73 	0.048112 	4926 	0.047636
40.75 	0.052525 	4931 	0.051199
40.77 	0.050010 	4939 	0.049180
40.79 	0.049756 	4924 	0.048805
40.81 	0.048776 	4941 	0.047590
40.83 	0.056615 	4928 	0.056140
40.85 	0.051584 	4924 	0.050851
40.87 	0.051136 	4928 	0.050542
40.89 	0.046035 	4931 	0.045679
40.91 	0.054845 	4923 	0.054369
40.93 	0.045805 	4934 	0.045448
40.95 	0.052717 	4913 	0.051883
40.97 	0.047725 	4924 	0.047250
40.99 	0.053006 	4924 	0.052530
41.01 	0.053542 	4912 	0.052827
41.03 	0.052803 	4905 	0.052087
41.05 	0.051053 	4936 	0.050085
41.07 	0.051521 	4930 	0.051046
41.09 	0.051225 	4939 	0.050632
41.11 	0.056130 	4935 	0.055299
41.13 	0.049028 	4936 	0.048059
41.15 	0.055252 	4941 	0.054659
41.17 	0.045805 	4934 	0.045448
41.19 	0.046450 	4930 	0.045619
41.21 	0.047600 	4937 	0.047244
41.23 	0.056287 	4939 	0.054863
41.25 	0.049666 	4933 	0.048933
41.27 	0.047455 	4931 	0.046742
41.29 	0.044034 	4928 	0.043083
41.31 	0.050071 	4933 	0.049477
41.33 	0.045372 	4937 	0.044778
41.35 	0.048198 	4938 	0.047486
41.37 	0.048132 	4924 	0.047160
41.39 	0.048044 	4933 	0.047806
41.41 	0.049736 	4926 	0.048904
41.43 	0.051938 	4929 	0.050967
41.45 	0.049451 	4914 	0.048855
41.47 	0.050548 	4926 	0.049954
41.49 	0.044971 	4892 	0.044612
41.51 	0.047571 	4940 	0.047452
41.53 	0.048139 	4944 	0.047191
41.55 	0.049037 	4935 	0.048919
41.57 	0.047764 	4941 	0.047052
41.59 	0.048044 	4933 	0.047213
41.61 	0.047244 	4953 	0.046771
41.63 	0.051640 	4938 	0.050691
41.65 	0.044837 	4929 	0.044124
41.67 	0.048381 	4940 	0.047195
41.69 	0.044269 	4947 	0.043677
41.71 	0.046007 	4934 	0.045176
41.73 	0.053282 	4936 	0.052214
41.75 	0.047068 	4929 	0.046712
41.77 	0.046549 	4941 	0.045482
41.79 	0.046521 	4944 	0.045692
41.81 	0.044368 	4936 	0.043537
41.83 	0.047078 	4928 	0.046464
41.85 	0.041506 	4939 	0.041269
41.87 	0.048632 	4935 	0.047920
41.89 	0.043989 	4933 	0.043158
41.91 	0.051459 	4936 	0.050509
41.93 	0.047851 	4932 	0.046663
41.95 	0.040357 	4931 	0.039763
41.97 	0.047009 	4914 	0.046651
41.99 	0.044241 	4905 	0.043166
42.01 	0.051396 	4942 	0.050448
42.03 	0.049403 	4939 	0.048691
42.05 	0.045032 	4952 	0.044677
42.07 	0.043144 	4937 	0.042550
42.09 	0.045069 	4948 	0.044950
42.11 	0.044489 	4945 	0.043423
42.13 	0.051365 	4945 	0.050536
42.15 	0.047995 	4938 	0.047046
42.17 	0.051444 	4918 	0.050014
42.19 	0.047881 	4908 	0.046926
42.21 	0.044481 	4901 	0.043883
42.23 	0.048038 	4892 	0.047080
42.25 	0.043567 	4889 	0.043447
42.27 	0.044727 	4874 	0.044367
42.29 	0.048118 	4863 	0.047275
42.31 	0.046962 	4855 	0.046841
42.33 	0.050062 	4834 	0.049456
42.35 	0.043613 	4838 	0.043129
42.37 	0.046377 	4830 	0.046134
42.39 	0.046836 	4804 	0.045840
42.41 	0.053497 	4804 	0.052644
42.43 	0.047162 	4792 	0.046673
42.45 	0.045645 	4776 	0.045154
42.47 	0.052046 	4765 	0.051042
42.49 	0.045121 	4765 	0.044486
42.51 	0.044065 	4743 	0.043571
42.53 	0.046954 	4728 	0.045963
42.55 	0.046304 	4708 	0.045931
42.57 	0.043340 	4730 	0.042845
42.59 	0.044195 	4729 	0.043432
42.61 	0.041419 	4708 	0.040797
42.63 	0.053090 	4709 	0.052592
42.65 	0.049306 	4685 	0.048556
42.67 	0.050598 	4684 	0.049347
42.69 	0.047925 	4674 	0.047298
42.71 	0.049324 	4663 	0.048571
42.73 	0.046336 	4640 	0.046084
42.75 	0.046134 	4617 	0.045753
42.77 	0.050652 	4600 	0.049888
42.79 	0.047796 	4582 	0.047284
42.81 	0.047786 	4562 	0.047016
42.83 	0.052249 	4536 	0.051086
42.85 	0.050133 	4528 	0.049744
42.87 	0.040231 	4499 	0.039841
42.89 	0.046875 	4480 	0.046352
42.91 	0.043312 	4456 	0.043049
42.93 	0.044309 	4446 	0.044046
42.95 	0.051630 	4416 	0.050702
42.97 	0.041581 	4401 	0.041049
42.99 	0.046294 	4385 	0.046027
43.01 	0.045611 	4363 	0.044671
43.03 	0.048465 	4333 	0.048060
43.05 	0.044855 	4325 	0.044449
43.07 	0.045624 	4296 	0.045078
43.09 	0.047630 	4283 	0.047083
43.11 	0.047944 	4255 	0.046980
43.13 	0.053104 	4237 	0.052136
43.15 	0.048502 	4206 	0.048084
43.17 	0.044508 	4179 	0.043948
43.19 	0.046495 	4194 	0.045797
43.21 	0.051534 	4172 	0.051253
43.23 	0.041406 	4154 	0.040983
43.25 	0.052479 	4135 	0.052054
43.27 	0.042387 	4105 	0.042102
43.29 	0.045610 	4100 	0.044753
43.31 	0.051728 	4079 	0.050292
43.33 	0.044187 	4051 	0.043464
43.35 	0.049107 	4032 	0.048671
43.37 	0.046077 	4015 	0.045640
43.39 	0.042729 	4002 	0.042290
43.41 	0.048087 	3972 	0.046907
43.43 	0.049242 	3960 	0.047615
43.45 	0.048539 	3935 	0.047646
43.47 	0.044376 	3921 	0.043928
43.49 	0.050295 	3897 	0.048491
43.51 	0.044364 	3877 	0.044213
43.53 	0.044525 	3863 	0.043918
43.55 	0.051619 	2964 	0.051619
43.57 	0.044683 	2238 	0.044683
43.59 	0.048110 	1746 	0.046768
43.61 	0.035529 	1351 	0.035529
43.63 	0.042957 	1001 	0.042372
43.65 	0.043668 	687 	0.043668
43.67 	0.041833 	502 	0.040666
43.69 	0.049046 	367 	0.049046
43.71 	0.050209 	239 	0.050209
43.73 	0.041667 	120 	0.041667
43.75 	0.000000 	16 	0.000000