File: Example_Data/25SC_s1_0023.003.dat
#F C:\frames\spec\25SC_s1_0023.003
#C title =s:23 frm:3 25SC_s1
#C wavelength =0.15406

#S 1  fr_average C:\frames\spec\25SC_s1_0023.003 C:\win32app\speccom\mask.axs chi 0 180 0 360 0.02
#C 2 theta =0.000000 to 180 deg
#C   q   =0.000000 to 81.568 nm^-1
#C  chi  =0.000000 to 360 deg
#C collumns:
#C  1 position (2theta or chi in degrees)
#C  2 average intensity (sum of all counts in the region divided with number of pixels)
#C  3 Number of pixels in region)
#C  4 error (sum of sqrt(intensity) for all pixels divided by number)
#N 4
#L TTh  Int  N_pix  Err
32.99 	0.016393 	61 	0.016393
33.01 	0.051546 	873 	0.051546
33.03 	0.060388 	1391 	0.057861
33.05 	0.057484 	1757 	0.056484
33.07 	0.065854 	2050 	0.064996
33.09 	0.067320 	2347 	0.065822
33.11 	0.061652 	2579 	0.060062
33.13 	0.055138 	2793 	0.053670
33.15 	0.065689 	2999 	0.064517
33.17 	0.058732 	3201 	0.058366
33.19 	0.060443 	3342 	0.059216
33.21 	0.060827 	3436 	0.059974
33.23 	0.054499 	3523 	0.053668
33.25 	0.053987 	3612 	0.053014
33.27 	0.056749 	3630 	0.055297
33.29 	0.059759 	3648 	0.058314
33.31 	0.058197 	3660 	0.056756
33.33 	0.060228 	3686 	0.058957
33.35 	0.050081 	3694 	0.049288
33.37 	0.060043 	3714 	0.058913
33.39 	0.057656 	3729 	0.057185
33.41 	0.058824 	3740 	0.057727
33.43 	0.056634 	3761 	0.056011
33.45 	0.059369 	3773 	0.058127
33.47 	0.053976 	3798 	0.053359
33.49 	0.059071 	3809 	0.058148
33.51 	0.058191 	3815 	0.057117
33.53 	0.063004 	3841 	0.061937
33.55 	0.056727 	3843 	0.056117
33.57 	0.056745 	3877 	0.055838
33.59 	0.059021 	3880 	0.057813
33.61 	0.060629 	3909 	0.060180
33.63 	0.058944 	3919 	0.058047
33.65 	0.052913 	3931 	0.051845
33.67 	0.062468 	3954 	0.061876
33.69 	0.056666 	3953 	0.055925
33.71 	0.055346 	3975 	0.054756
33.73 	0.066683 	4004 	0.065513
33.75 	0.069267 	3999 	0.068388
33.77 	0.062112 	4025 	0.061675
33.79 	0.064341 	4041 	0.063616
33.81 	0.058445 	4038 	0.057139
33.83 	0.051605 	4050 	0.050303
33.85 	0.057575 	4099 	0.056575
33.87 	0.056920 	4111 	0.056350
33.89 	0.058724 	4121 	0.057871
33.91 	0.057604 	4149 	0.056616
33.93 	0.057095 	4151 	0.055683
33.95 	0.057403 	4181 	0.056842
33.97 	0.060143 	4190 	0.058326
33.99 	0.055238 	4200 	0.054262
34.01 	0.060764 	4213 	0.060208
34.03 	0.057493 	4244 	0.055814
34.05 	0.059031 	4252 	0.057653
34.07 	0.060918 	4268 	0.059798
34.09 	0.052030 	4286 	0.051483
34.11 	0.057880 	4302 	0.057063
34.13 	0.058264 	4308 	0.057312
34.15 	0.056800 	4331 	0.055312
34.17 	0.055172 	4350 	0.054768
34.19 	0.060293 	4362 	0.059085
34.21 	0.056280 	4371 	0.054940
34.23 	0.058957 	4393 	0.058424
34.25 	0.054723 	4404 	0.054457
34.27 	0.058118 	4422 	0.057324
34.29 	0.064487 	4435 	0.063409
34.31 	0.053836 	4458 	0.053179
34.33 	0.058376 	4471 	0.057721
34.35 	0.055977 	4484 	0.054910
34.37 	0.064351 	4491 	0.063177
34.39 	0.054198 	4502 	0.053678
34.41 	0.060097 	4526 	0.058932
34.43 	0.064552 	4539 	0.063132
34.45 	0.056229 	4535 	0.055454
34.47 	0.060105 	4592 	0.059191
34.49 	0.061997 	4597 	0.060595
34.51 	0.057534 	4606 	0.056262
34.53 	0.054706 	4643 	0.053676
34.55 	0.052337 	4643 	0.051706
34.57 	0.057725 	4660 	0.056343
34.59 	0.054545 	4675 	0.053543
34.61 	0.051522 	4697 	0.050400
34.63 	0.058811 	4710 	0.057940
34.65 	0.059098 	4721 	0.058105
34.67 	0.059903 	4741 	0.058276
34.69 	0.054060 	4754 	0.052458
34.71 	0.060848 	4766 	0.059987
34.73 	0.054314 	4787 	0.053335
34.75 	0.060108 	4808 	0.058890
34.77 	0.054172 	4818 	0.053199
34.79 	0.063018 	4824 	0.061420
34.81 	0.057379 	4845 	0.056895
34.83 	0.060469 	4862 	0.059606
34.85 	0.062847 	4869 	0.061643
34.87 	0.058340 	4868 	0.056636
34.89 	0.053052 	4882 	0.052212
34.91 	0.053667 	4882 	0.052947
34.93 	0.051847 	4899 	0.051010
34.95 	0.059305 	4890 	0.057987
34.97 	0.056712 	4902 	0.055756
34.99 	0.055544 	4897 	0.054946
35.01 	0.058907 	4923 	0.058431
35.03 	0.059478 	4943 	0.058886
35.05 	0.057206 	4947 	0.055766
35.07 	0.059514 	4940 	0.057973
35.09 	0.056531 	4953 	0.055349
35.11 	0.060643 	4947 	0.059577
35.13 	0.057079 	4958 	0.056843
35.15 	0.060158 	4937 	0.058853
35.17 	0.061666 	4946 	0.060837
35.19 	0.054431 	4942 	0.054076
35.21 	0.058847 	4945 	0.057406
35.23 	0.055207 	4945 	0.054260
35.25 	0.054420 	4943 	0.053709
35.27 	0.061439 	4948 	0.060255
35.29 	0.058645 	4945 	0.057697
35.31 	0.059193 	4933 	0.057630
35.33 	0.058264 	4943 	0.057435
35.35 	0.059288 	4942 	0.058339
35.37 	0.056084 	4939 	0.055135
35.39 	0.051769 	4945 	0.051177
35.41 	0.064758 	4926 	0.063688
35.43 	0.057774 	4933 	0.056943
35.45 	0.054892 	4937 	0.052954
35.47 	0.053336 	4931 	0.052504
35.49 	0.052342 	4910 	0.050911
35.51 	0.056232 	4926 	0.055142
35.53 	0.060012 	4949 	0.058927
35.55 	0.059050 	4945 	0.058102
35.57 	0.058180 	4933 	0.057586
35.59 	0.054398 	4945 	0.053095
35.61 	0.060299 	4942 	0.058996
35.63 	0.051993 	4943 	0.051045
35.65 	0.056623 	4945 	0.055675
35.67 	0.059288 	4942 	0.058577
35.69 	0.061059 	4946 	0.059875
35.71 	0.055904 	4937 	0.054955
35.73 	0.058752 	4936 	0.057803
35.75 	0.056784 	4931 	0.055833
35.77 	0.055948 	4951 	0.054883
35.79 	0.062652 	4932 	0.061346
35.81 	0.055950 	4933 	0.055237
35.83 	0.053579 	4946 	0.052868
35.85 	0.057345 	4935 	0.056158
35.87 	0.060126 	4923 	0.058817
35.89 	0.061005 	4934 	0.060293
35.91 	0.062513 	4927 	0.061680
35.93 	0.051553 	4927 	0.051196
35.95 	0.062436 	4917 	0.061841
35.97 	0.055985 	4912 	0.055270
35.99 	0.055679 	4939 	0.054968
36.01 	0.063489 	4930 	0.062182
36.03 	0.054825 	4943 	0.053521
36.05 	0.057432 	4945 	0.056721
36.07 	0.057704 	4939 	0.056024
36.09 	0.058704 	4940 	0.057756
36.11 	0.052952 	4929 	0.052239
36.13 	0.056860 	4942 	0.056267
36.15 	0.057299 	4939 	0.056232
36.17 	0.057868 	4925 	0.057035
36.19 	0.056073 	4940 	0.055124
36.21 	0.058227 	4929 	0.057395
36.23 	0.053293 	4935 	0.052818
36.25 	0.049990 	4941 	0.049279
36.27 	0.055838 	4925 	0.054866
36.29 	0.051511 	4931 	0.050798
36.31 	0.057427 	4928 	0.056476
36.33 	0.059396 	4933 	0.058683
36.35 	0.054981 	4929 	0.054030
36.37 	0.052813 	4923 	0.051623
36.39 	0.053851 	4921 	0.053494
36.41 	0.054534 	4896 	0.053458
36.43 	0.058847 	4928 	0.057659
36.45 	0.059026 	4930 	0.058195
36.47 	0.062399 	4936 	0.061449
36.49 	0.053824 	4942 	0.053350
36.51 	0.055950 	4933 	0.054881
36.53 	0.056646 	4943 	0.056290
36.55 	0.052365 	4927 	0.050938
36.57 	0.051682 	4934 	0.050851
36.59 	0.055072 	4939 	0.054004
36.61 	0.054147 	4931 	0.053791
36.63 	0.049280 	4931 	0.048924
36.65 	0.054542 	4932 	0.054304
36.67 	0.054767 	4930 	0.053579
36.69 	0.057415 	4929 	0.056583
36.71 	0.049177 	4921 	0.049058
36.73 	0.054416 	4925 	0.053822
36.75 	0.052184 	4944 	0.051237
36.77 	0.057735 	4919 	0.056783
36.79 	0.052835 	4921 	0.052478
36.81 	0.052278 	4916 	0.051087
36.83 	0.048627 	4915 	0.048150
36.85 	0.052062 	4898 	0.051105
36.87 	0.053196 	4944 	0.052248
36.89 	0.048007 	4916 	0.047272
36.91 	0.058288 	4941 	0.057458
36.93 	0.053753 	4930 	0.052802
36.95 	0.052098 	4933 	0.051029
36.97 	0.050872 	4934 	0.050397
36.99 	0.052685 	4935 	0.052329
37.01 	0.053314 	4933 	0.052582
37.03 	0.047319 	4924 	0.046724
37.05 	0.053582 	4927 	0.053107
37.07 	0.053090 	4935 	0.052497
37.09 	0.052151 	4928 	0.051319
37.11 	0.045390 	4935 	0.044440
37.13 	0.051178 	4924 	0.050345
37.15 	0.050927 	4909 	0.050072
37.17 	0.056141 	4934 	0.054835
37.19 	0.049949 	4925 	0.049711
37.21 	0.052674 	4917 	0.051721
37.23 	0.048394 	4918 	0.047441
37.25 	0.053553 	4911 	0.052003
37.27 	0.055170 	4894 	0.053853
37.29 	0.052333 	4930 	0.051263
37.31 	0.058967 	4935 	0.058373
37.33 	0.049523 	4927 	0.048929
37.35 	0.057716 	4938 	0.056510
37.37 	0.048102 	4927 	0.047746
37.39 	0.051916 	4931 	0.051441
37.41 	0.046644 	4931 	0.046168
37.43 	0.050487 	4932 	0.049180
37.45 	0.053006 	4924 	0.052153
37.47 	0.049503 	4929 	0.048671
37.49 	0.060329 	4923 	0.059258
37.51 	0.048449 	4933 	0.047737
37.53 	0.051840 	4919 	0.051244
37.55 	0.049696 	4930 	0.049458
37.57 	0.048122 	4925 	0.047646
37.59 	0.051475 	4915 	0.050760
37.61 	0.053027 	4922 	0.052551
37.63 	0.054279 	4919 	0.053208
37.65 	0.049614 	4918 	0.048879
37.67 	0.049755 	4904 	0.049516
37.69 	0.051041 	4898 	0.050443
37.71 	0.047271 	4929 	0.046439
37.73 	0.050517 	4929 	0.049804
37.75 	0.050405 	4940 	0.049318
37.77 	0.050000 	4920 	0.049405
37.79 	0.052333 	4930 	0.051857
37.81 	0.048652 	4933 	0.048414
37.83 	0.047561 	4920 	0.046351
37.85 	0.054449 	4922 	0.053616
37.87 	0.055679 	4939 	0.054612
37.89 	0.050558 	4925 	0.050083
37.91 	0.054158 	4930 	0.053445
37.93 	0.048994 	4919 	0.048160
37.95 	0.054867 	4921 	0.053677
37.97 	0.050517 	4929 	0.049804
37.99 	0.049471 	4912 	0.048874
38.01 	0.052354 	4928 	0.051878
38.03 	0.052149 	4909 	0.051672
38.05 	0.050964 	4925 	0.050112
38.07 	0.055205 	4909 	0.054131
38.09 	0.056171 	4878 	0.054730
38.11 	0.059777 	4935 	0.058452
38.13 	0.055702 	4937 	0.054397
38.15 	0.055510 	4918 	0.054796
38.17 	0.052941 	4930 	0.052347
38.19 	0.053550 	4930 	0.053193
38.21 	0.058501 	4923 	0.057192
38.23 	0.054475 	4938 	0.053526
38.25 	0.056742 	4917 	0.055670
38.27 	0.053347 	4930 	0.052634
38.29 	0.045085 	4924 	0.044966
38.31 	0.056627 	4927 	0.055557
38.33 	0.054021 	4924 	0.053545
38.35 	0.056615 	4928 	0.055189
38.37 	0.052803 	4924 	0.052089
38.39 	0.052964 	4909 	0.052129
38.41 	0.058704 	4923 	0.057752
38.43 	0.058991 	4916 	0.057442
38.45 	0.058967 	4918 	0.057776
38.47 	0.064194 	4907 	0.063239
38.49 	0.055567 	4877 	0.054606
38.51 	0.062449 	4932 	0.061024
38.53 	0.059444 	4929 	0.058612
38.55 	0.058752 	4936 	0.057803
38.57 	0.060126 	4923 	0.059035
38.59 	0.056661 	4924 	0.055115
38.61 	0.053890 	4936 	0.053771
38.63 	0.057271 	4924 	0.056418
38.65 	0.053884 	4918 	0.053050
38.67 	0.052461 	4937 	0.051986
38.69 	0.056887 	4922 	0.056411
38.71 	0.053006 	4924 	0.052411
38.73 	0.054087 	4918 	0.053234
38.75 	0.052973 	4927 	0.052617
38.77 	0.054235 	4923 	0.053640
38.79 	0.050061 	4934 	0.049111
38.81 	0.055985 	4912 	0.055628
38.83 	0.052246 	4919 	0.052008
38.85 	0.055171 	4912 	0.054932
38.87 	0.050295 	4911 	0.049818
38.89 	0.054115 	4897 	0.052919
38.91 	0.052213 	4903 	0.051616
38.93 	0.047388 	4938 	0.046794
38.95 	0.048394 	4918 	0.048036
38.97 	0.048874 	4931 	0.047805
38.99 	0.050435 	4937 	0.049842
39.01 	0.051037 	4918 	0.050322
39.03 	0.047223 	4934 	0.046867
39.05 	0.047919 	4925 	0.046848
39.07 	0.042242 	4924 	0.041647
39.09 	0.048751 	4923 	0.047561
39.11 	0.049686 	4931 	0.049329
39.13 	0.050985 	4923 	0.050390
39.15 	0.050865 	4915 	0.049911
39.17 	0.047195 	4937 	0.046601
39.19 	0.047387 	4917 	0.046910
39.21 	0.047251 	4910 	0.046773
39.23 	0.049543 	4925 	0.048829
39.25 	0.048354 	4922 	0.047640
39.27 	0.041344 	4910 	0.040986
39.29 	0.042236 	4901 	0.041878
39.31 	0.045250 	4884 	0.044530
39.33 	0.051916 	4931 	0.050966
39.35 	0.053901 	4935 	0.053189
39.37 	0.049706 	4929 	0.048993
39.39 	0.046460 	4929 	0.045747
39.41 	0.045832 	4931 	0.045239
39.43 	0.046827 	4933 	0.045759
39.45 	0.045685 	4925 	0.045328
39.47 	0.048548 	4923 	0.047814
39.49 	0.047841 	4933 	0.047485
39.51 	0.049756 	4924 	0.049043
39.53 	0.050376 	4923 	0.049900
39.55 	0.042082 	4919 	0.041724
39.57 	0.048247 	4933 	0.047653
39.59 	0.052932 	4912 	0.052216
39.61 	0.050376 	4923 	0.049642
39.63 	0.048964 	4922 	0.048131
39.65 	0.047503 	4926 	0.046433
39.67 	0.040912 	4913 	0.040316
39.69 	0.047396 	4916 	0.046681
39.71 	0.053524 	4895 	0.052686
39.73 	0.046455 	4908 	0.045858
39.75 	0.050528 	4928 	0.049458
39.77 	0.046403 	4935 	0.045810
39.79 	0.044255 	4926 	0.043541
39.81 	0.042419 	4927 	0.041944
39.83 	0.048237 	4934 	0.047524
39.85 	0.044449 	4927 	0.044092
39.87 	0.050152 	4925 	0.048705
39.89 	0.045197 	4934 	0.044959
39.91 	0.046526 	4922 	0.045931
39.93 	0.045979 	4937 	0.045030
39.95 	0.052696 	4915 	0.052219
39.97 	0.043831 	4928 	0.043237
39.99 	0.041363 	4932 	0.040650
40.01 	0.050834 	4918 	0.050476
40.03 	0.048498 	4928 	0.047785
40.05 	0.046980 	4917 	0.046503
40.07 	0.047126 	4923 	0.046174
40.09 	0.043735 	4916 	0.043358
40.11 	0.048413 	4916 	0.048056
40.13 	0.051471 	4896 	0.050633
40.15 	0.049257 	4913 	0.048542
40.17 	0.049310 	4928 	0.048121
40.19 	0.045242 	4929 	0.044648
40.21 	0.040527 	4935 	0.040289
40.23 	0.055150 	4932 	0.054081
40.25 	0.048171 	4920 	0.047694
40.27 	0.045777 	4937 	0.044689
40.29 	0.041202 	4927 	0.040726
40.31 	0.044341 	4939 	0.043699
40.33 	0.046431 	4932 	0.045600
40.35 	0.045741 	4919 	0.045384
40.37 	0.045040 	4929 	0.044326
40.39 	0.040965 	4931 	0.040490
40.41 	0.043655 	4925 	0.043417
40.43 	0.050386 	4922 	0.049196
40.45 	0.041151 	4933 	0.040795
40.47 	0.042904 	4918 	0.041931
40.49 	0.040195 	4926 	0.040076
40.51 	0.044088 	4922 	0.043612
40.53 	0.044752 	4916 	0.044156
40.55 	0.042584 	4908 	0.042106
40.57 	0.048671 	4890 	0.048072
40.59 	0.042131 	4937 	0.041656
40.61 	0.047619 	4935 	0.046907
40.63 	0.051318 	4930 	0.050487
40.65 	0.041928 	4937 	0.041572
40.67 	0.045215 	4932 	0.044502
40.69 	0.044967 	4937 	0.044255
40.71 	0.040957 	4932 	0.040719
40.73 	0.037150 	4926 	0.036912
40.75 	0.052930 	4931 	0.052099
40.77 	0.041506 	4939 	0.041151
40.79 	0.040211 	4924 	0.039497
40.81 	0.040680 	4941 	0.039850
40.83 	0.044440 	4928 	0.043569
40.85 	0.048132 	4924 	0.047299
40.87 	0.044846 	4928 	0.044608
40.89 	0.040357 	4931 	0.039882
40.91 	0.047126 	4923 	0.046650
40.93 	0.046818 	4934 	0.046224
40.95 	0.046000 	4913 	0.045643
40.97 	0.040414 	4924 	0.039819
40.99 	0.043867 	4924 	0.043272
41.01 	0.042345 	4912 	0.041868
41.03 	0.046279 	4905 	0.045802
41.05 	0.042747 	4936 	0.042372
41.07 	0.045436 	4930 	0.044723
41.09 	0.046163 	4939 	0.045452
41.11 	0.040729 	4935 	0.040255
41.13 	0.047204 	4936 	0.046848
41.15 	0.045133 	4941 	0.044777
41.17 	0.044386 	4934 	0.043792
41.19 	0.044828 	4930 	0.044471
41.21 	0.042536 	4937 	0.042061
41.23 	0.045758 	4939 	0.045165
41.25 	0.043381 	4933 	0.043025
41.27 	0.045021 	4931 	0.044546
41.29 	0.045049 	4928 	0.044573
41.31 	0.046219 	4933 	0.045626
41.33 	0.043346 	4937 	0.042634
41.35 	0.043337 	4938 	0.042744
41.37 	0.042445 	4924 	0.042207
41.39 	0.048449 	4933 	0.047499
41.41 	0.047300 	4926 	0.047062
41.43 	0.045851 	4929 	0.045376
41.45 	0.047009 	4914 	0.046532
41.47 	0.042225 	4926 	0.041630
41.49 	0.045380 	4892 	0.045141
41.51 	0.036437 	4940 	0.035844
41.53 	0.043285 	4944 	0.042929
41.55 	0.045187 	4935 	0.044950
41.57 	0.042299 	4941 	0.041943
41.59 	0.041760 	4933 	0.041047
41.61 	0.040783 	4953 	0.040310
41.63 	0.041920 	4938 	0.041327
41.65 	0.036721 	4929 	0.036365
41.67 	0.036640 	4940 	0.036165
41.69 	0.046695 	4947 	0.046458
41.71 	0.041143 	4934 	0.040055
41.73 	0.039708 	4936 	0.039471
41.75 	0.045445 	4929 	0.044732
41.77 	0.043311 	4941 	0.043074
41.79 	0.044094 	4944 	0.043501
41.81 	0.043963 	4936 	0.043132
41.83 	0.044643 	4928 	0.044524
41.85 	0.044948 	4939 	0.044237
41.87 	0.044985 	4935 	0.044391
41.89 	0.039124 	4933 	0.038649
41.91 	0.043355 	4936 	0.042524
41.93 	0.042376 	4932 	0.042139
41.95 	0.043196 	4931 	0.042365
41.97 	0.040700 	4914 	0.040581
41.99 	0.048726 	4905 	0.048129
42.01 	0.043100 	4942 	0.042744
42.03 	0.036647 	4939 	0.036410
42.05 	0.040388 	4952 	0.039560
42.07 	0.045169 	4937 	0.044932
42.09 	0.039410 	4948 	0.039173
42.11 	0.044894 	4945 	0.044302
42.13 	0.040243 	4945 	0.038891
42.15 	0.032807 	4938 	0.032332
42.17 	0.045344 	4918 	0.045225
42.19 	0.041565 	4908 	0.040849
42.21 	0.042644 	4901 	0.041569
42.23 	0.046607 	4892 	0.045888
42.25 	0.042954 	4889 	0.042235
42.27 	0.043291 	4874 	0.042810
42.29 	0.041538 	4863 	0.040815
42.31 	0.043666 	4855 	0.043546
42.33 	0.043029 	4834 	0.042301
42.35 	0.039893 	4838 	0.039408
42.37 	0.042443 	4830 	0.042322
42.39 	0.044963 	4804 	0.044719
42.41 	0.040591 	4804 	0.039860
42.43 	0.047162 	4792 	0.046062
42.45 	0.040201 	4776 	0.039710
42.47 	0.037985 	4765 	0.037125
42.49 	0.039874 	4765 	0.039751
42.51 	0.038583 	4743 	0.038583
42.53 	0.040821 	4728 	0.039953
42.55 	0.040357 	4708 	0.039984
42.57 	0.038901 	4730 	0.038529
42.59 	0.041235 	4729 	0.040863
42.61 	0.037808 	4708 	0.037186
42.63 	0.044171 	4709 	0.044046
42.65 	0.040982 	4685 	0.040732
42.67 	0.041418 	4684 	0.041167
42.69 	0.037441 	4674 	0.037191
42.71 	0.034313 	4663 	0.033936
42.73 	0.044397 	4640 	0.044018
42.75 	0.043751 	4617 	0.043371
42.77 	0.042391 	4600 	0.042264
42.79 	0.047577 	4582 	0.047066
42.81 	0.039676 	4562 	0.039290
42.83 	0.039903 	4536 	0.039257
42.85 	0.040194 	4528 	0.039677
42.87 	0.041787 	4499 	0.041266
42.89 	0.043973 	4480 	0.043319
42.91 	0.037478 	4456 	0.037346
42.93 	0.042285 	4446 	0.041758
42.95 	0.035326 	4416 	0.035061
42.97 	0.042490 	4401 	0.041825
42.99 	0.040365 	4385 	0.040098
43.01 	0.041256 	4363 	0.040316
43.03 	0.043619 	4333 	0.042808
43.05 	0.042312 	4325 	0.042177
43.07 	0.041899 	4296 	0.041354
43.09 	0.036190 	4283 	0.035506
43.11 	0.042538 	4255 	0.041850
43.13 	0.043191 	4237 	0.042776
43.15 	0.041369 	4206 	0.040534
43.17 	0.039005 	4179 	0.038444
43.19 	0.039342 	4194 	0.038644
43.21 	0.040029 	4172 	0.039327
43.23 	0.036351 	4154 	0.035786
43.25 	0.036276 	4135 	0.035284
43.27 	0.040195 	4105 	0.039767
43.29 	0.039512 	4100 	0.039226
43.31 	0.038000 	4079 	0.037545
43.33 	0.038015 	4051 	0.037871
43.35 	0.050843 	4032 	0.050262
43.37 	0.046575 	4015 	0.046138
43.39 	0.039480 	4002 	0.039334
43.41 	0.046324 	3972 	0.045734
43.43 	0.042424 	3960 	0.041980
43.45 	0.044473 	3935 	0.043728
43.47 	0.039021 	3921 	0.038572
43.49 	0.043623 	3897 	0.043323
43.51 	0.042559 	3877 	0.042256
43.53 	0.040901 	3863 	0.040446
43.55 	0.036775 	2964 	0.035786
43.57 	0.046917 	2238 	0.045608
43.59 	0.039519 	1746 	0.039183
43.61 	0.037750 	1351 	0.037750
43.63 	0.047952 	1001 	0.046782
43.65 	0.034934 	687 	0.034082
43.67 	0.039841 	502 	0.039841
43.69 	0.024523 	367 	0.024523
43.71 	0.029289 	239 	0.029289
43.73 	0.075000 	120 	0.070118
43.75 	0.000000 	16 	0.000000