File: Example_Data/25SC_s1_0045.000.dat
#F C:\frames\spec\25SC_s1_0045.000
#C title =s:45 frm:0 25SC_s1
#C wavelength =0.15406

#S 1  fr_average C:\frames\spec\25SC_s1_0045.000 C:\win32app\speccom\mask.axs chi 0 180 0 360 0.02
#C 2 theta =0.000000 to 180 deg
#C   q   =0.000000 to 81.568 nm^-1
#C  chi  =0.000000 to 360 deg
#C collumns:
#C  1 position (2theta or chi in degrees)
#C  2 average intensity (sum of all counts in the region divided with number of pixels)
#C  3 Number of pixels in region)
#C  4 error (sum of sqrt(intensity) for all pixels divided by number)
#N 4
#L TTh  Int  N_pix  Err
32.99 	0.049180 	61 	0.049180
33.01 	0.052692 	873 	0.051350
33.03 	0.071172 	1391 	0.069066
33.05 	0.066022 	1757 	0.064633
33.07 	0.071220 	2050 	0.069219
33.09 	0.057946 	2347 	0.057198
33.11 	0.058162 	2579 	0.057026
33.13 	0.059434 	2793 	0.058176
33.15 	0.058019 	2999 	0.056457
33.17 	0.053108 	3201 	0.052742
33.19 	0.058049 	3342 	0.057348
33.21 	0.056461 	3436 	0.055950
33.23 	0.059041 	3523 	0.058209
33.25 	0.057586 	3612 	0.056288
33.27 	0.059504 	3630 	0.058536
33.29 	0.063871 	3648 	0.062399
33.31 	0.054098 	3660 	0.053458
33.33 	0.053988 	3686 	0.053193
33.35 	0.066324 	3694 	0.065055
33.37 	0.061928 	3714 	0.060351
33.39 	0.061411 	3729 	0.060939
33.41 	0.061230 	3740 	0.060134
33.43 	0.060888 	3761 	0.060109
33.45 	0.064670 	3773 	0.063117
33.47 	0.065561 	3798 	0.064173
33.49 	0.054608 	3809 	0.054146
33.51 	0.057405 	3815 	0.056330
33.53 	0.058058 	3841 	0.057600
33.55 	0.064533 	3843 	0.062704
33.57 	0.062419 	3877 	0.061815
33.59 	0.061082 	3880 	0.060630
33.61 	0.057559 	3909 	0.056061
33.63 	0.060475 	3919 	0.059553
33.65 	0.061308 	3931 	0.060264
33.67 	0.063733 	3954 	0.062400
33.69 	0.058943 	3953 	0.058053
33.71 	0.057862 	3975 	0.056830
33.73 	0.059690 	4004 	0.058959
33.75 	0.054764 	3999 	0.053738
33.77 	0.055155 	4025 	0.053991
33.79 	0.054689 	4041 	0.053651
33.81 	0.059435 	4038 	0.059145
33.83 	0.058765 	4050 	0.056740
33.85 	0.057331 	4099 	0.056759
33.87 	0.049866 	4111 	0.048988
33.89 	0.058238 	4121 	0.057670
33.91 	0.056881 	4149 	0.056034
33.93 	0.057817 	4151 	0.056971
33.95 	0.054054 	4181 	0.053634
33.97 	0.054415 	4190 	0.053157
33.99 	0.058333 	4200 	0.056753
34.01 	0.058153 	4213 	0.057319
34.03 	0.056315 	4244 	0.055625
34.05 	0.056444 	4252 	0.055617
34.07 	0.067010 	4268 	0.066187
34.09 	0.058796 	4286 	0.057839
34.11 	0.057648 	4302 	0.056422
34.13 	0.058264 	4308 	0.057176
34.15 	0.059571 	4331 	0.058218
34.17 	0.048506 	4350 	0.047967
34.19 	0.055938 	4362 	0.054460
34.21 	0.050103 	4371 	0.049433
34.23 	0.061006 	4393 	0.059939
34.25 	0.058810 	4404 	0.057591
34.27 	0.066486 	4422 	0.064631
34.29 	0.057046 	4435 	0.056386
34.31 	0.053836 	4458 	0.052369
34.33 	0.065981 	4471 	0.065195
34.35 	0.060437 	4484 	0.059109
34.37 	0.065242 	4491 	0.064068
34.39 	0.056864 	4502 	0.056083
34.41 	0.063632 	4526 	0.062338
34.43 	0.065213 	4539 	0.063277
34.45 	0.056009 	4535 	0.054717
34.47 	0.059451 	4592 	0.058665
34.49 	0.059169 	4597 	0.058150
34.51 	0.060356 	4606 	0.059593
34.53 	0.061813 	4643 	0.060678
34.55 	0.054706 	4643 	0.054201
34.57 	0.060515 	4660 	0.058232
34.59 	0.054759 	4675 	0.053882
34.61 	0.058335 	4697 	0.056963
34.63 	0.056900 	4710 	0.055905
34.65 	0.054861 	4721 	0.054117
34.67 	0.055052 	4741 	0.054310
34.69 	0.061632 	4754 	0.060996
34.71 	0.056651 	4766 	0.055668
34.73 	0.062252 	4787 	0.061028
34.75 	0.052829 	4808 	0.051732
34.77 	0.061436 	4818 	0.060585
34.79 	0.058250 	4824 	0.057279
34.81 	0.058617 	4845 	0.057771
34.83 	0.052448 	4862 	0.051584
34.85 	0.058944 	4869 	0.058583
34.87 	0.054232 	4868 	0.052908
34.89 	0.061041 	4882 	0.060321
34.91 	0.054281 	4882 	0.053081
34.93 	0.060012 	4899 	0.058458
34.95 	0.059100 	4890 	0.057782
34.97 	0.066911 	4902 	0.065716
34.99 	0.059220 	4897 	0.058502
35.01 	0.057282 	4923 	0.055497
35.03 	0.056443 	4943 	0.055258
35.05 	0.059632 	4947 	0.058448
35.07 	0.057085 	4940 	0.055899
35.09 	0.053907 	4953 	0.052842
35.11 	0.058824 	4947 	0.058113
35.13 	0.053449 	4958 	0.052386
35.15 	0.065424 	4937 	0.064001
35.17 	0.058027 	4946 	0.057415
35.19 	0.055443 	4942 	0.054732
35.21 	0.060667 	4945 	0.060194
35.23 	0.058443 	4945 	0.057140
35.25 	0.060490 	4943 	0.059897
35.27 	0.058205 	4948 	0.056647
35.29 	0.065925 	4945 	0.064346
35.31 	0.060815 	4933 	0.060221
35.33 	0.061906 	4943 	0.061076
35.35 	0.056050 	4942 	0.054983
35.37 	0.062968 	4939 	0.061782
35.39 	0.058443 	4945 	0.057732
35.41 	0.058871 	4926 	0.057444
35.43 	0.056355 	4933 	0.055999
35.45 	0.056715 	4937 	0.055271
35.47 	0.050294 	4931 	0.049581
35.49 	0.055193 	4910 	0.054716
35.51 	0.059277 	4926 	0.058544
35.53 	0.056577 	4949 	0.055512
35.55 	0.056825 	4945 	0.056114
35.57 	0.057166 	4933 	0.055840
35.59 	0.058241 	4945 	0.057175
35.61 	0.057264 	4942 	0.056435
35.63 	0.053004 	4943 	0.051681
35.65 	0.053792 	4945 	0.052607
35.67 	0.061918 	4942 	0.060614
35.69 	0.053781 	4946 	0.052952
35.71 	0.059145 	4937 	0.058315
35.73 	0.059157 	4936 	0.058326
35.75 	0.056175 	4931 	0.055225
35.77 	0.056352 	4951 	0.055406
35.79 	0.063666 	4932 	0.061627
35.81 	0.051895 	4933 	0.050945
35.83 	0.058027 	4946 	0.056961
35.85 	0.050051 	4935 	0.049457
35.87 	0.059720 	4923 	0.058887
35.89 	0.056952 	4934 	0.055626
35.91 	0.057439 	4927 	0.056606
35.93 	0.057642 	4927 	0.056076
35.95 	0.060809 	4917 	0.059718
35.97 	0.055375 	4912 	0.054540
35.99 	0.053250 	4939 	0.052281
36.01 	0.065314 	4930 	0.064601
36.03 	0.055432 	4943 	0.054365
36.05 	0.056218 	4945 	0.055152
36.07 	0.060336 	4939 	0.059031
36.09 	0.058704 	4940 	0.058112
36.11 	0.055995 	4929 	0.054649
36.13 	0.057264 	4942 	0.056079
36.15 	0.054060 	4939 	0.052992
36.17 	0.056853 	4925 	0.055425
36.19 	0.060324 	4940 	0.058901
36.21 	0.054169 	4929 	0.053456
36.23 	0.058156 	4935 	0.057088
36.25 	0.061526 	4941 	0.060459
36.27 	0.054822 	4925 	0.053395
36.29 	0.058609 	4931 	0.057183
36.31 	0.059050 	4928 	0.058218
36.33 	0.058788 	4933 	0.057838
36.35 	0.059038 	4929 	0.057612
36.37 	0.056063 	4923 	0.055349
36.39 	0.054867 	4921 	0.053796
36.41 	0.058415 	4896 	0.057338
36.43 	0.063312 	4928 	0.062242
36.45 	0.064706 	4930 	0.063479
36.47 	0.057739 	4936 	0.056790
36.49 	0.067786 	4942 	0.066245
36.51 	0.058585 	4933 	0.057991
36.53 	0.063929 	4943 	0.062744
36.55 	0.055612 	4927 	0.054542
36.57 	0.061613 	4934 	0.060189
36.59 	0.055679 	4939 	0.055086
36.61 	0.061042 	4931 	0.059854
36.63 	0.059014 	4931 	0.058064
36.65 	0.054947 	4932 	0.054235
36.67 	0.059432 	4930 	0.058481
36.69 	0.058430 	4929 	0.057122
36.71 	0.061166 	4921 	0.060095
36.73 	0.063959 	4925 	0.062532
36.75 	0.061489 	4944 	0.060067
36.77 	0.058142 	4919 	0.057308
36.79 	0.055883 	4921 	0.055169
36.81 	0.057974 	4916 	0.056663
36.83 	0.055748 	4915 	0.054318
36.85 	0.057779 	4898 	0.056822
36.87 	0.052184 	4944 	0.051118
36.89 	0.055736 	4916 	0.054902
36.91 	0.058490 	4941 	0.057167
36.93 	0.061258 	4930 	0.059475
36.95 	0.057571 	4933 	0.056859
36.97 	0.058979 	4934 	0.057910
36.99 	0.057143 	4935 	0.056549
37.01 	0.063248 	4933 	0.061823
37.03 	0.049350 	4924 	0.048755
37.05 	0.054394 	4927 	0.053324
37.07 	0.060182 	4935 	0.059470
37.09 	0.054180 	4928 	0.053447
37.11 	0.058359 	4935 	0.057508
37.13 	0.061942 	4924 	0.060990
37.15 	0.057038 	4909 	0.056561
37.17 	0.064451 	4934 	0.063264
37.19 	0.060914 	4925 	0.059605
37.21 	0.060403 	4917 	0.059688
37.23 	0.064050 	4918 	0.062978
37.25 	0.064753 	4911 	0.063560
37.27 	0.054352 	4894 	0.053514
37.29 	0.051318 	4930 	0.050843
37.31 	0.055319 	4935 	0.053895
37.33 	0.059062 	4927 	0.057992
37.35 	0.055893 	4938 	0.054687
37.37 	0.055206 	4927 	0.054612
37.39 	0.055972 	4931 	0.055003
37.41 	0.053742 	4931 	0.053385
37.43 	0.057178 	4932 	0.055990
37.45 	0.052600 	4924 	0.051767
37.47 	0.061473 	4929 	0.060265
37.49 	0.052407 	4923 	0.051436
37.51 	0.059396 	4933 	0.058327
37.53 	0.057939 	4919 	0.056986
37.55 	0.055375 	4930 	0.054781
37.57 	0.056244 	4925 	0.055768
37.59 	0.052696 	4915 	0.051981
37.61 	0.057700 	4922 	0.056986
37.63 	0.058142 	4919 	0.056951
37.65 	0.053884 	4918 	0.053288
37.67 	0.057708 	4904 	0.056633
37.69 	0.056758 	4898 	0.055921
37.71 	0.058835 	4929 	0.057409
37.73 	0.055995 	4929 	0.054807
37.75 	0.051012 	4940 	0.050182
37.77 	0.055081 	4920 	0.054248
37.79 	0.057606 	4930 	0.056894
37.81 	0.057774 	4933 	0.056468
37.83 	0.047764 	4920 	0.047407
37.85 	0.057700 	4922 	0.056252
37.87 	0.056489 	4939 	0.055066
37.89 	0.049543 	4925 	0.048592
37.91 	0.057809 	4930 	0.057334
37.93 	0.056516 	4919 	0.055543
37.95 	0.061776 	4921 	0.059633
37.97 	0.054372 	4929 	0.053421
37.99 	0.057003 	4912 	0.055811
38.01 	0.056412 	4928 	0.055580
38.03 	0.060705 	4909 	0.058318
38.05 	0.063350 	4925 	0.062756
38.07 	0.055816 	4909 	0.054981
38.09 	0.058426 	4878 	0.058065
38.11 	0.061196 	4935 	0.060009
38.13 	0.058943 	4937 	0.057875
38.15 	0.063034 	4918 	0.060771
38.17 	0.060852 	4930 	0.058912
38.19 	0.063692 	4930 	0.061395
38.21 	0.060126 	4923 	0.059055
38.23 	0.065411 	4938 	0.063849
38.25 	0.066504 	4917 	0.064936
38.27 	0.068560 	4930 	0.066778
38.29 	0.069659 	4924 	0.068112
38.31 	0.071849 	4927 	0.070066
38.33 	0.076361 	4924 	0.073981
38.35 	0.075690 	4928 	0.073313
38.37 	0.079610 	4924 	0.077945
38.39 	0.073742 	4909 	0.072429
38.41 	0.081048 	4923 	0.079144
38.43 	0.080146 	4916 	0.077406
38.45 	0.083367 	4918 	0.080846
38.47 	0.083962 	4907 	0.081335
38.49 	0.086734 	4877 	0.085273
38.51 	0.084955 	4932 	0.083293
38.53 	0.078109 	4929 	0.076683
38.55 	0.079011 	4936 	0.076856
38.57 	0.078814 	4923 	0.077604
38.59 	0.080219 	4924 	0.078415
38.61 	0.083874 	4936 	0.081975
38.63 	0.071487 	4924 	0.070178
38.65 	0.075030 	4918 	0.072887
38.67 	0.073324 	4937 	0.072256
38.69 	0.062779 	4922 	0.061351
38.71 	0.071284 	4924 	0.070213
38.73 	0.066084 	4918 	0.064893
38.75 	0.064339 	4927 	0.063032
38.77 	0.063985 	4923 	0.062895
38.79 	0.062019 	4934 	0.061306
38.81 	0.060464 	4912 	0.059510
38.83 	0.062411 	4919 	0.061458
38.85 	0.052321 	4912 	0.051963
38.87 	0.055182 	4911 	0.053751
38.89 	0.048397 	4897 	0.047679
38.91 	0.048746 	4903 	0.047770
38.93 	0.047995 	4938 	0.047283
38.95 	0.054290 	4918 	0.053099
38.97 	0.058609 	4931 	0.056470
38.99 	0.052664 	4937 	0.052308
39.01 	0.053477 	4918 	0.052505
39.03 	0.043170 	4934 	0.042695
39.05 	0.050761 	4925 	0.049691
39.07 	0.045898 	4924 	0.044926
39.09 	0.048345 	4923 	0.047869
39.11 	0.050902 	4931 	0.050289
39.13 	0.050173 	4923 	0.049102
39.15 	0.041099 	4915 	0.040979
39.17 	0.048613 	4937 	0.047782
39.19 	0.046980 	4917 	0.046503
39.21 	0.045621 	4910 	0.045383
39.23 	0.047107 	4925 	0.046512
39.25 	0.045104 	4922 	0.044727
39.27 	0.047251 	4910 	0.046634
39.29 	0.042236 	4901 	0.041878
39.31 	0.050983 	4884 	0.050023
39.33 	0.044007 	4931 	0.043532
39.35 	0.044377 	4935 	0.044021
39.37 	0.047068 	4929 	0.046712
39.39 	0.045242 	4929 	0.044391
39.41 	0.043805 	4931 	0.043329
39.43 	0.042368 	4933 	0.042011
39.45 	0.040812 	4925 	0.040217
39.47 	0.049766 	4923 	0.049409
39.49 	0.041760 	4933 	0.041641
39.51 	0.051178 	4924 	0.050345
39.53 	0.044079 	4923 	0.043484
39.55 	0.043301 	4919 	0.042825
39.57 	0.050476 	4933 	0.050239
39.59 	0.053746 	4912 	0.052673
39.61 	0.047938 	4923 	0.047224
39.63 	0.046119 	4922 	0.044910
39.65 	0.047909 	4926 	0.047314
39.67 	0.043558 	4913 	0.042962
39.69 	0.045362 	4916 	0.045005
39.71 	0.048212 	4895 	0.047375
39.73 	0.045844 	4908 	0.045485
39.75 	0.044034 	4928 	0.043677
39.77 	0.043364 	4935 	0.042533
39.79 	0.044864 	4926 	0.043913
39.81 	0.046885 	4927 	0.046171
39.83 	0.044386 	4934 	0.043535
39.85 	0.043434 	4927 	0.042840
39.87 	0.043249 	4925 	0.043130
39.89 	0.048237 	4934 	0.047881
39.91 	0.044291 	4922 	0.043815
39.93 	0.047802 	4937 	0.047209
39.95 	0.043337 	4915 	0.042502
39.97 	0.045657 	4928 	0.045044
39.99 	0.045620 	4932 	0.045145
40.01 	0.042700 	4918 	0.041986
40.03 	0.044237 	4928 	0.043762
40.05 	0.043319 	4917 	0.042604
40.07 	0.046313 	4923 	0.045956
40.09 	0.042718 	4916 	0.042241
40.11 	0.043531 	4916 	0.043055
40.13 	0.044118 	4896 	0.043998
40.15 	0.049664 	4913 	0.049306
40.17 	0.040990 	4928 	0.040396
40.19 	0.044025 	4929 	0.043193
40.21 	0.039919 	4935 	0.039444
40.23 	0.040957 	4932 	0.040719
40.25 	0.043293 	4920 	0.043055
40.27 	0.045169 	4937 	0.044319
40.29 	0.037751 	4927 	0.037513
40.31 	0.041304 	4939 	0.040592
40.33 	0.044809 	4932 	0.044453
40.35 	0.044725 	4919 	0.044367
40.37 	0.041591 	4929 	0.041234
40.39 	0.041168 	4931 	0.040931
40.41 	0.042030 	4925 	0.041555
40.43 	0.043681 	4922 	0.043086
40.45 	0.040543 	4933 	0.039593
40.47 	0.042497 	4918 	0.041901
40.49 	0.040601 	4926 	0.040125
40.51 	0.036164 	4922 	0.036045
40.53 	0.042107 	4916 	0.041392
40.55 	0.045232 	4908 	0.044636
40.57 	0.047239 	4890 	0.047119
40.59 	0.047802 	4937 	0.047090
40.61 	0.041337 	4935 	0.040863
40.63 	0.045639 	4930 	0.045045
40.65 	0.037472 	4937 	0.036879
40.67 	0.045620 	4932 	0.044433
40.69 	0.038080 	4937 	0.037487
40.71 	0.039538 	4932 	0.039063
40.73 	0.041413 	4926 	0.040699
40.75 	0.047049 	4931 	0.046218
40.77 	0.047176 	4939 	0.046701
40.79 	0.037571 	4924 	0.037095
40.81 	0.042097 	4941 	0.041385
40.83 	0.039773 	4928 	0.039416
40.85 	0.044679 	4924 	0.043727
40.87 	0.035511 	4928 	0.035036
40.89 	0.036909 	4931 	0.036553
40.91 	0.043266 	4923 	0.042433
40.93 	0.042764 	4934 	0.042171
40.95 	0.039894 	4913 	0.039298
40.97 	0.038790 	4924 	0.038552
40.99 	0.045695 	4924 	0.044862
41.01 	0.045195 	4912 	0.044599
41.03 	0.045872 	4905 	0.045155
41.05 	0.041734 	4936 	0.041022
41.07 	0.045030 	4930 	0.044674
41.09 	0.039887 	4939 	0.039294
41.11 	0.040932 	4935 	0.040576
41.13 	0.042139 	4936 	0.041190
41.15 	0.044323 	4941 	0.043375
41.17 	0.048034 	4934 	0.047440
41.19 	0.043002 	4930 	0.042408
41.21 	0.047195 	4937 	0.046720
41.23 	0.045961 	4939 	0.045605
41.25 	0.041557 	4933 	0.040726
41.27 	0.043399 	4931 	0.042805
41.29 	0.046469 	4928 	0.045518
41.31 	0.038719 	4933 	0.038244
41.33 	0.044967 	4937 	0.043661
41.35 	0.041515 	4938 	0.040922
41.37 	0.040211 	4924 	0.039716
41.39 	0.041354 	4933 	0.040998
41.41 	0.040601 	4926 	0.040125
41.43 	0.040373 	4929 	0.040017
41.45 	0.044770 	4914 	0.044174
41.47 	0.045879 	4926 	0.045641
41.49 	0.044154 	4892 	0.043435
41.51 	0.043320 	4940 	0.043083
41.53 	0.037217 	4944 	0.037098
41.55 	0.041135 	4935 	0.040897
41.57 	0.042299 	4941 	0.041943
41.59 	0.042570 	4933 	0.042095
41.61 	0.038764 	4953 	0.038173
41.63 	0.042932 	4938 	0.042458
41.65 	0.041591 	4929 	0.041115
41.67 	0.043927 	4940 	0.043571
41.69 	0.047504 	4947 	0.047148
41.71 	0.040535 	4934 	0.040298
41.73 	0.041532 	4936 	0.040938
41.75 	0.039562 	4929 	0.039205
41.77 	0.034811 	4941 	0.034692
41.79 	0.039442 	4944 	0.038968
41.81 	0.040924 	4936 	0.040449
41.83 	0.043831 	4928 	0.043237
41.85 	0.040696 	4939 	0.040459
41.87 	0.042756 	4935 	0.041925
41.89 	0.038313 	4933 	0.038076
41.91 	0.041937 	4936 	0.041343
41.93 	0.040754 	4932 	0.040260
41.95 	0.037112 	4931 	0.036518
41.97 	0.038869 	4914 	0.038630
41.99 	0.036493 	4905 	0.036135
42.01 	0.038648 	4942 	0.038056
42.03 	0.036242 	4939 	0.035531
42.05 	0.039580 	4952 	0.039107
42.07 	0.038485 	4937 	0.038248
42.09 	0.037793 	4948 	0.037319
42.11 	0.043883 	4945 	0.043053
42.13 	0.036603 	4945 	0.035892
42.15 	0.038680 	4938 	0.038086
42.17 	0.033957 	4918 	0.033719
42.19 	0.036879 	4908 	0.036382
42.21 	0.047541 	4901 	0.047183
42.23 	0.040474 	4892 	0.039616
42.25 	0.040704 	4889 	0.040224
42.27 	0.036931 	4874 	0.036330
42.29 	0.039687 	4863 	0.038965
42.31 	0.036457 	4855 	0.036216
42.33 	0.039512 	4834 	0.038906
42.35 	0.036792 	4838 	0.036429
42.37 	0.033747 	4830 	0.033505
42.39 	0.034971 	4804 	0.034361
42.41 	0.040383 	4804 	0.040139
42.43 	0.043197 	4792 	0.042830
42.45 	0.033710 	4776 	0.033465
42.47 	0.040714 	4765 	0.040345
42.49 	0.041343 	4765 	0.040974
42.51 	0.037951 	4743 	0.037951
42.53 	0.041878 	4728 	0.041878
42.55 	0.035472 	4708 	0.035223
42.57 	0.035095 	4730 	0.034600
42.59 	0.033834 	4729 	0.033710
42.61 	0.040782 	4708 	0.040284
42.63 	0.040136 	4709 	0.040012
42.65 	0.040128 	4685 	0.039753
42.67 	0.036934 	4684 	0.036684
42.69 	0.037441 	4674 	0.036940
42.71 	0.037744 	4663 	0.037367
42.73 	0.040948 	4640 	0.040443
42.75 	0.043751 	4617 	0.043498
42.77 	0.041522 	4600 	0.040376
42.79 	0.040812 	4582 	0.040300
42.81 	0.032661 	4562 	0.032147
42.83 	0.042328 	4536 	0.041424
42.85 	0.039532 	4528 	0.039402
42.87 	0.038231 	4499 	0.037710
42.89 	0.038170 	4480 	0.037908
42.91 	0.035682 	4456 	0.035551
42.93 	0.040711 	4446 	0.040315
42.95 	0.043931 	4416 	0.043799
42.97 	0.032493 	4401 	0.032093
42.99 	0.041049 	4385 	0.040648
43.01 	0.039881 	4363 	0.039344
43.03 	0.042696 	4333 	0.042425
43.05 	0.035607 	4325 	0.034794
43.07 	0.040503 	4296 	0.039821
43.09 	0.042727 	4283 	0.042454
43.11 	0.040188 	4255 	0.039362
43.13 	0.037291 	4237 	0.037014
43.15 	0.042796 	4206 	0.042378
43.17 	0.036612 	4179 	0.036471
43.19 	0.043395 	4194 	0.043256
43.21 	0.037632 	4172 	0.037070
43.23 	0.032980 	4154 	0.032839
43.25 	0.041354 	4135 	0.041213
43.27 	0.039951 	4105 	0.039809
43.29 	0.041951 	4100 	0.041523
43.31 	0.037264 	4079 	0.036402
43.33 	0.041965 	4051 	0.041820
43.35 	0.036210 	4032 	0.036065
43.37 	0.038605 	4015 	0.038313
43.39 	0.039480 	4002 	0.039188
43.41 	0.037261 	3972 	0.036671
43.43 	0.036869 	3960 	0.036721
43.45 	0.037865 	3935 	0.037419
43.47 	0.040806 	3921 	0.040208
43.49 	0.034642 	3897 	0.034041
43.51 	0.037658 	3877 	0.037205
43.53 	0.040642 	3863 	0.040035
43.55 	0.042510 	2964 	0.042115
43.57 	0.043789 	2238 	0.042480
43.59 	0.037228 	1746 	0.036892
43.61 	0.032568 	1351 	0.032568
43.63 	0.022977 	1001 	0.022977
43.65 	0.048035 	687 	0.048035
43.67 	0.041833 	502 	0.041833
43.69 	0.043597 	367 	0.042001
43.71 	0.033473 	239 	0.033473
43.73 	0.050000 	120 	0.050000
43.75 	0.000000 	16 	0.000000