File: Example_Data/25SC_s1_0023.004.dat
#F C:\frames\spec\25SC_s1_0023.004
#C title =s:23 frm:4 25SC_s1
#C wavelength =0.15406

#S 1  fr_average C:\frames\spec\25SC_s1_0023.004 C:\win32app\speccom\mask.axs chi 0 180 0 360 0.02
#C 2 theta =0.000000 to 180 deg
#C   q   =0.000000 to 81.568 nm^-1
#C  chi  =0.000000 to 360 deg
#C collumns:
#C  1 position (2theta or chi in degrees)
#C  2 average intensity (sum of all counts in the region divided with number of pixels)
#C  3 Number of pixels in region)
#C  4 error (sum of sqrt(intensity) for all pixels divided by number)
#N 4
#L TTh  Int  N_pix  Err
32.99 	0.065574 	61 	0.065574
33.01 	0.060710 	873 	0.058587
33.03 	0.062545 	1391 	0.061703
33.05 	0.058623 	1757 	0.057956
33.07 	0.055610 	2050 	0.053562
33.09 	0.060929 	2347 	0.060180
33.11 	0.072121 	2579 	0.069585
33.13 	0.064089 	2793 	0.062586
33.15 	0.057352 	2999 	0.056766
33.17 	0.055920 	3201 	0.054273
33.19 	0.059844 	3342 	0.058968
33.21 	0.055588 	3436 	0.054366
33.23 	0.055351 	3523 	0.053522
33.25 	0.054264 	3612 	0.053777
33.27 	0.049587 	3630 	0.048941
33.29 	0.058936 	3648 	0.057947
33.31 	0.052459 	3660 	0.051499
33.33 	0.058058 	3686 	0.057104
33.35 	0.056849 	3694 	0.056056
33.37 	0.051158 	3714 	0.050527
33.39 	0.058193 	3729 	0.057381
33.41 	0.056684 	3740 	0.056058
33.43 	0.061154 	3761 	0.060531
33.45 	0.058574 	3773 	0.057332
33.47 	0.055556 	3798 	0.054784
33.49 	0.061696 	3809 	0.060004
33.51 	0.061337 	3815 	0.060108
33.53 	0.054153 	3841 	0.053390
33.55 	0.058288 	3843 	0.057526
33.57 	0.060872 	3877 	0.059512
33.59 	0.061082 	3880 	0.060479
33.61 	0.067025 	3909 	0.065651
33.63 	0.056647 	3919 	0.055451
33.65 	0.060799 	3931 	0.059284
33.67 	0.059939 	3954 	0.058606
33.69 	0.059196 	3953 	0.058158
33.71 	0.064151 	3975 	0.063119
33.73 	0.051449 	4004 	0.050863
33.75 	0.063016 	3999 	0.062430
33.77 	0.058882 	4025 	0.058009
33.79 	0.056917 	4041 	0.055733
33.81 	0.056216 	4038 	0.055636
33.83 	0.054321 	4050 	0.053742
33.85 	0.059771 	4099 	0.058009
33.87 	0.061299 	4111 	0.060563
33.89 	0.059452 	4121 	0.058883
33.91 	0.053989 	4149 	0.053565
33.93 	0.063599 	4151 	0.062329
33.95 	0.063382 	4181 	0.061678
33.97 	0.064200 	4190 	0.063199
33.99 	0.057857 	4200 	0.057299
34.01 	0.055542 	4213 	0.053990
34.03 	0.064562 	4244 	0.063458
34.05 	0.056914 	4252 	0.055376
34.07 	0.058341 	4268 	0.057518
34.09 	0.062063 	4286 	0.060537
34.11 	0.055091 	4302 	0.054410
34.13 	0.058728 	4308 	0.057368
34.15 	0.057492 	4331 	0.055734
34.17 	0.055632 	4350 	0.054959
34.19 	0.060293 	4362 	0.058526
34.21 	0.055136 	4371 	0.054332
34.23 	0.061006 	4393 	0.060206
34.25 	0.068120 	4404 	0.066657
34.27 	0.063320 	4422 	0.062790
34.29 	0.063134 	4435 	0.062210
34.31 	0.058771 	4458 	0.057851
34.33 	0.058153 	4471 	0.057628
34.35 	0.060437 	4484 	0.059501
34.37 	0.061011 	4491 	0.059054
34.39 	0.060195 	4502 	0.058894
34.41 	0.063190 	4526 	0.062284
34.43 	0.058603 	4539 	0.057055
34.45 	0.063506 	4535 	0.061827
34.47 	0.066638 	4592 	0.065341
34.49 	0.056124 	4597 	0.055083
34.51 	0.065132 	4606 	0.063733
34.53 	0.066767 	4643 	0.065758
34.55 	0.060306 	4643 	0.058918
34.57 	0.061803 	4660 	0.060797
34.59 	0.058824 	4675 	0.057946
34.61 	0.054929 	4697 	0.053931
34.63 	0.057537 	4710 	0.056293
34.65 	0.062699 	4721 	0.061954
34.67 	0.061801 	4741 	0.060442
34.69 	0.051956 	4754 	0.050847
34.71 	0.059169 	4766 	0.058063
34.73 	0.061834 	4787 	0.060610
34.75 	0.061148 	4808 	0.059666
34.77 	0.056663 	4818 	0.056419
34.79 	0.063640 	4824 	0.062527
34.81 	0.053251 	4845 	0.052888
34.83 	0.060263 	4862 	0.058938
34.85 	0.060382 	4869 	0.059299
34.87 	0.056491 	4868 	0.055890
34.89 	0.061245 	4882 	0.060026
34.91 	0.053871 	4882 	0.053511
34.93 	0.058175 	4899 	0.057458
34.95 	0.060327 	4890 	0.059129
34.97 	0.058548 	4902 	0.057711
34.99 	0.063508 	4897 	0.062671
35.01 	0.059517 	4923 	0.058664
35.03 	0.055230 	4943 	0.054637
35.05 	0.060643 	4947 	0.059103
35.07 	0.059312 	4940 	0.057652
35.09 	0.057541 	4953 	0.056713
35.11 	0.059834 	4947 	0.058986
35.13 	0.056273 	4958 	0.055190
35.15 	0.055499 	4937 	0.054669
35.17 	0.057016 	4946 	0.055950
35.19 	0.060097 	4942 	0.059267
35.21 	0.060263 	4945 	0.059671
35.23 	0.059656 	4945 	0.058472
35.25 	0.053813 	4943 	0.053458
35.27 	0.053759 	4948 	0.052930
35.29 	0.059656 	4945 	0.058235
35.31 	0.054328 	4933 	0.053972
35.33 	0.062917 	4943 	0.061495
35.35 	0.055848 	4942 	0.055018
35.37 	0.058514 	4939 	0.057565
35.39 	0.056016 	4945 	0.055305
35.41 	0.060698 	4926 	0.059747
35.43 	0.063045 	4933 	0.062807
35.45 	0.058943 	4937 	0.057638
35.47 	0.053944 	4931 	0.052281
35.49 	0.059063 	4910 	0.058109
35.51 	0.052375 	4926 	0.051781
35.53 	0.057789 	4949 	0.057553
35.55 	0.052781 	4945 	0.051951
35.57 	0.062639 	4933 	0.061452
35.59 	0.062083 	4945 	0.060780
35.61 	0.056657 	4942 	0.056539
35.63 	0.060287 	4943 	0.059320
35.65 	0.053792 	4945 	0.052844
35.67 	0.059085 	4942 	0.058493
35.69 	0.060655 	4946 	0.059471
35.71 	0.060563 	4937 	0.059377
35.73 	0.055916 	4936 	0.055204
35.75 	0.060231 	4931 	0.058786
35.77 	0.065037 	4951 	0.063835
35.79 	0.057178 	4932 	0.056821
35.81 	0.062437 	4933 	0.061368
35.83 	0.061059 	4946 	0.060230
35.85 	0.053495 	4935 	0.052427
35.87 	0.057282 	4923 	0.057163
35.89 	0.056749 	4934 	0.056037
35.91 	0.056830 	4927 	0.055621
35.93 	0.051959 	4927 	0.051126
35.95 	0.056742 	4917 	0.055312
35.97 	0.053746 	4912 	0.052792
35.99 	0.054869 	4939 	0.054276
36.01 	0.059026 	4930 	0.058551
36.03 	0.057253 	4943 	0.056423
36.05 	0.060061 	4945 	0.058758
36.07 	0.056489 	4939 	0.055303
36.09 	0.059717 	4940 	0.059124
36.11 	0.055184 	4929 	0.054451
36.13 	0.058074 	4942 	0.057125
36.15 	0.055274 	4939 	0.054207
36.17 	0.053604 	4925 	0.052653
36.19 	0.060526 	4940 	0.059815
36.21 	0.057415 	4929 	0.056583
36.23 	0.059574 	4935 	0.058269
36.25 	0.063955 	4941 	0.062888
36.27 	0.057056 	4925 	0.056223
36.29 	0.057798 	4931 	0.056728
36.31 	0.061485 	4928 	0.060772
36.33 	0.060409 	4933 	0.059460
36.35 	0.057821 	4929 	0.056514
36.37 	0.059517 	4923 	0.058803
36.39 	0.060354 	4921 	0.059263
36.41 	0.055964 	4896 	0.054887
36.43 	0.061891 	4928 	0.060703
36.45 	0.053753 	4930 	0.052683
36.47 	0.059968 	4936 	0.058899
36.49 	0.061109 	4942 	0.060516
36.51 	0.056558 	4933 	0.054658
36.53 	0.053409 	4943 	0.052461
36.55 	0.061295 	4927 	0.060582
36.57 	0.054520 	4934 	0.053689
36.59 	0.054464 	4939 	0.053278
36.61 	0.057595 	4931 	0.056407
36.63 	0.054958 	4931 	0.054127
36.65 	0.052717 	4932 	0.052361
36.67 	0.053753 	4930 	0.053020
36.69 	0.053966 	4929 	0.053134
36.71 	0.053241 	4921 	0.052527
36.73 	0.052792 	4925 	0.052435
36.75 	0.055218 	4944 	0.054389
36.77 	0.059972 	4919 	0.058662
36.79 	0.054867 	4921 	0.054153
36.81 	0.064076 	4916 	0.063362
36.83 	0.056358 	4915 	0.056001
36.85 	0.054920 	4898 	0.053485
36.87 	0.057443 	4944 	0.056851
36.89 	0.061432 	4916 	0.060102
36.91 	0.049787 	4941 	0.048958
36.93 	0.061055 	4930 	0.060223
36.95 	0.058788 	4933 	0.057363
36.97 	0.058370 	4934 	0.057421
36.99 	0.053293 	4935 	0.052561
37.01 	0.056152 	4933 	0.055321
37.03 	0.050975 	4924 	0.049904
37.05 	0.055815 	4927 	0.054844
37.07 	0.052685 	4935 	0.052329
37.09 	0.052760 	4928 	0.051928
37.11 	0.053698 	4935 	0.053105
37.13 	0.056661 	4924 	0.056066
37.15 	0.059890 	4909 	0.058935
37.17 	0.051885 	4934 	0.051291
37.19 	0.057259 	4925 	0.056526
37.21 	0.055725 	4917 	0.054991
37.23 	0.057950 	4918 	0.056978
37.25 	0.053757 	4911 	0.052564
37.27 	0.053739 	4894 	0.052423
37.29 	0.060446 	4930 	0.059496
37.31 	0.051266 	4935 	0.050673
37.33 	0.052365 	4927 	0.051413
37.35 	0.053058 	4938 	0.052228
37.37 	0.052770 	4927 	0.051582
37.39 	0.052525 	4931 	0.051931
37.41 	0.052930 	4931 	0.051742
37.43 	0.054339 	4932 	0.053508
37.45 	0.051178 	4924 	0.050345
37.47 	0.057010 	4929 	0.055564
37.49 	0.047938 	4923 	0.047224
37.51 	0.053923 	4933 	0.053329
37.53 	0.058142 	4919 	0.056713
37.55 	0.047262 	4930 	0.046430
37.57 	0.050152 	4925 	0.049439
37.59 	0.055544 	4915 	0.054710
37.61 	0.051605 	4922 	0.051248
37.63 	0.053669 	4919 	0.053074
37.65 	0.050020 	4918 	0.049544
37.67 	0.059951 	4904 	0.058279
37.69 	0.055329 	4898 	0.054013
37.71 	0.053966 	4929 	0.052897
37.73 	0.050314 	4929 	0.049720
37.75 	0.051822 	4940 	0.051110
37.77 	0.055285 	4920 	0.054451
37.79 	0.055375 	4930 	0.054662
37.81 	0.049666 	4933 	0.048953
37.83 	0.060366 	4920 	0.058818
37.85 	0.056481 	4922 	0.055410
37.87 	0.052642 	4939 	0.051812
37.89 	0.049949 	4925 	0.049236
37.91 	0.051927 	4930 	0.050976
37.93 	0.059768 	4919 	0.058796
37.95 	0.049177 	4921 	0.048463
37.97 	0.055589 	4929 	0.054282
37.99 	0.056393 	4912 	0.055319
38.01 	0.056006 	4928 	0.055056
38.03 	0.058260 	4909 	0.056948
38.05 	0.056447 	4925 	0.055495
38.07 	0.058668 	4909 	0.057435
38.09 	0.051456 	4878 	0.050615
38.11 	0.059372 	4935 	0.058304
38.13 	0.057727 	4937 	0.057015
38.15 	0.055917 	4918 	0.055679
38.17 	0.053955 	4930 	0.053005
38.19 	0.059635 	4930 	0.058447
38.21 	0.057892 	4923 	0.057297
38.23 	0.057513 	4938 	0.056920
38.25 	0.060809 	4917 	0.059003
38.27 	0.062677 	4930 	0.060658
38.29 	0.058286 	4924 	0.057096
38.31 	0.061295 	4927 	0.060205
38.33 	0.063566 	4924 	0.062496
38.35 	0.059862 	4928 	0.059010
38.37 	0.064175 	4924 	0.063224
38.39 	0.065798 	4909 	0.064585
38.41 	0.061142 	4923 	0.059456
38.43 	0.060618 	4916 	0.059188
38.45 	0.069134 	4918 	0.067466
38.47 	0.068677 	4907 	0.067364
38.49 	0.070945 	4877 	0.069344
38.51 	0.064882 	4932 	0.063576
38.53 	0.065733 	4929 	0.064307
38.55 	0.067666 	4936 	0.065767
38.57 	0.058095 	4923 	0.056885
38.59 	0.053006 	4924 	0.052530
38.61 	0.055308 	4936 	0.054359
38.63 	0.055443 	4924 	0.054491
38.65 	0.057950 	4918 	0.057593
38.67 	0.057322 	4937 	0.056472
38.69 	0.059732 	4922 	0.058899
38.71 	0.057271 	4924 	0.055843
38.73 	0.055714 	4918 	0.054642
38.75 	0.054394 	4927 	0.053562
38.77 	0.052204 	4923 	0.051490
38.79 	0.055736 	4934 	0.054786
38.81 	0.054560 	4912 	0.054064
38.83 	0.049400 	4919 	0.048567
38.85 	0.055985 	4912 	0.055389
38.87 	0.054368 	4911 	0.053056
38.89 	0.057790 	4897 	0.056953
38.91 	0.051601 	4903 	0.050884
38.93 	0.056501 	4938 	0.056382
38.95 	0.052460 	4918 	0.051746
38.97 	0.053742 	4931 	0.052910
38.99 	0.054487 	4937 	0.053419
39.01 	0.053884 	4918 	0.052792
39.03 	0.051885 	4934 	0.050678
39.05 	0.054416 	4925 	0.053703
39.07 	0.057271 	4924 	0.056319
39.09 	0.055860 	4923 	0.055384
39.11 	0.052728 	4931 	0.051777
39.13 	0.050782 	4923 	0.050306
39.15 	0.052899 	4915 	0.052303
39.17 	0.057120 	4937 	0.055815
39.19 	0.053285 	4917 	0.052570
39.21 	0.047454 	4910 	0.047096
39.23 	0.052792 	4925 	0.051959
39.25 	0.059325 	4922 	0.058116
39.27 	0.054990 	4910 	0.053896
39.29 	0.047133 	4901 	0.046297
39.31 	0.048935 	4884 	0.048096
39.33 	0.049077 	4931 	0.048364
39.35 	0.050253 	4935 	0.049304
39.37 	0.056604 	4929 	0.055752
39.39 	0.047880 	4929 	0.047286
39.41 	0.054147 	4931 	0.053553
39.43 	0.054328 	4933 	0.053734
39.45 	0.049746 	4925 	0.049270
39.47 	0.052813 	4923 	0.051742
39.49 	0.054733 	4933 	0.054021
39.51 	0.047522 	4924 	0.047046
39.53 	0.056470 	4923 	0.055637
39.55 	0.053060 	4919 	0.052345
39.57 	0.049463 	4933 	0.049107
39.59 	0.050081 	4912 	0.049346
39.61 	0.052813 	4923 	0.051861
39.63 	0.055872 	4922 	0.055158
39.65 	0.056841 	4926 	0.055652
39.67 	0.054346 	4913 	0.053511
39.69 	0.053702 	4916 	0.052868
39.71 	0.050868 	4895 	0.049911
39.73 	0.057457 	4908 	0.056860
39.75 	0.058847 	4928 	0.057045
39.77 	0.061196 	4935 	0.060721
39.79 	0.053999 	4926 	0.053405
39.81 	0.048711 	4927 	0.048117
39.83 	0.056344 	4934 	0.055394
39.85 	0.056221 	4927 	0.054279
39.87 	0.061929 	4925 	0.061096
39.89 	0.053912 	4934 	0.053081
39.91 	0.051402 	4922 	0.050688
39.93 	0.056512 	4937 	0.055088
39.95 	0.051068 	4915 	0.050591
39.97 	0.051745 	4928 	0.050556
39.99 	0.056569 	4932 	0.055738
40.01 	0.058357 	4918 	0.057523
40.03 	0.055398 	4928 	0.054566
40.05 	0.058166 	4917 	0.057212
40.07 	0.056267 	4923 	0.055910
40.09 	0.053499 	4916 	0.052307
40.11 	0.055126 	4916 	0.054153
40.13 	0.057190 	4896 	0.056352
40.15 	0.056585 	4913 	0.055988
40.17 	0.056209 	4928 	0.055021
40.19 	0.050923 	4929 	0.050448
40.21 	0.054103 	4935 	0.053272
40.23 	0.056975 	4932 	0.055886
40.25 	0.060366 	4920 	0.059532
40.27 	0.059145 	4937 	0.058433
40.29 	0.051147 	4927 	0.050433
40.31 	0.050618 	4939 	0.050143
40.33 	0.049878 	4932 	0.049284
40.35 	0.055702 	4919 	0.054869
40.37 	0.054372 	4929 	0.053778
40.39 	0.055567 	4931 	0.054616
40.41 	0.045279 	4925 	0.044803
40.43 	0.053840 	4922 	0.052769
40.45 	0.053112 	4933 	0.051667
40.47 	0.052867 	4918 	0.051537
40.49 	0.053187 	4926 	0.052474
40.51 	0.053230 	4922 	0.052873
40.53 	0.054719 	4916 	0.053766
40.55 	0.050733 	4908 	0.050495
40.57 	0.047853 	4890 	0.047374
40.59 	0.046182 	4937 	0.045114
40.61 	0.047416 	4935 	0.047060
40.63 	0.051116 	4930 	0.050403
40.65 	0.044967 	4937 	0.044611
40.67 	0.054745 	4932 	0.054032
40.69 	0.050233 	4937 	0.049165
40.71 	0.055150 	4932 	0.053962
40.73 	0.053390 	4926 	0.052915
40.75 	0.048063 	4931 	0.047469
40.77 	0.051630 	4939 	0.050918
40.79 	0.051178 	4924 	0.050702
40.81 	0.052823 	4941 	0.051401
40.83 	0.049107 	4928 	0.048137
40.85 	0.055443 	4924 	0.054967
40.87 	0.047484 	4928 	0.047008
40.89 	0.050700 	4931 	0.049749
40.91 	0.053626 	4923 	0.053031
40.93 	0.050669 	4934 	0.049838
40.95 	0.054549 	4913 	0.053099
40.97 	0.047522 	4924 	0.047046
40.99 	0.055443 	4924 	0.054491
41.01 	0.052524 	4912 	0.051928
41.03 	0.046075 	4905 	0.045359
41.05 	0.047204 	4936 	0.046730
41.07 	0.051927 	4930 	0.050739
41.09 	0.050213 	4939 	0.049007
41.11 	0.049443 	4935 	0.049087
41.13 	0.048420 	4936 	0.047945
41.15 	0.049383 	4941 	0.048671
41.17 	0.049250 	4934 	0.048300
41.19 	0.047059 	4930 	0.046584
41.21 	0.052056 	4937 	0.051463
41.23 	0.051832 	4939 	0.051121
41.25 	0.054125 	4933 	0.053175
41.27 	0.048672 	4931 	0.047959
41.29 	0.046875 	4928 	0.046281
41.31 	0.049057 	4933 	0.048582
41.33 	0.047195 	4937 	0.046245
41.35 	0.047793 	4938 	0.047674
41.37 	0.048741 	4924 	0.047789
41.39 	0.052098 	4933 	0.051386
41.41 	0.050345 	4926 	0.049612
41.43 	0.056807 	4929 	0.056331
41.45 	0.049247 	4914 	0.048770
41.47 	0.048721 	4926 	0.047889
41.49 	0.051308 	4892 	0.050111
41.51 	0.054251 	4940 	0.053777
41.53 	0.049150 	4944 	0.048795
41.55 	0.050253 	4935 	0.049778
41.57 	0.055050 	4941 	0.054101
41.59 	0.046219 	4933 	0.045744
41.61 	0.049465 	4953 	0.048755
41.63 	0.047995 	4938 	0.047283
41.65 	0.045040 	4929 	0.044445
41.67 	0.043320 	4940 	0.042490
41.69 	0.048312 	4947 	0.047838
41.71 	0.044183 	4934 	0.043115
41.73 	0.052269 	4936 	0.051320
41.75 	0.046865 	4929 	0.046509
41.77 	0.046549 	4941 	0.045937
41.79 	0.047532 	4944 	0.046584
41.81 	0.049635 	4936 	0.048805
41.83 	0.051339 	4928 	0.050626
41.85 	0.047580 	4939 	0.046869
41.87 	0.043566 	4935 	0.042973
41.89 	0.048449 	4933 	0.047618
41.91 	0.044571 	4936 	0.043720
41.93 	0.046837 	4932 	0.046362
41.95 	0.049280 	4931 	0.048092
41.97 	0.052503 	4914 	0.052145
41.99 	0.042813 	4905 	0.041500
42.01 	0.051801 	4942 	0.051208
42.03 	0.046771 	4939 	0.046178
42.05 	0.049071 	4952 	0.048243
42.07 	0.046182 	4937 	0.045470
42.09 	0.050930 	4948 	0.049864
42.11 	0.048736 	4945 	0.047670
42.13 	0.045703 	4945 	0.044992
42.15 	0.049413 	4938 	0.049057
42.17 	0.045547 	4918 	0.044713
42.19 	0.045844 	4908 	0.045008
42.21 	0.044889 	4901 	0.044530
42.23 	0.052330 	4892 	0.051732
42.25 	0.049908 	4889 	0.048830
42.27 	0.052729 	4874 	0.052128
42.29 	0.052437 	4863 	0.051333
42.31 	0.048816 	4855 	0.047488
42.33 	0.051303 	4834 	0.050697
42.35 	0.052294 	4838 	0.051205
42.37 	0.055901 	4830 	0.055052
42.39 	0.046003 	4804 	0.045150
42.41 	0.046211 	4804 	0.046090
42.43 	0.048205 	4792 	0.047227
42.45 	0.048157 	4776 	0.047176
42.47 	0.043442 	4765 	0.043196
42.49 	0.045960 	4765 	0.045714
42.51 	0.047017 	4743 	0.046523
42.53 	0.045685 	4728 	0.045314
42.55 	0.047579 	4708 	0.046708
42.57 	0.046512 	4730 	0.045521
42.59 	0.052019 	4729 	0.051008
42.61 	0.051402 	4708 	0.050655
42.63 	0.047356 	4709 	0.046983
42.65 	0.044824 	4685 	0.044324
42.67 	0.046328 	4684 	0.045432
42.69 	0.047711 	4674 	0.046291
42.71 	0.045679 	4663 	0.044925
42.73 	0.046983 	4640 	0.046352
42.75 	0.039853 	4617 	0.039472
42.77 	0.043478 	4600 	0.042969
42.79 	0.047141 	4582 	0.046757
42.81 	0.046252 	4562 	0.045353
42.83 	0.051367 	4536 	0.050592
42.85 	0.047482 	4528 	0.046965
42.87 	0.049567 	4499 	0.048785
42.89 	0.045089 	4480 	0.044436
42.91 	0.047576 	4456 	0.046919
42.93 	0.046784 	4446 	0.045993
42.95 	0.045063 	4416 	0.044002
42.97 	0.053624 	4401 	0.052105
42.99 	0.050171 	4385 	0.049637
43.01 	0.047215 	4363 	0.046678
43.03 	0.042696 	4333 	0.042425
43.05 	0.045780 	4325 	0.045509
43.07 	0.047952 	4296 	0.046997
43.09 	0.043661 	4283 	0.043251
43.11 	0.046769 	4255 	0.045942
43.13 	0.049563 	4237 	0.048457
43.15 	0.037328 	4206 	0.036771
43.17 	0.048098 	4179 	0.047397
43.19 	0.052456 	4194 	0.051339
43.21 	0.051055 	4172 	0.049931
43.23 	0.045017 	4154 	0.044312
43.25 	0.043773 	4135 	0.043631
43.27 	0.050670 	4105 	0.050242
43.29 	0.047805 	4100 	0.047091
43.31 	0.047806 	4079 	0.047231
43.33 	0.051839 	4051 	0.050827
43.35 	0.049851 	4032 	0.049415
43.37 	0.051308 	4015 	0.049995
43.39 	0.052474 	4002 	0.051596
43.41 	0.049345 	3972 	0.048756
43.43 	0.049495 	3960 	0.048903
43.45 	0.043964 	3935 	0.043518
43.47 	0.053813 	3921 	0.053365
43.49 	0.043880 	3897 	0.042953
43.51 	0.047201 	3877 	0.046748
43.53 	0.048667 	3863 	0.047909
43.55 	0.043522 	2964 	0.043325
43.57 	0.054066 	2238 	0.053543
43.59 	0.044101 	1746 	0.043765
43.61 	0.042191 	1351 	0.042191
43.63 	0.040959 	1001 	0.040959
43.65 	0.043668 	687 	0.042815
43.67 	0.039841 	502 	0.039841
43.69 	0.049046 	367 	0.047450
43.71 	0.029289 	239 	0.029289
43.73 	0.058333 	120 	0.053452
43.75 	0.062500 	16 	0.062500