File: Example_Data/25SC_s1_0032.002.dat
#F C:\frames\spec\25SC_s1_0032.002
#C title =s:32 frm:2 25SC_s1
#C wavelength =0.15406

#S 1  fr_average C:\frames\spec\25SC_s1_0032.002 C:\win32app\speccom\mask.axs chi 0 180 0 360 0.02
#C 2 theta =0.000000 to 180 deg
#C   q   =0.000000 to 81.568 nm^-1
#C  chi  =0.000000 to 360 deg
#C collumns:
#C  1 position (2theta or chi in degrees)
#C  2 average intensity (sum of all counts in the region divided with number of pixels)
#C  3 Number of pixels in region)
#C  4 error (sum of sqrt(intensity) for all pixels divided by number)
#N 4
#L TTh  Int  N_pix  Err
32.99 	0.098361 	61 	0.098361
33.01 	0.054983 	873 	0.054312
33.03 	0.048167 	1391 	0.047746
33.05 	0.061468 	1757 	0.060468
33.07 	0.055122 	2050 	0.054265
33.09 	0.066042 	2347 	0.064794
33.11 	0.061652 	2579 	0.060062
33.13 	0.065163 	2793 	0.064534
33.15 	0.055018 	2999 	0.054432
33.17 	0.054983 	3201 	0.054800
33.19 	0.063136 	3342 	0.062610
33.21 	0.065483 	3436 	0.063608
33.23 	0.057905 	3523 	0.056908
33.25 	0.056202 	3612 	0.055066
33.27 	0.066667 	3630 	0.065214
33.29 	0.064419 	3648 	0.063134
33.31 	0.053552 	3660 	0.052912
33.33 	0.058058 	3686 	0.056945
33.35 	0.057120 	3694 	0.056010
33.37 	0.052773 	3714 	0.051827
33.39 	0.050147 	3729 	0.049519
33.41 	0.054545 	3740 	0.053606
33.43 	0.059559 	3761 	0.058313
33.45 	0.056984 	3773 	0.056518
33.47 	0.059505 	3798 	0.058271
33.49 	0.058283 	3809 	0.058129
33.51 	0.064220 	3815 	0.063299
33.53 	0.060661 	3841 	0.059899
33.55 	0.055686 	3843 	0.055381
33.57 	0.063451 	3877 	0.061336
33.59 	0.051289 	3880 	0.050685
33.61 	0.060629 	3909 	0.058831
33.63 	0.058688 	3919 	0.056446
33.65 	0.063343 	3931 	0.062151
33.67 	0.056146 	3954 	0.054960
33.69 	0.054895 	3953 	0.054302
33.71 	0.061132 	3975 	0.059806
33.73 	0.063936 	4004 	0.062449
33.75 	0.056014 	3999 	0.055135
33.77 	0.057888 	4025 	0.056869
33.79 	0.063103 	4041 	0.061944
33.81 	0.062655 	4038 	0.061470
33.83 	0.063457 	4050 	0.062300
33.85 	0.062210 	4099 	0.061496
33.87 	0.056677 	4111 	0.056250
33.89 	0.054356 	4121 	0.053787
33.91 	0.058327 	4149 	0.057175
33.93 	0.059263 	4151 	0.058134
33.95 	0.056685 	4181 	0.055564
33.97 	0.058234 	4190 	0.056976
33.99 	0.057143 	4200 	0.056306
34.01 	0.053881 	4213 	0.052769
34.03 	0.058435 	4244 	0.057055
34.05 	0.051270 	4252 	0.050719
34.07 	0.062793 	4268 	0.061398
34.09 	0.052963 	4286 	0.052006
34.11 	0.060902 	4302 	0.060357
34.13 	0.055942 	4308 	0.055127
34.15 	0.062341 	4331 	0.061665
34.17 	0.057241 	4350 	0.056703
34.19 	0.051582 	4362 	0.050910
34.21 	0.060627 	4371 	0.059823
34.23 	0.063282 	4393 	0.061682
34.25 	0.057221 	4404 	0.055891
34.27 	0.059249 	4422 	0.057903
34.29 	0.057272 	4435 	0.056347
34.31 	0.058995 	4458 	0.058338
34.33 	0.055021 	4471 	0.054235
34.35 	0.057315 	4484 	0.056270
34.37 	0.059452 	4491 	0.059061
34.39 	0.055087 	4502 	0.054046
34.41 	0.067388 	4526 	0.066094
34.43 	0.058603 	4539 	0.057571
34.45 	0.064168 	4535 	0.063393
34.47 	0.062718 	4592 	0.061315
34.49 	0.059387 	4597 	0.058495
34.51 	0.062310 	4606 	0.060911
34.53 	0.059875 	4643 	0.059244
34.55 	0.062029 	4643 	0.061650
34.57 	0.062232 	4660 	0.061100
34.59 	0.059893 	4675 	0.059141
34.61 	0.055993 	4697 	0.054995
34.63 	0.053928 	4710 	0.053306
34.65 	0.061428 	4721 	0.060311
34.67 	0.059692 	4741 	0.058827
34.69 	0.052798 	4754 	0.051545
34.71 	0.056022 	4766 	0.055161
34.73 	0.059536 	4787 	0.059047
34.75 	0.054700 	4808 	0.053117
34.77 	0.059361 	4818 	0.058145
34.79 	0.060531 	4824 	0.059681
34.81 	0.054902 	4845 	0.053431
34.83 	0.058824 	4862 	0.058101
34.85 	0.058944 	4869 	0.058102
34.87 	0.059367 	4868 	0.058405
34.89 	0.058583 	4882 	0.057263
34.91 	0.055920 	4882 	0.054840
34.93 	0.057359 	4899 	0.056761
34.95 	0.062986 	4890 	0.061908
34.97 	0.058140 	4902 	0.057662
34.99 	0.056769 	4897 	0.054975
35.01 	0.055454 	4923 	0.054859
35.03 	0.062715 	4943 	0.062004
35.05 	0.054579 	4947 	0.053513
35.07 	0.053239 	4940 	0.052290
35.09 	0.064405 	4953 	0.063459
35.11 	0.059632 	4947 	0.058566
35.13 	0.061113 	4958 	0.059440
35.15 	0.060766 	4937 	0.060054
35.17 	0.058835 	4946 	0.057276
35.19 	0.054431 	4942 	0.053957
35.21 	0.057230 	4945 	0.056282
35.23 	0.052781 	4945 	0.051951
35.25 	0.057253 	4943 	0.055712
35.27 	0.061237 	4948 	0.059935
35.29 	0.055207 	4945 	0.054615
35.31 	0.054936 	4933 	0.053867
35.33 	0.052802 	4943 	0.051716
35.35 	0.053015 	4942 	0.052185
35.37 	0.061146 	4939 	0.060316
35.39 	0.058443 	4945 	0.058087
35.41 	0.058465 	4926 	0.056800
35.43 	0.052909 	4933 	0.052434
35.45 	0.058740 	4937 	0.058147
35.47 	0.056378 	4931 	0.055784
35.49 	0.056212 	4910 	0.055357
35.51 	0.058871 	4926 	0.058019
35.53 	0.053546 	4949 	0.052836
35.55 	0.053185 	4945 	0.052711
35.57 	0.058585 	4933 	0.057635
35.59 	0.057432 	4945 	0.056366
35.61 	0.054431 	4942 	0.053602
35.63 	0.056443 	4943 	0.055851
35.65 	0.053387 	4945 	0.052440
35.67 	0.057669 	4942 	0.057313
35.69 	0.053781 	4946 	0.053189
35.71 	0.056309 	4937 	0.055479
35.73 	0.053282 	4936 	0.052333
35.75 	0.053133 	4931 	0.052064
35.77 	0.058978 	4951 	0.058012
35.79 	0.059611 	4932 	0.058779
35.81 	0.053720 	4933 	0.052770
35.83 	0.061059 	4946 	0.060230
35.85 	0.060182 	4935 	0.058976
35.87 	0.056063 	4923 	0.055587
35.89 	0.061816 	4934 	0.060728
35.91 	0.053379 	4927 	0.052428
35.93 	0.059874 	4927 	0.058566
35.95 	0.067724 	4917 	0.066175
35.97 	0.058632 	4912 	0.057678
35.99 	0.055882 	4939 	0.055052
36.01 	0.056592 	4930 	0.055642
36.03 	0.056241 	4943 	0.056004
36.05 	0.055410 	4945 	0.054343
36.07 	0.062968 	4939 	0.061426
36.09 	0.057287 	4940 	0.056339
36.11 	0.063299 	4929 	0.061992
36.13 	0.054027 	4942 	0.053316
36.15 	0.054667 	4939 	0.053125
36.17 	0.052792 	4925 	0.052435
36.19 	0.051012 	4940 	0.049945
36.21 	0.048083 	4929 	0.047607
36.23 	0.056940 	4935 	0.055516
36.25 	0.055657 	4941 	0.054708
36.27 	0.057665 	4925 	0.057189
36.29 	0.059420 	4931 	0.058232
36.31 	0.053369 	4928 	0.053250
36.33 	0.058990 	4933 	0.057665
36.35 	0.059038 	4929 	0.058444
36.37 	0.056267 	4923 	0.054839
36.39 	0.056899 	4921 	0.056423
36.41 	0.055351 	4896 	0.053557
36.43 	0.053571 	4928 	0.052502
36.45 	0.052130 	4930 	0.051417
36.47 	0.061791 	4936 	0.060960
36.49 	0.057871 	4942 	0.056923
36.51 	0.054125 	4933 	0.053175
36.53 	0.063120 	4943 	0.061697
36.55 	0.052162 	4927 	0.051805
36.57 	0.051885 	4934 	0.050559
36.59 	0.055072 	4939 	0.053767
36.61 	0.054147 	4931 	0.053553
36.63 	0.051105 	4931 	0.050749
36.65 	0.056367 	4932 	0.055891
36.67 	0.064097 	4930 	0.063266
36.69 	0.053763 	4929 	0.053169
36.71 	0.050599 	4921 	0.050004
36.73 	0.058071 	4925 	0.057238
36.75 	0.052994 	4944 	0.052401
36.77 	0.056719 	4919 	0.054933
36.79 	0.062386 	4921 	0.061533
36.81 	0.048617 	4916 	0.048140
36.83 	0.055341 	4915 	0.054368
36.85 	0.052062 	4898 	0.050507
36.87 	0.055825 	4944 	0.054759
36.89 	0.050448 	4916 	0.049375
36.91 	0.060109 	4941 	0.059398
36.93 	0.055781 	4930 	0.054117
36.95 	0.054936 	4933 	0.053630
36.97 	0.060195 	4934 	0.059482
36.99 	0.052077 	4935 	0.051602
37.01 	0.051490 	4933 	0.050659
37.03 	0.048132 	4924 	0.047537
37.05 	0.051147 	4927 	0.050433
37.07 	0.057953 	4935 	0.056766
37.09 	0.052760 	4928 	0.052284
37.11 	0.057345 	4935 	0.056139
37.13 	0.051584 	4924 	0.050870
37.15 	0.053371 	4909 	0.052775
37.17 	0.051682 	4934 	0.050614
37.19 	0.049543 	4925 	0.048829
37.21 	0.056742 	4917 	0.055908
37.23 	0.054290 	4918 	0.053199
37.25 	0.055182 	4911 	0.054467
37.27 	0.053331 	4894 	0.052493
37.29 	0.051116 	4930 	0.050403
37.31 	0.051064 	4935 	0.050945
37.33 	0.060077 	4927 	0.058631
37.35 	0.055488 	4938 	0.054658
37.37 	0.060077 	4927 	0.059364
37.39 	0.060637 	4931 	0.058974
37.41 	0.052930 	4931 	0.051861
37.43 	0.051906 	4932 	0.051075
37.45 	0.044476 	4924 	0.043881
37.47 	0.051329 	4929 	0.050616
37.49 	0.058298 	4923 	0.057346
37.51 	0.055342 	4933 	0.054610
37.53 	0.050620 	4919 	0.049767
37.55 	0.053144 	4930 	0.052075
37.57 	0.056041 	4925 	0.054494
37.59 	0.053103 	4915 	0.052268
37.61 	0.047542 	4922 	0.046709
37.63 	0.055092 	4919 	0.054001
37.65 	0.045954 	4918 	0.045239
37.67 	0.054649 	4904 	0.053793
37.69 	0.054716 	4898 	0.053640
37.71 	0.052546 	4929 	0.051001
37.73 	0.053561 	4929 	0.052491
37.75 	0.047773 	4940 	0.047299
37.77 	0.051626 	4920 	0.051269
37.79 	0.054767 	4930 	0.053579
37.81 	0.050882 	4933 	0.050644
37.83 	0.051220 	4920 	0.050386
37.85 	0.051808 	4922 	0.050737
37.87 	0.055477 	4939 	0.054884
37.89 	0.055025 	4925 	0.053360
37.91 	0.051318 	4930 	0.050487
37.93 	0.057125 	4919 	0.056292
37.95 	0.055477 	4921 	0.054881
37.97 	0.049097 	4929 	0.048503
37.99 	0.052932 	4912 	0.051839
38.01 	0.052963 	4928 	0.052368
38.03 	0.050519 	4909 	0.049565
38.05 	0.054213 	4925 	0.053262
38.07 	0.055612 	4909 	0.054777
38.09 	0.054736 	4878 	0.054135
38.11 	0.054306 	4935 	0.053712
38.13 	0.050435 	4937 	0.049605
38.15 	0.048800 	4918 	0.047967
38.17 	0.058012 	4930 	0.056586
38.19 	0.059838 	4930 	0.059006
38.21 	0.054641 	4923 	0.053690
38.23 	0.056298 	4938 	0.055092
38.25 	0.056539 	4917 	0.055347
38.27 	0.062069 	4930 	0.060881
38.29 	0.060114 	4924 	0.058805
38.31 	0.056830 	4927 	0.055997
38.33 	0.055443 	4924 	0.054471
38.35 	0.058036 	4928 	0.057323
38.37 	0.059098 	4924 	0.058266
38.39 	0.056631 	4909 	0.055437
38.41 	0.060329 	4923 	0.059239
38.43 	0.060822 	4916 	0.060464
38.45 	0.061814 	4918 	0.060623
38.47 	0.068270 	4907 	0.066599
38.49 	0.057002 	4877 	0.055801
38.51 	0.071979 	4932 	0.070059
38.53 	0.054981 	4929 	0.054149
38.55 	0.066045 	4936 	0.064859
38.57 	0.066829 	4923 	0.065401
38.59 	0.059504 	4924 	0.058315
38.61 	0.063817 	4936 	0.063105
38.63 	0.064582 	4924 	0.063253
38.65 	0.052664 	4918 	0.051830
38.67 	0.056512 	4937 	0.056156
38.69 	0.057091 	4922 	0.055900
38.71 	0.053006 	4924 	0.052530
38.73 	0.052054 	4918 	0.051577
38.75 	0.053988 	4927 	0.053156
38.77 	0.054845 	4923 	0.053893
38.79 	0.052088 	4934 	0.051375
38.81 	0.052524 	4912 	0.052286
38.83 	0.054279 	4919 	0.053565
38.85 	0.051507 	4912 	0.050791
38.87 	0.053146 	4911 	0.052072
38.89 	0.052481 	4897 	0.051285
38.91 	0.051193 	4903 	0.050357
38.93 	0.048603 	4938 	0.047397
38.95 	0.051647 	4918 	0.050794
38.97 	0.049280 	4931 	0.048686
38.99 	0.050435 	4937 	0.049724
39.01 	0.048394 	4918 	0.048036
39.03 	0.046615 	4934 	0.046259
39.05 	0.057259 	4925 	0.056664
39.07 	0.047725 	4924 	0.046893
39.09 	0.046110 	4923 	0.045396
39.11 	0.046035 	4931 	0.045323
39.13 	0.050985 	4923 	0.050509
39.15 	0.046796 	4915 	0.045842
39.17 	0.047397 	4937 	0.046685
39.19 	0.050641 	4917 	0.049688
39.21 	0.051120 	4910 	0.050404
39.23 	0.047310 	4925 	0.046834
39.25 	0.046729 	4922 	0.046253
39.27 	0.044603 	4910 	0.044006
39.29 	0.047133 	4901 	0.046416
39.31 	0.040541 	4884 	0.040061
39.33 	0.049280 	4931 	0.048805
39.35 	0.050861 	4935 	0.050011
39.37 	0.046865 	4929 	0.046152
39.39 	0.046865 	4929 	0.046271
39.41 	0.050497 	4931 	0.050022
39.43 	0.044395 	4933 	0.044039
39.45 	0.038376 	4925 	0.038138
39.47 	0.043876 	4923 	0.043023
39.49 	0.046625 	4933 	0.045912
39.51 	0.046913 	4924 	0.046675
39.53 	0.044688 	4923 	0.044331
39.55 	0.049197 	4919 	0.048840
39.57 	0.045408 	4933 	0.045052
39.59 	0.050081 	4912 	0.049604
39.61 	0.051188 	4923 	0.049998
39.63 	0.047338 	4922 	0.046981
39.65 	0.049736 	4926 	0.048666
39.67 	0.048036 	4913 	0.047082
39.69 	0.045159 	4916 	0.044682
39.71 	0.044944 	4895 	0.044345
39.73 	0.042991 	4908 	0.042633
39.75 	0.048498 	4928 	0.047785
39.77 	0.042148 	4935 	0.041792
39.79 	0.049736 	4926 	0.048666
39.81 	0.045058 	4927 	0.044820
39.83 	0.048642 	4934 	0.047811
39.85 	0.046479 	4927 	0.046360
39.87 	0.042234 	4925 	0.041877
39.89 	0.047426 	4934 	0.046832
39.91 	0.043681 	4922 	0.043086
39.93 	0.045777 	4937 	0.044946
39.95 	0.050458 	4915 	0.049981
39.97 	0.046063 	4928 	0.045469
39.99 	0.040349 	4932 	0.039399
40.01 	0.044530 	4918 	0.043816
40.03 	0.042817 	4928 	0.042341
40.05 	0.050844 	4917 	0.050725
40.07 	0.046313 	4923 	0.045123
40.09 	0.047193 	4916 	0.046597
40.11 	0.041904 	4916 	0.041666
40.13 	0.044118 	4896 	0.043878
40.15 	0.049257 	4913 	0.047588
40.17 	0.043019 	4928 	0.042524
40.19 	0.045040 	4929 	0.044445
40.21 	0.042958 	4935 	0.042246
40.23 	0.038929 	4932 	0.038811
40.25 	0.047967 	4920 	0.047253
40.27 	0.038687 	4937 	0.038213
40.29 	0.041810 	4927 	0.041454
40.31 	0.039077 	4939 	0.038602
40.33 	0.047648 	4932 	0.047054
40.35 	0.046554 	4919 	0.046197
40.37 	0.040170 	4929 	0.039814
40.39 	0.037721 	4931 	0.037483
40.41 	0.042843 	4925 	0.042486
40.43 	0.036774 	4922 	0.036298
40.45 	0.042368 	4933 	0.041774
40.47 	0.045750 	4918 	0.044678
40.49 	0.044052 	4926 	0.043814
40.51 	0.044291 	4922 	0.043458
40.53 	0.040683 	4916 	0.040564
40.55 	0.040139 	4908 	0.039900
40.57 	0.041718 	4890 	0.041119
40.59 	0.045574 	4937 	0.045100
40.61 	0.043972 	4935 	0.043497
40.63 	0.040974 	4930 	0.040617
40.65 	0.037270 	4937 	0.037032
40.67 	0.041971 	4932 	0.041377
40.69 	0.041321 	4937 	0.041083
40.71 	0.038727 	4932 	0.038252
40.73 	0.040398 	4926 	0.040279
40.75 	0.044210 	4931 	0.043854
40.77 	0.046568 	4939 	0.045857
40.79 	0.041836 	4924 	0.041003
40.81 	0.046549 	4941 	0.046194
40.83 	0.043425 	4928 	0.042831
40.85 	0.042851 	4924 	0.042257
40.87 	0.040990 	4928 	0.040753
40.89 	0.038532 	4931 	0.037938
40.91 	0.042860 	4923 	0.042503
40.93 	0.039319 	4934 	0.038963
40.95 	0.041522 	4913 	0.041046
40.97 	0.038993 	4924 	0.038279
40.99 	0.040820 	4924 	0.040226
41.01 	0.045399 	4912 	0.045161
41.03 	0.036290 	4905 	0.035812
41.05 	0.040924 	4936 	0.040449
41.07 	0.037931 	4930 	0.037575
41.09 	0.040899 	4939 	0.040306
41.11 	0.040932 	4935 	0.040457
41.13 	0.041734 	4936 	0.041259
41.15 	0.048776 	4941 	0.047946
41.17 	0.040738 	4934 	0.040500
41.19 	0.040568 	4930 	0.040093
41.21 	0.042131 	4937 	0.041538
41.23 	0.040494 	4939 	0.039782
41.25 	0.040949 	4933 	0.040592
41.27 	0.043805 	4931 	0.042973
41.29 	0.042817 	4928 	0.042460
41.31 	0.040341 	4933 	0.039866
41.33 	0.040916 	4937 	0.040085
41.35 	0.043742 	4938 	0.042793
41.37 	0.040617 	4924 	0.040023
41.39 	0.044598 	4933 	0.044004
41.41 	0.041819 	4926 	0.041343
41.43 	0.040982 	4929 	0.040863
41.45 	0.034799 	4914 	0.034202
41.47 	0.042631 	4926 	0.042274
41.49 	0.040883 	4892 	0.040284
41.51 	0.040688 	4940 	0.040451
41.53 	0.036610 	4944 	0.036255
41.55 	0.040324 	4935 	0.040087
41.57 	0.040275 	4941 	0.039801
41.59 	0.042773 	4933 	0.042179
41.61 	0.041793 	4953 	0.041556
41.63 	0.043135 	4938 	0.042779
41.65 	0.035707 	4929 	0.035588
41.67 	0.040486 	4940 	0.039656
41.69 	0.041237 	4947 	0.041119
41.71 	0.042359 	4934 	0.041647
41.73 	0.039911 	4936 	0.039535
41.75 	0.040170 	4929 	0.039814
41.77 	0.039668 	4941 	0.039668
41.79 	0.039239 	4944 	0.038766
41.81 	0.041126 	4936 	0.040652
41.83 	0.037946 	4928 	0.037828
41.85 	0.038267 	4939 	0.038030
41.87 	0.041945 	4935 	0.041214
41.89 	0.041354 	4933 	0.041117
41.91 	0.042139 	4936 	0.041546
41.93 	0.040146 	4932 	0.039908
41.95 	0.040357 	4931 	0.040119
41.97 	0.042939 	4914 	0.042581
41.99 	0.043221 	4905 	0.042744
42.01 	0.039660 	4942 	0.038949
42.03 	0.042519 	4939 	0.041926
42.05 	0.042205 	4952 	0.041850
42.07 	0.040916 	4937 	0.039848
42.09 	0.040420 	4948 	0.039828
42.11 	0.039636 	4945 	0.039518
42.13 	0.039434 	4945 	0.039078
42.15 	0.039490 	4938 	0.039252
42.17 	0.035584 	4918 	0.035345
42.19 	0.037897 	4908 	0.037181
42.21 	0.038155 	4901 	0.037558
42.23 	0.037817 	4892 	0.037338
42.25 	0.038454 	4889 	0.037475
42.27 	0.041444 	4874 	0.041204
42.29 	0.041744 	4863 	0.041141
42.31 	0.042636 	4855 	0.042395
42.33 	0.042822 	4834 	0.042337
42.35 	0.035965 	4838 	0.035602
42.37 	0.043271 	4830 	0.042907
42.39 	0.037052 	4804 	0.036931
42.41 	0.037677 	4804 	0.037189
42.43 	0.041319 	4792 	0.040830
42.45 	0.033291 	4776 	0.033291
42.47 	0.040504 	4765 	0.040381
42.49 	0.041343 	4765 	0.040851
42.51 	0.032680 	4743 	0.032556
42.53 	0.044416 	4728 	0.044045
42.55 	0.041631 	4708 	0.041382
42.57 	0.035518 	4730 	0.035270
42.59 	0.039966 	4729 	0.039347
42.61 	0.041206 	4708 	0.040460
42.63 	0.040985 	4709 	0.040612
42.65 	0.039701 	4685 	0.038930
42.67 	0.036080 	4684 	0.035705
42.69 	0.036371 	4674 	0.036121
42.71 	0.037744 	4663 	0.037241
42.73 	0.042888 	4640 	0.042509
42.75 	0.037470 	4617 	0.037090
42.77 	0.041087 	4600 	0.040832
42.79 	0.038411 	4582 	0.038028
42.81 	0.039895 	4562 	0.039381
42.83 	0.036596 	4536 	0.036209
42.85 	0.039090 	4528 	0.038443
42.87 	0.040453 	4499 	0.039933
42.89 	0.036830 	4480 	0.036700
42.91 	0.039722 	4456 	0.039459
42.93 	0.042285 	4446 	0.041890
42.95 	0.044384 	4416 	0.043986
42.97 	0.041809 	4401 	0.040611
42.99 	0.045154 	4385 	0.044620
43.01 	0.037360 	4363 	0.036957
43.03 	0.037157 	4333 	0.036751
43.05 	0.039306 	4325 	0.038900
43.07 	0.039572 	4296 	0.038481
43.09 	0.034088 	4283 	0.033951
43.11 	0.040423 	4255 	0.039459
43.13 	0.037763 	4237 	0.037486
43.15 	0.032097 	4206 	0.031679
43.17 	0.038526 	4179 	0.038105
43.19 	0.040773 	4194 	0.040354
43.21 	0.042665 	4172 	0.041823
43.23 	0.040202 	4154 	0.039215
43.25 	0.039178 	4135 	0.038753
43.27 	0.035323 	4105 	0.034752
43.29 	0.043415 	4100 	0.042557
43.31 	0.037509 	4079 	0.036791
43.33 	0.036287 	4051 	0.036287
43.35 	0.035466 	4032 	0.034595
43.37 	0.035118 	4015 	0.034535
43.39 	0.031484 	4002 	0.031338
43.41 	0.042548 	3972 	0.042105
43.43 	0.039394 	3960 	0.039246
43.45 	0.042440 	3935 	0.042142
43.47 	0.038001 	3921 	0.037851
43.49 	0.039004 	3897 	0.039004
43.51 	0.034305 	3877 	0.033549
43.53 	0.042972 	3863 	0.042365
43.55 	0.039136 	2964 	0.038543
43.57 	0.040214 	2238 	0.039691
43.59 	0.040092 	1746 	0.039085
43.61 	0.035529 	1351 	0.035096
43.63 	0.030969 	1001 	0.030969
43.65 	0.032023 	687 	0.031171
43.67 	0.041833 	502 	0.039499
43.69 	0.027248 	367 	0.027248
43.71 	0.025105 	239 	0.025105
43.73 	0.066667 	120 	0.066667
43.75 	0.125000 	16 	0.125000