File: Example_Data/25SC_s1_0048.004.dat
#F C:\frames\spec\25SC_s1_0048.004
#C title =s:48 frm:4 25SC_s1
#C wavelength =0.15406

#S 1  fr_average C:\frames\spec\25SC_s1_0048.004 C:\win32app\speccom\mask.axs chi 0 180 0 360 0.02
#C 2 theta =0.000000 to 180 deg
#C   q   =0.000000 to 81.568 nm^-1
#C  chi  =0.000000 to 360 deg
#C collumns:
#C  1 position (2theta or chi in degrees)
#C  2 average intensity (sum of all counts in the region divided with number of pixels)
#C  3 Number of pixels in region)
#C  4 error (sum of sqrt(intensity) for all pixels divided by number)
#N 4
#L TTh  Int  N_pix  Err
32.99 	0.032787 	61 	0.032787
33.01 	0.050401 	873 	0.048388
33.03 	0.062545 	1391 	0.062124
33.05 	0.055777 	1757 	0.055110
33.07 	0.059512 	2050 	0.059226
33.09 	0.051981 	2347 	0.050234
33.11 	0.062815 	2579 	0.062134
33.13 	0.055496 	2793 	0.054867
33.15 	0.051684 	2999 	0.050903
33.17 	0.060294 	3201 	0.059562
33.19 	0.061041 	3342 	0.060165
33.21 	0.056170 	3436 	0.055318
33.23 	0.061311 	3523 	0.060480
33.25 	0.057309 	3612 	0.056498
33.27 	0.057851 	3630 	0.056399
33.29 	0.052632 	3648 	0.051829
33.31 	0.054098 	3660 	0.053272
33.33 	0.058058 	3686 	0.057197
33.35 	0.054683 	3694 	0.053732
33.37 	0.057889 	3714 	0.056470
33.39 	0.065165 	3729 	0.063751
33.41 	0.061765 	3740 	0.060512
33.43 	0.054773 	3761 	0.053838
33.45 	0.059899 	3773 	0.058812
33.47 	0.065561 	3798 	0.063864
33.49 	0.060121 	3809 	0.059198
33.51 	0.062910 	3815 	0.061528
33.53 	0.060141 	3841 	0.059073
33.55 	0.060630 	3843 	0.060020
33.57 	0.053908 	3877 	0.053152
33.59 	0.053093 	3880 	0.052640
33.61 	0.059350 	3909 	0.058426
33.63 	0.063281 	3919 	0.061637
33.65 	0.062325 	3931 	0.060512
33.67 	0.053870 	3954 	0.053129
33.69 	0.056666 	3953 	0.055925
33.71 	0.061132 	3975 	0.060543
33.73 	0.060939 	4004 	0.059037
33.75 	0.056764 	3999 	0.056325
33.77 	0.056894 	4025 	0.055876
33.79 	0.055432 	4041 	0.053837
33.81 	0.056216 	4038 	0.055346
33.83 	0.049630 	4050 	0.049340
33.85 	0.057087 	4099 	0.055229
33.87 	0.052542 	4111 	0.051545
33.89 	0.056540 	4121 	0.054668
33.91 	0.066040 	4149 	0.064769
33.93 	0.059022 	4151 	0.057893
33.95 	0.056924 	4181 	0.056201
33.97 	0.059666 	4190 	0.059107
33.99 	0.051905 	4200 	0.051207
34.01 	0.054118 	4213 	0.053423
34.03 	0.058200 	4244 	0.056682
34.05 	0.060677 	4252 	0.059117
34.07 	0.061856 	4268 	0.060598
34.09 	0.062762 	4286 	0.061669
34.11 	0.054858 	4302 	0.053769
34.13 	0.061049 	4308 	0.059961
34.15 	0.062572 	4331 	0.060949
34.17 	0.065977 	4350 	0.064900
34.19 	0.057084 	4362 	0.055607
34.21 	0.062915 	4371 	0.061038
34.23 	0.054177 	4393 	0.054044
34.25 	0.056312 	4404 	0.054982
34.27 	0.057214 	4422 	0.056154
34.29 	0.053439 	4435 	0.052514
34.31 	0.057649 	4458 	0.056729
34.33 	0.061060 	4471 	0.060252
34.35 	0.052409 	4484 	0.051473
34.37 	0.060120 	4491 	0.059207
34.39 	0.059529 	4502 	0.058748
34.41 	0.060539 	4526 	0.059763
34.43 	0.051333 	4539 	0.050559
34.45 	0.055127 	4535 	0.054223
34.47 	0.057056 	4592 	0.056035
34.49 	0.058299 	4597 	0.056515
34.51 	0.055363 	4606 	0.054727
34.53 	0.061167 	4643 	0.060663
34.55 	0.065906 	4643 	0.065023
34.57 	0.057082 	4660 	0.055406
34.59 	0.054118 	4675 	0.053491
34.61 	0.059400 	4697 	0.058506
34.63 	0.061571 	4710 	0.060203
34.65 	0.053167 	4721 	0.052298
34.67 	0.056317 	4741 	0.055329
34.69 	0.057005 	4754 	0.056122
34.71 	0.059169 	4766 	0.058186
34.73 	0.060581 	4787 	0.059847
34.75 	0.056780 	4808 	0.055806
34.77 	0.059776 	4818 	0.058682
34.79 	0.057214 	4824 	0.055878
34.81 	0.063158 	4845 	0.062070
34.83 	0.056767 	4862 	0.055682
34.85 	0.061204 	4869 	0.060482
34.87 	0.059573 	4868 	0.058249
34.89 	0.065342 	4882 	0.064382
34.91 	0.056329 	4882 	0.055249
34.93 	0.061849 	4899 	0.060534
34.95 	0.060532 	4890 	0.059693
34.97 	0.058344 	4902 	0.058224
34.99 	0.059220 	4897 	0.058383
35.01 	0.063579 	4923 	0.062984
35.03 	0.057860 	4943 	0.056438
35.05 	0.052153 	4947 	0.051206
35.07 	0.059514 	4940 	0.059040
35.09 	0.063598 	4953 	0.062750
35.11 	0.055791 	4947 	0.054726
35.13 	0.065147 	4958 	0.063710
35.15 	0.054284 	4937 	0.053335
35.17 	0.056814 	4946 	0.056103
35.19 	0.061311 	4942 	0.060481
35.21 	0.056825 	4945 	0.055877
35.23 	0.057634 	4945 	0.057397
35.25 	0.056443 	4943 	0.055969
35.27 	0.052749 	4948 	0.051920
35.29 	0.058038 	4945 	0.056498
35.31 	0.053720 	4933 	0.052988
35.33 	0.059478 	4943 	0.058411
35.35 	0.060704 	4942 	0.059874
35.37 	0.055072 	4939 	0.054004
35.39 	0.057027 	4945 	0.056179
35.41 	0.053593 	4926 	0.052999
35.43 	0.059396 	4933 	0.058565
35.45 	0.061981 	4937 	0.061131
35.47 	0.056175 	4931 	0.054393
35.49 	0.066191 	4910 	0.065237
35.51 	0.057044 	4926 	0.055855
35.53 	0.054354 	4949 	0.052934
35.55 	0.063903 	4945 	0.062600
35.57 	0.061220 	4933 	0.060389
35.59 	0.057230 	4945 	0.056637
35.61 	0.059692 	4942 	0.058507
35.63 	0.060085 	4943 	0.059611
35.65 	0.056623 	4945 	0.056031
35.67 	0.059895 	4942 	0.058828
35.69 	0.062273 	4946 	0.061443
35.71 	0.056917 	4937 	0.055968
35.73 	0.064222 	4936 	0.063510
35.75 	0.063476 	4931 	0.061932
35.77 	0.060796 	4951 	0.059731
35.79 	0.059611 	4932 	0.058542
35.81 	0.056963 	4933 	0.056132
35.83 	0.050344 	4946 	0.049870
35.85 	0.056332 	4935 	0.055007
35.87 	0.052001 	4923 	0.051287
35.89 	0.058776 	4934 	0.057945
35.91 	0.063528 	4927 	0.061744
35.93 	0.060280 	4927 	0.058616
35.95 	0.057555 	4917 	0.056841
35.97 	0.054967 	4912 	0.054490
35.99 	0.058311 	4939 	0.057481
36.01 	0.053753 	4930 	0.053158
36.03 	0.055634 	4943 	0.055042
36.05 	0.054601 	4945 	0.054245
36.07 	0.059121 	4939 	0.057698
36.09 	0.056073 	4940 	0.055124
36.11 	0.062893 	4929 	0.062061
36.13 	0.056657 	4942 	0.056065
36.15 	0.055882 	4939 	0.054814
36.17 	0.054213 	4925 	0.053381
36.19 	0.058097 	4940 	0.057504
36.21 	0.058633 	4929 	0.057682
36.23 	0.053698 	4935 	0.052986
36.25 	0.064157 	4941 	0.063327
36.27 	0.056650 	4925 	0.055698
36.29 	0.057798 	4931 	0.057204
36.31 	0.059862 	4928 	0.059030
36.33 	0.056558 	4933 	0.055727
36.35 	0.049706 	4929 	0.048993
36.37 	0.055657 	4923 	0.054586
36.39 	0.060354 	4921 	0.059144
36.41 	0.057394 	4896 	0.056556
36.43 	0.058644 	4928 	0.057456
36.45 	0.061866 	4930 	0.060678
36.47 	0.053079 	4936 	0.052011
36.49 	0.056253 	4942 	0.055304
36.51 	0.056152 	4933 	0.055915
36.53 	0.056848 	4943 	0.055544
36.55 	0.052973 	4927 	0.052359
36.57 	0.062627 	4934 	0.061558
36.59 	0.049605 	4939 	0.048656
36.61 	0.056175 	4931 	0.054987
36.63 	0.057189 	4931 	0.056001
36.65 	0.061841 	4932 	0.060891
36.67 	0.053347 	4930 	0.052872
36.69 	0.061676 	4929 	0.060012
36.71 	0.056289 	4921 	0.055218
36.73 	0.063959 	4925 	0.063603
36.75 	0.065332 	4944 	0.064621
36.77 	0.060581 	4919 	0.059748
36.79 	0.059541 	4921 	0.058588
36.81 	0.064687 	4916 	0.063614
36.83 	0.056562 	4915 	0.055966
36.85 	0.054308 	4898 	0.053471
36.87 	0.056837 	4944 	0.055889
36.89 	0.063263 	4916 	0.062071
36.91 	0.049180 	4941 	0.048232
36.93 	0.056187 	4930 	0.055117
36.95 	0.056558 	4933 	0.055489
36.97 	0.058979 	4934 	0.057910
36.99 	0.059574 	4935 	0.058744
37.01 	0.057369 	4933 	0.056181
37.03 	0.059911 	4924 	0.058959
37.05 	0.049929 	4927 	0.047988
37.07 	0.054914 	4935 	0.054439
37.09 	0.057427 	4928 	0.056357
37.11 	0.054103 	4935 	0.053510
37.13 	0.051178 	4924 	0.050326
37.15 	0.051538 	4909 	0.050703
37.17 	0.055938 	4934 	0.054751
37.19 	0.060711 	4925 	0.059283
37.21 	0.054098 	4917 	0.052907
37.23 	0.055714 	4918 	0.054503
37.25 	0.054775 	4911 	0.053563
37.27 	0.053944 	4894 	0.053465
37.29 	0.053144 	4930 	0.052550
37.31 	0.056940 	4935 	0.055872
37.33 	0.057236 	4927 	0.056641
37.35 	0.061968 	4938 	0.060426
37.37 	0.061498 	4927 	0.061022
37.39 	0.053944 	4931 	0.053588
37.41 	0.052322 	4931 	0.051728
37.43 	0.061841 	4932 	0.060891
37.45 	0.055240 	4924 	0.053654
37.47 	0.056198 	4929 	0.055366
37.49 	0.051391 	4923 	0.050677
37.51 	0.055747 	4933 	0.055035
37.53 	0.057329 	4919 	0.056138
37.55 	0.055578 	4930 	0.054984
37.57 	0.053604 	4925 	0.052058
37.59 	0.054527 	4915 	0.053454
37.61 	0.065217 	4922 	0.064503
37.63 	0.051637 	4919 	0.051041
37.65 	0.053680 	4918 	0.053204
37.67 	0.053630 	4904 	0.052316
37.69 	0.049612 	4898 	0.048895
37.71 	0.059241 	4929 	0.057934
37.73 	0.054575 	4929 	0.053981
37.75 	0.049798 	4940 	0.049205
37.77 	0.066870 	4920 	0.065679
37.79 	0.056389 	4930 	0.055914
37.81 	0.058788 	4933 	0.057957
37.83 	0.055691 	4920 	0.054858
37.85 	0.053230 	4922 	0.052140
37.87 	0.052237 	4939 	0.051170
37.89 	0.056447 	4925 	0.055733
37.91 	0.050913 	4930 	0.050081
37.93 	0.060988 	4919 	0.059916
37.95 	0.057915 	4921 	0.056943
37.97 	0.052749 	4929 	0.051323
37.99 	0.051710 	4912 	0.050856
38.01 	0.062094 	4928 	0.061005
38.03 	0.050316 	4909 	0.049838
38.05 	0.055025 	4925 	0.053836
38.07 	0.057038 	4909 	0.056083
38.09 	0.052891 	4878 	0.052170
38.11 	0.052077 	4935 	0.050870
38.13 	0.056309 	4937 	0.055479
38.15 	0.055510 	4918 	0.054081
38.17 	0.058418 	4930 	0.058061
38.19 	0.058824 	4930 	0.058111
38.21 	0.060532 	4923 	0.059699
38.23 	0.051235 	4938 	0.050405
38.25 	0.058166 	4917 	0.057451
38.27 	0.057201 	4930 	0.056013
38.29 	0.055443 	4924 	0.054729
38.31 	0.058859 	4927 	0.057552
38.33 	0.056661 	4924 	0.055828
38.35 	0.060065 	4928 	0.058995
38.37 	0.059301 	4924 	0.057973
38.39 	0.066612 	4909 	0.065180
38.41 	0.062157 	4923 	0.061086
38.43 	0.067331 	4916 	0.066001
38.45 	0.056934 	4918 	0.055504
38.47 	0.063786 	4907 	0.062712
38.49 	0.059258 	4877 	0.058177
38.51 	0.063260 	4932 	0.061598
38.53 	0.068371 	4929 	0.067638
38.55 	0.063412 	4936 	0.061869
38.57 	0.067235 	4923 	0.065927
38.59 	0.066816 	4924 	0.065864
38.61 	0.070300 	4936 	0.069469
38.63 	0.066409 	4924 	0.064863
38.65 	0.070964 	4918 	0.069634
38.67 	0.061171 	4937 	0.060558
38.69 	0.067046 	4922 	0.065856
38.71 	0.056661 	4924 	0.055710
38.73 	0.065474 	4918 	0.064759
38.75 	0.066572 	4927 	0.065026
38.77 	0.063782 	4923 	0.062711
38.79 	0.060397 	4934 	0.059210
38.81 	0.053746 	4912 	0.053150
38.83 	0.055906 	4919 	0.054596
38.85 	0.054357 	4912 	0.053522
38.87 	0.047852 	4911 	0.046898
38.89 	0.050439 	4897 	0.049243
38.91 	0.056700 	4903 	0.056222
38.93 	0.059336 	4938 	0.058031
38.95 	0.048394 	4918 	0.047679
38.97 	0.056581 	4931 	0.055630
38.99 	0.053676 	4937 	0.052708
39.01 	0.051037 	4918 	0.050441
39.03 	0.054520 	4934 	0.053056
39.05 	0.049340 	4925 	0.048864
39.07 	0.049756 	4924 	0.049161
39.09 	0.055251 	4923 	0.054180
39.11 	0.053539 	4931 	0.052945
39.13 	0.055454 	4923 	0.054502
39.15 	0.045778 	4915 	0.045659
39.17 	0.058335 	4937 	0.057366
39.19 	0.056742 	4917 	0.055650
39.21 	0.051935 	4910 	0.051458
39.23 	0.057056 	4925 	0.055866
39.25 	0.052418 	4922 	0.051347
39.27 	0.051731 	4910 	0.050657
39.29 	0.061008 	4901 	0.060171
39.31 	0.046274 	4884 	0.045674
39.33 	0.053336 	4931 	0.052386
39.35 	0.048227 	4935 	0.047871
39.37 	0.051126 	4929 	0.050294
39.39 	0.057212 	4929 	0.056499
39.41 	0.050700 	4931 	0.050106
39.43 	0.049057 	4933 	0.048701
39.45 	0.053807 	4925 	0.053093
39.47 	0.052407 	4923 	0.050722
39.49 	0.057571 	4933 	0.055889
39.51 	0.054224 	4924 	0.053510
39.53 	0.054641 	4923 	0.053333
39.55 	0.051840 	4919 	0.051244
39.57 	0.063653 	4933 	0.062703
39.59 	0.060057 	4912 	0.058626
39.61 	0.061954 	4923 	0.061121
39.63 	0.054043 	4922 	0.053091
39.65 	0.052578 	4926 	0.051627
39.67 	0.057195 	4913 	0.055387
39.69 	0.055533 	4916 	0.054699
39.71 	0.056384 	4895 	0.055546
39.73 	0.061940 	4908 	0.060507
39.75 	0.057630 	4928 	0.056560
39.77 	0.057751 	4935 	0.056682
39.79 	0.051969 	4926 	0.051137
39.81 	0.052973 	4927 	0.052260
39.83 	0.057154 	4934 	0.055967
39.85 	0.052162 	4927 	0.051329
39.87 	0.052995 	4925 	0.051924
39.89 	0.055128 	4934 	0.054653
39.91 	0.055465 	4922 	0.054989
39.93 	0.052056 	4937 	0.050731
39.95 	0.052899 	4915 	0.052542
39.97 	0.052760 	4928 	0.052403
39.99 	0.061436 	4932 	0.060367
40.01 	0.059170 	4918 	0.058456
40.03 	0.057021 	4928 	0.056427
40.05 	0.052268 	4917 	0.051434
40.07 	0.052813 	4923 	0.051980
40.09 	0.052278 	4916 	0.051682
40.11 	0.054516 	4916 	0.053563
40.13 	0.045547 	4896 	0.044710
40.15 	0.051700 	4913 	0.050984
40.17 	0.052963 	4928 	0.052131
40.19 	0.048894 	4929 	0.048181
40.21 	0.055117 	4935 	0.054404
40.23 	0.053528 	4932 	0.053409
40.25 	0.053049 	4920 	0.051620
40.27 	0.052258 	4937 	0.051902
40.29 	0.047087 	4927 	0.046612
40.31 	0.049200 	4939 	0.047757
40.33 	0.054339 	4932 	0.053151
40.35 	0.056312 	4919 	0.055836
40.37 	0.054169 	4929 	0.053100
40.39 	0.048672 	4931 	0.047603
40.41 	0.051371 	4925 	0.050538
40.43 	0.057294 	4922 	0.056342
40.45 	0.051085 	4933 	0.050016
40.47 	0.052867 	4918 	0.052152
40.49 	0.051563 	4926 	0.050969
40.51 	0.049777 	4922 	0.049062
40.53 	0.050041 	4916 	0.049445
40.55 	0.055827 	4908 	0.054992
40.57 	0.055010 	4890 	0.054052
40.59 	0.049220 	4937 	0.048508
40.61 	0.056130 	4935 	0.055299
40.63 	0.046653 	4930 	0.046416
40.65 	0.054284 	4937 	0.052860
40.67 	0.051703 	4932 	0.050991
40.69 	0.052258 	4937 	0.051309
40.71 	0.047242 	4932 	0.046649
40.73 	0.056638 	4926 	0.055568
40.75 	0.049888 	4931 	0.049176
40.77 	0.053452 	4939 	0.052503
40.79 	0.055240 	4924 	0.054645
40.81 	0.049787 	4941 	0.048720
40.83 	0.049310 	4928 	0.048835
40.85 	0.052193 	4924 	0.051480
40.87 	0.054992 	4928 	0.054160
40.89 	0.051714 	4931 	0.050744
40.91 	0.049360 	4923 	0.048270
40.93 	0.054520 	4934 	0.053550
40.95 	0.049257 	4913 	0.048661
40.97 	0.050162 	4924 	0.049092
40.99 	0.049147 	4924 	0.048433
41.01 	0.053542 	4912 	0.053065
41.03 	0.054434 	4905 	0.053121
41.05 	0.058347 	4936 	0.057753
41.07 	0.046856 	4930 	0.046143
41.09 	0.050415 	4939 	0.049466
41.11 	0.046403 	4935 	0.045572
41.13 	0.051864 	4936 	0.050914
41.15 	0.056669 	4941 	0.056076
41.17 	0.046615 	4934 	0.045903
41.19 	0.051521 	4930 	0.050690
41.21 	0.051043 	4937 	0.049956
41.23 	0.047378 	4939 	0.047022
41.25 	0.053517 	4933 	0.052567
41.27 	0.053742 	4931 	0.052672
41.29 	0.053369 	4928 	0.053012
41.31 	0.052301 	4933 	0.051450
41.33 	0.050435 	4937 	0.049842
41.35 	0.052045 	4938 	0.051808
41.37 	0.042851 	4924 	0.042138
41.39 	0.051693 	4933 	0.051317
41.41 	0.049127 	4926 	0.048532
41.43 	0.048489 	4929 	0.048132
41.45 	0.051689 	4914 	0.050855
41.47 	0.047300 	4926 	0.046785
41.49 	0.047016 	4892 	0.046537
41.51 	0.050810 	4940 	0.050335
41.53 	0.048139 	4944 	0.047191
41.55 	0.051266 	4935 	0.050792
41.57 	0.051204 	4941 	0.050611
41.59 	0.050071 	4933 	0.049477
41.61 	0.047850 	4953 	0.046785
41.63 	0.048603 	4938 	0.047397
41.65 	0.050923 	4929 	0.049735
41.67 	0.047773 	4940 	0.047536
41.69 	0.049727 	4947 	0.049253
41.71 	0.049858 	4934 	0.048651
41.73 	0.045178 	4936 	0.044704
41.75 	0.051329 	4929 	0.050497
41.77 	0.050799 	4941 	0.049970
41.79 	0.050162 	4944 	0.049332
41.81 	0.049028 	4936 	0.048315
41.83 	0.052557 	4928 	0.051844
41.85 	0.046771 	4939 	0.046158
41.87 	0.049037 	4935 	0.048207
41.89 	0.046827 	4933 	0.046234
41.91 	0.043355 	4936 	0.042386
41.93 	0.050892 	4932 	0.050180
41.95 	0.043805 	4931 	0.043211
41.97 	0.044567 	4914 	0.044090
41.99 	0.046891 	4905 	0.045697
42.01 	0.048968 	4942 	0.048612
42.03 	0.047580 	4939 	0.046869
42.05 	0.055735 	4952 	0.055025
42.07 	0.043144 	4937 	0.042906
42.09 	0.050525 	4948 	0.049815
42.11 	0.050961 	4945 	0.049875
42.13 	0.050152 	4945 	0.049796
42.15 	0.043742 	4938 	0.042912
42.17 	0.047174 	4918 	0.046459
42.19 	0.047066 	4908 	0.046589
42.21 	0.044277 	4901 	0.043679
42.23 	0.051717 	4892 	0.050759
42.25 	0.044385 	4889 	0.044146
42.27 	0.042881 	4874 	0.042640
42.29 	0.046473 	4863 	0.045751
42.31 	0.045108 	4855 	0.044505
42.33 	0.047993 	4834 	0.047751
42.35 	0.050641 	4838 	0.050156
42.37 	0.048447 	4830 	0.047720
42.39 	0.044546 	4804 	0.043937
42.41 	0.043922 	4804 	0.043556
42.43 	0.048414 	4792 	0.047803
42.45 	0.043132 	4776 	0.043132
42.47 	0.049948 	4765 	0.049825
42.49 	0.042183 	4765 	0.041814
42.51 	0.051023 	4743 	0.050405
42.53 	0.044628 	4728 	0.044008
42.55 	0.053314 	4708 	0.052567
42.57 	0.050951 	4730 	0.049713
42.59 	0.046944 	4729 	0.046429
42.61 	0.049703 	4708 	0.048458
42.63 	0.049692 	4709 	0.049194
42.65 	0.045678 	4685 	0.045053
42.67 	0.050598 	4684 	0.049347
42.69 	0.049850 	4674 	0.049474
42.71 	0.051469 	4663 	0.050841
42.73 	0.047845 	4640 	0.047087
42.75 	0.045051 	4617 	0.044543
42.77 	0.043478 	4600 	0.043351
42.79 	0.049105 	4582 	0.048722
42.81 	0.049540 	4562 	0.049154
42.83 	0.044533 	4536 	0.043887
42.85 	0.044170 	4528 	0.043135
42.87 	0.052456 	4499 	0.051805
42.89 	0.047991 	4480 	0.047207
42.91 	0.050269 	4456 	0.049349
42.93 	0.042285 	4446 	0.041626
42.95 	0.047328 	4416 	0.046267
42.97 	0.052488 	4401 	0.051689
42.99 	0.044242 	4385 	0.043841
43.01 	0.052945 	4363 	0.051446
43.03 	0.042926 	4333 	0.042386
43.05 	0.049711 	4325 	0.048763
43.07 	0.049814 	4296 	0.049405
43.09 	0.041093 	4283 	0.040546
43.11 	0.045593 	4255 	0.045180
43.13 	0.044135 	4237 	0.042891
43.15 	0.040418 	4206 	0.039861
43.17 	0.046423 	4179 	0.046142
43.19 	0.042203 	4194 	0.041644
43.21 	0.044343 	4172 	0.043922
43.23 	0.044776 	4154 	0.044353
43.25 	0.045949 	4135 	0.045241
43.27 	0.046041 	4105 	0.045043
43.29 	0.045366 	4100 	0.044223
43.31 	0.041187 	4079 	0.040325
43.33 	0.045174 	4051 	0.044451
43.35 	0.046875 	4032 	0.046730
43.37 	0.050809 	4015 	0.049934
43.39 	0.049475 	4002 	0.048890
43.41 	0.044814 	3972 	0.043634
43.43 	0.041667 	3960 	0.040779
43.45 	0.045489 	3935 	0.044596
43.47 	0.046162 	3921 	0.045415
43.49 	0.041570 	3897 	0.041270
43.51 	0.052876 	3877 	0.051818
43.53 	0.048408 	3863 	0.047346
43.55 	0.043522 	2964 	0.043325
43.57 	0.044236 	2238 	0.043451
43.59 	0.043528 	1746 	0.042186
43.61 	0.042191 	1351 	0.041324
43.63 	0.034965 	1001 	0.034965
43.65 	0.050946 	687 	0.050946
43.67 	0.047809 	502 	0.046642
43.69 	0.035422 	367 	0.035422
43.71 	0.050209 	239 	0.050209
43.73 	0.041667 	120 	0.041667
43.75 	0.000000 	16 	0.000000