File: Example_Data/25SC_s1_0011.000.dat
#F C:\frames\spec\25SC_s1_0011.000
#C title =s:11 frm:0 25SC_s1
#C wavelength =0.15406

#S 1  fr_average C:\frames\spec\25SC_s1_0011.000 C:\win32app\speccom\mask.axs chi 0 180 0 360 0.02
#C 2 theta =0.000000 to 180 deg
#C   q   =0.000000 to 81.568 nm^-1
#C  chi  =0.000000 to 360 deg
#C collumns:
#C  1 position (2theta or chi in degrees)
#C  2 average intensity (sum of all counts in the region divided with number of pixels)
#C  3 Number of pixels in region)
#C  4 error (sum of sqrt(intensity) for all pixels divided by number)
#N 4
#L TTh  Int  N_pix  Err
32.99 	0.065574 	61 	0.065574
33.01 	0.064147 	873 	0.063476
33.03 	0.056075 	1391 	0.056075
33.05 	0.049516 	1757 	0.048516
33.07 	0.070732 	2050 	0.069589
33.09 	0.064337 	2347 	0.063339
33.11 	0.055060 	2579 	0.053243
33.13 	0.061941 	2793 	0.060438
33.15 	0.059687 	2999 	0.059101
33.17 	0.061543 	3201 	0.060445
33.19 	0.061939 	3342 	0.061238
33.21 	0.051804 	3436 	0.050782
33.23 	0.056486 	3523 	0.056153
33.25 	0.066722 	3612 	0.065398
33.27 	0.058953 	3630 	0.058308
33.29 	0.057018 	3648 	0.056054
33.31 	0.061749 	3660 	0.060788
33.33 	0.061856 	3686 	0.061220
33.35 	0.058744 	3694 	0.057951
33.37 	0.061659 	3714 	0.060239
33.39 	0.056047 	3729 	0.055105
33.41 	0.057754 	3740 	0.056501
33.43 	0.068333 	3761 	0.066308
33.45 	0.061490 	3773 	0.060713
33.47 	0.064771 	3798 	0.063537
33.49 	0.064321 	3809 	0.063245
33.51 	0.057667 	3815 	0.057360
33.53 	0.064827 	3841 	0.063454
33.55 	0.061931 	3843 	0.060381
33.57 	0.064483 	3877 	0.063274
33.59 	0.065722 	3880 	0.064967
33.61 	0.058327 	3909 	0.056828
33.63 	0.060219 	3919 	0.059323
33.65 	0.059781 	3931 	0.058589
33.67 	0.059939 	3954 	0.058902
33.69 	0.051859 	3953 	0.050970
33.71 	0.057610 	3975 	0.056431
33.73 	0.054945 	4004 	0.054214
33.75 	0.053263 	3999 	0.051945
33.77 	0.060373 	4025 	0.059791
33.79 	0.060134 	4041 	0.059095
33.81 	0.064141 	4038 	0.063560
33.83 	0.060741 	4050 	0.059005
33.85 	0.057087 	4099 	0.055492
33.87 	0.059353 	4111 	0.058213
33.89 	0.058238 	4121 	0.057243
33.91 	0.057122 	4149 	0.055993
33.93 	0.060226 	4151 	0.058815
33.95 	0.054293 	4181 	0.053172
33.97 	0.060859 	4190 	0.059461
33.99 	0.052857 	4200 	0.052020
34.01 	0.062663 	4213 	0.061273
34.03 	0.055372 	4244 	0.054958
34.05 	0.055738 	4252 	0.054912
34.07 	0.058107 	4268 	0.056734
34.09 	0.055063 	4286 	0.054630
34.11 	0.065551 	4302 	0.064734
34.13 	0.055942 	4308 	0.054039
34.15 	0.066728 	4331 	0.065646
34.17 	0.057011 	4350 	0.056204
34.19 	0.056855 	4362 	0.056049
34.21 	0.056280 	4371 	0.055052
34.23 	0.056909 	4393 	0.056242
34.25 	0.052906 	4404 	0.051842
34.27 	0.061058 	4422 	0.059999
34.29 	0.055242 	4435 	0.054318
34.31 	0.052714 	4458 	0.052189
34.33 	0.063297 	4471 	0.061725
34.35 	0.058653 	4484 	0.057216
34.37 	0.059675 	4491 	0.058501
34.39 	0.060418 	4502 	0.059225
34.41 	0.060539 	4526 	0.059763
34.43 	0.065874 	4539 	0.064841
34.45 	0.058214 	4535 	0.057439
34.47 	0.056402 	4592 	0.055765
34.49 	0.058299 	4597 	0.057917
34.51 	0.057751 	4606 	0.056606
34.53 	0.059014 	4643 	0.058509
34.55 	0.058152 	4643 	0.056638
34.57 	0.055365 	4660 	0.054108
34.59 	0.054118 	4675 	0.053115
34.61 	0.060464 	4697 	0.059092
34.63 	0.053079 	4710 	0.052457
34.65 	0.055073 	4721 	0.054329
34.67 	0.060536 	4741 	0.059547
34.69 	0.056374 	4754 	0.055634
34.71 	0.056232 	4766 	0.055125
34.73 	0.054314 	4787 	0.052458
34.75 	0.056988 	4808 	0.056745
34.77 	0.053549 	4818 	0.052941
34.79 	0.056592 	4824 	0.055378
34.81 	0.063158 	4845 	0.061828
34.83 	0.053682 	4862 	0.052838
34.85 	0.063668 	4869 	0.062585
34.87 	0.061011 	4868 	0.059928
34.89 	0.055920 	4882 	0.055060
34.91 	0.057763 	4882 	0.056323
34.93 	0.062666 	4899 	0.061211
34.95 	0.053579 	4890 	0.052740
34.97 	0.051204 	4902 	0.050487
34.99 	0.054115 	4897 	0.053277
35.01 	0.059313 	4923 	0.058104
35.03 	0.053004 	4943 	0.052056
35.05 	0.053366 	4947 	0.052537
35.07 	0.056275 	4940 	0.055801
35.09 	0.056531 	4953 	0.055329
35.11 	0.051546 	4947 	0.051191
35.13 	0.053046 	4958 	0.052691
35.15 	0.052258 	4937 	0.051665
35.17 	0.062475 	4946 	0.061409
35.19 	0.056657 	4942 	0.055590
35.21 	0.061072 	4945 	0.060105
35.23 	0.054601 	4945 	0.053061
35.25 	0.058264 	4943 	0.057672
35.27 	0.058610 	4948 	0.057643
35.29 	0.058847 	4945 	0.057663
35.31 	0.055747 	4933 	0.055153
35.33 	0.055027 	4943 	0.054553
35.35 	0.060907 	4942 	0.060195
35.37 	0.057502 	4939 	0.055960
35.39 	0.058443 	4945 	0.057851
35.41 	0.058465 	4926 	0.057514
35.43 	0.057369 	4933 	0.057131
35.45 	0.056715 	4937 	0.055884
35.47 	0.052119 	4931 	0.051169
35.49 	0.055601 	4910 	0.054646
35.51 	0.064758 	4926 	0.064164
35.53 	0.054961 	4949 	0.054250
35.55 	0.059454 	4945 	0.058250
35.57 	0.062031 	4933 	0.061319
35.59 	0.051567 	4945 	0.051093
35.61 	0.057871 	4942 	0.057160
35.63 	0.056848 	4943 	0.055663
35.65 	0.056016 	4945 	0.054713
35.67 	0.064751 	4942 	0.063921
35.69 	0.060857 	4946 	0.059634
35.71 	0.058943 	4937 	0.057499
35.73 	0.057131 	4936 	0.056301
35.75 	0.053133 	4931 	0.051826
35.77 	0.054938 	4951 	0.053874
35.79 	0.054136 	4932 	0.052473
35.81 	0.060815 	4933 	0.059370
35.83 	0.061464 	4946 	0.060279
35.85 	0.054711 	4935 	0.053880
35.87 	0.059720 	4923 	0.058391
35.89 	0.059384 	4934 	0.058315
35.91 	0.056424 	4927 	0.055354
35.93 	0.057845 	4927 	0.056141
35.95 	0.065894 	4917 	0.064206
35.97 	0.050285 	4912 	0.049808
35.99 	0.064790 	4939 	0.063723
36.01 	0.059432 	4930 	0.058125
36.03 	0.059276 	4943 	0.058565
36.05 	0.061881 	4945 	0.060696
36.07 	0.058919 	4939 	0.058207
36.09 	0.055668 	4940 	0.054957
36.11 	0.055792 	4929 	0.054485
36.13 	0.062728 	4942 	0.060812
36.15 	0.062158 	4939 	0.060854
36.17 	0.061117 	4925 	0.060046
36.19 	0.062146 	4940 	0.061316
36.21 	0.066342 	4929 	0.065629
36.23 	0.056738 	4935 	0.055669
36.25 	0.062538 	4941 	0.061590
36.27 	0.059898 	4925 	0.059185
36.29 	0.055161 	4931 	0.054805
36.31 	0.060268 	4928 	0.058109
36.33 	0.061626 	4933 	0.060913
36.35 	0.060661 	4929 	0.059829
36.37 	0.060532 	4923 	0.059204
36.39 	0.062182 	4921 	0.061230
36.41 	0.060253 	4896 	0.058818
36.43 	0.060268 	4928 	0.059555
36.45 	0.057606 	4930 	0.056181
36.47 	0.065032 	4936 	0.064083
36.49 	0.053015 	4942 	0.051593
36.51 	0.057166 	4933 	0.055741
36.53 	0.059680 	4943 	0.058495
36.55 	0.058656 	4927 	0.057567
36.57 	0.064045 	4934 	0.063333
36.59 	0.058514 	4939 	0.057209
36.61 	0.059826 	4931 	0.058638
36.63 	0.065098 	4931 	0.064148
36.65 	0.059611 	4932 	0.058779
36.67 	0.065517 	4930 	0.064448
36.69 	0.053763 	4929 	0.052932
36.71 	0.058525 	4921 	0.057096
36.73 	0.065381 	4925 	0.064310
36.75 	0.059668 	4944 	0.058365
36.77 	0.056109 	4919 	0.055156
36.79 	0.062386 	4921 	0.061314
36.81 	0.059601 	4916 	0.058152
36.83 	0.060834 	4915 	0.060477
36.85 	0.057779 	4898 	0.056942
36.87 	0.056028 	4944 	0.054823
36.89 	0.061635 	4916 	0.060325
36.91 	0.058895 	4941 	0.058184
36.93 	0.059838 	4930 	0.058531
36.95 	0.065883 	4933 	0.064933
36.97 	0.066477 	4934 	0.065765
36.99 	0.065653 	4935 	0.064585
37.01 	0.064667 	4933 	0.063123
37.03 	0.067425 	4924 	0.066216
37.05 	0.065151 	4927 	0.063843
37.07 	0.057345 	4935 	0.056277
37.09 	0.062297 	4928 	0.061822
37.11 	0.063222 	4935 	0.061778
37.13 	0.064582 	4924 	0.063016
37.15 	0.059279 	4909 	0.057370
37.17 	0.063235 	4934 	0.061454
37.19 	0.059289 	4925 	0.058199
37.21 	0.061420 	4917 	0.059593
37.23 	0.061204 	4918 	0.060132
37.25 	0.065771 	4911 	0.065055
37.27 	0.061708 	4894 	0.061229
37.29 	0.060041 	4930 	0.058734
37.31 	0.058156 	4935 	0.057206
37.33 	0.059671 	4927 	0.059315
37.35 	0.061563 	4938 	0.060614
37.37 	0.058453 	4927 	0.057502
37.39 	0.060434 	4931 	0.059721
37.41 	0.059826 	4931 	0.058875
37.43 	0.065491 	4932 	0.064897
37.45 	0.061332 	4924 	0.060242
37.47 	0.061676 	4929 	0.060606
37.49 	0.057892 	4923 	0.056821
37.51 	0.056761 	4933 	0.056167
37.53 	0.058752 	4919 	0.057799
37.55 	0.059026 	4930 	0.057838
37.57 	0.062335 	4925 	0.061027
37.59 	0.054934 	4915 	0.053861
37.61 	0.057091 	4922 	0.055762
37.63 	0.061191 	4919 	0.059762
37.65 	0.058764 	4918 	0.057811
37.67 	0.060155 	4904 	0.059199
37.69 	0.062883 	4898 	0.061806
37.71 	0.058227 	4929 	0.057514
37.73 	0.049909 	4929 	0.049077
37.75 	0.050000 	4940 	0.049051
37.77 	0.055081 	4920 	0.054010
37.79 	0.053550 	4930 	0.052461
37.81 	0.064667 	4933 	0.062885
37.83 	0.056911 	4920 	0.056077
37.85 	0.060544 	4922 	0.059949
37.87 	0.052642 	4939 	0.051792
37.89 	0.057259 	4925 	0.056426
37.91 	0.059635 	4930 	0.058803
37.93 	0.056109 	4919 	0.055156
37.95 	0.056696 	4921 	0.054910
37.97 	0.060053 	4929 	0.059221
37.99 	0.050081 	4912 	0.049485
38.01 	0.056818 	4928 	0.056462
38.03 	0.058057 	4909 	0.057579
38.05 	0.055228 	4925 	0.054158
38.07 	0.056223 	4909 	0.055507
38.09 	0.055556 	4878 	0.054715
38.11 	0.058156 	4935 	0.057563
38.13 	0.055094 	4937 	0.054145
38.15 	0.056527 	4918 	0.055812
38.17 	0.060243 	4930 	0.058818
38.19 	0.061055 	4930 	0.060461
38.21 	0.056063 	4923 	0.054873
38.23 	0.055488 	4938 	0.054658
38.25 	0.058166 	4917 	0.056498
38.27 	0.055984 	4930 	0.055033
38.29 	0.056255 	4924 	0.055065
38.31 	0.053176 	4927 	0.052582
38.33 	0.056458 	4924 	0.055506
38.35 	0.062500 	4928 	0.061192
38.37 	0.056458 	4924 	0.055863
38.39 	0.059075 	4909 	0.058340
38.41 	0.067032 	4923 	0.065942
38.43 	0.057364 	4916 	0.055914
38.45 	0.063034 	4918 	0.061485
38.47 	0.065621 	4907 	0.063830
38.49 	0.058848 	4877 	0.058127
38.51 	0.066099 	4932 	0.064635
38.53 	0.075066 	4929 	0.073026
38.55 	0.074149 	4936 	0.073437
38.57 	0.069673 	4923 	0.068007
38.59 	0.076361 	4924 	0.074695
38.61 	0.074757 	4936 	0.072621
38.63 	0.076564 	4924 	0.074779
38.65 	0.078284 	4918 	0.075882
38.67 	0.082034 	4937 	0.080017
38.69 	0.080455 	4922 	0.078670
38.71 	0.079610 	4924 	0.077945
38.73 	0.080927 	4918 	0.078783
38.75 	0.081997 	4927 	0.080333
38.77 	0.080032 	4923 	0.077395
38.79 	0.080259 	4934 	0.077391
38.81 	0.076344 	4912 	0.074555
38.83 	0.076032 	4919 	0.074484
38.85 	0.076954 	4912 	0.075523
38.87 	0.074527 	4911 	0.073095
38.89 	0.069634 	4897 	0.068438
38.91 	0.075668 	4903 	0.073856
38.93 	0.066424 	4938 	0.064288
38.95 	0.066897 	4918 	0.065825
38.97 	0.061651 	4931 	0.060344
38.99 	0.056107 	4937 	0.055514
39.01 	0.055714 	4918 	0.054284
39.03 	0.061005 	4934 	0.059699
39.05 	0.058680 	4925 	0.057491
39.07 	0.053209 	4924 	0.052475
39.09 	0.050985 	4923 	0.050490
39.11 	0.053944 	4931 	0.053469
39.13 	0.053626 	4923 	0.052912
39.15 	0.056968 	4915 	0.056492
39.17 	0.050638 	4937 	0.049570
39.19 	0.046166 	4917 	0.045432
39.21 	0.045825 	4910 	0.044751
39.23 	0.046701 	4925 	0.046106
39.25 	0.050996 	4922 	0.050043
39.27 	0.046436 	4910 	0.045720
39.29 	0.052234 	4901 	0.051517
39.31 	0.047707 	4884 	0.047467
39.33 	0.046441 	4931 	0.046084
39.35 	0.050253 	4935 	0.049897
39.37 	0.046460 	4929 	0.046103
39.39 	0.044228 	4929 	0.043277
39.41 	0.044413 	4931 	0.043938
39.43 	0.045206 	4933 	0.044493
39.45 	0.043046 	4925 	0.042332
39.47 	0.049766 	4923 	0.048814
39.49 	0.049666 	4933 	0.049428
39.51 	0.046101 	4924 	0.044911
39.53 	0.048345 	4923 	0.047631
39.55 	0.042895 	4919 	0.042299
39.57 	0.040138 	4933 	0.039900
39.59 	0.044992 	4912 	0.044753
39.61 	0.049360 	4923 	0.048884
39.63 	0.043275 	4922 	0.042561
39.65 	0.042834 	4926 	0.042715
39.67 	0.048850 	4913 	0.047896
39.69 	0.045769 	4916 	0.045292
39.71 	0.047395 	4895 	0.046558
39.73 	0.046659 	4908 	0.045942
39.75 	0.047890 	4928 	0.047414
39.77 	0.050051 	4935 	0.048864
39.79 	0.040601 	4926 	0.040006
39.81 	0.043028 	4927 	0.042553
39.83 	0.049047 	4934 	0.048098
39.85 	0.050538 	4927 	0.049468
39.87 	0.047919 	4925 	0.047443
39.89 	0.049453 	4934 	0.048740
39.91 	0.050183 	4922 	0.049112
39.93 	0.047195 	4937 	0.046839
39.95 	0.044557 	4915 	0.044200
39.97 	0.046875 	4928 	0.046400
39.99 	0.043796 	4932 	0.043202
40.01 	0.043920 	4918 	0.043444
40.03 	0.043222 	4928 	0.042271
40.05 	0.048403 	4917 	0.047808
40.07 	0.048751 	4923 	0.047561
40.09 	0.046786 	4916 	0.045198
40.11 	0.040073 	4916 	0.039358
40.13 	0.043505 	4896 	0.043146
40.15 	0.046000 	4913 	0.045523
40.17 	0.042005 	4928 	0.041292
40.19 	0.047677 	4929 	0.046469
40.21 	0.041945 	4935 	0.041470
40.23 	0.042782 	4932 	0.042544
40.25 	0.039837 	4920 	0.039718
40.27 	0.044156 	4937 	0.043682
40.29 	0.043840 	4927 	0.043364
40.31 	0.043734 	4939 	0.043615
40.33 	0.040552 	4932 	0.040314
40.35 	0.045334 	4919 	0.044739
40.37 	0.044431 	4929 	0.044193
40.39 	0.042791 	4931 	0.042078
40.41 	0.048325 	4925 	0.047730
40.43 	0.047338 	4922 	0.046148
40.45 	0.044800 	4933 	0.044207
40.47 	0.044937 	4918 	0.044580
40.49 	0.040195 	4926 	0.039600
40.51 	0.050996 	4922 	0.050281
40.53 	0.046379 	4916 	0.046022
40.55 	0.045232 	4908 	0.044874
40.57 	0.042127 	4890 	0.041767
40.59 	0.048410 	4937 	0.047461
40.61 	0.042148 	4935 	0.042029
40.63 	0.036105 	4930 	0.035274
40.65 	0.044359 	4937 	0.044122
40.67 	0.043998 	4932 	0.043523
40.69 	0.038485 	4937 	0.037417
40.71 	0.040146 	4932 	0.039552
40.73 	0.037759 	4926 	0.037283
40.75 	0.044007 	4931 	0.043413
40.77 	0.043329 	4939 	0.042617
40.79 	0.039805 	4924 	0.039091
40.81 	0.038251 	4941 	0.037876
40.83 	0.041396 	4928 	0.041277
40.85 	0.046304 	4924 	0.045828
40.87 	0.038961 	4928 	0.038486
40.89 	0.042993 	4931 	0.042399
40.91 	0.042657 	4923 	0.042181
40.93 	0.041751 	4934 	0.040920
40.95 	0.046204 	4913 	0.045489
40.97 	0.042851 	4924 	0.042613
40.99 	0.043258 	4924 	0.042663
41.01 	0.041531 	4912 	0.040815
41.03 	0.041794 	4905 	0.041316
41.05 	0.043355 	4936 	0.042762
41.07 	0.043408 	4930 	0.042932
41.09 	0.046366 	4939 	0.045279
41.11 	0.047011 	4935 	0.046418
41.13 	0.047204 	4936 	0.046967
41.15 	0.040478 	4941 	0.040122
41.17 	0.045197 	4934 	0.045078
41.19 	0.040568 	4930 	0.040449
41.21 	0.046992 	4937 	0.046043
41.23 	0.036850 	4939 	0.036494
41.25 	0.043381 	4933 	0.042788
41.27 	0.043805 	4931 	0.043329
41.29 	0.044440 	4928 	0.043846
41.31 	0.038719 	4933 	0.038600
41.33 	0.039700 	4937 	0.039107
41.35 	0.044755 	4938 	0.044280
41.37 	0.042445 	4924 	0.041969
41.39 	0.044800 	4933 	0.044207
41.41 	0.046285 	4926 	0.045690
41.43 	0.041996 	4929 	0.041521
41.45 	0.042328 	4914 	0.041732
41.47 	0.038774 	4926 	0.038298
41.49 	0.046402 	4892 	0.045923
41.51 	0.041903 	4940 	0.041310
41.53 	0.042678 	4944 	0.042086
41.55 	0.044377 	4935 	0.043427
41.57 	0.043513 	4941 	0.042328
41.59 	0.042165 	4933 	0.041334
41.61 	0.037755 	4953 	0.037518
41.63 	0.043742 	4938 	0.043387
41.65 	0.040576 	4929 	0.040101
41.67 	0.042105 	4940 	0.041750
41.69 	0.042854 	4947 	0.042381
41.71 	0.041346 	4934 	0.040990
41.73 	0.044773 	4936 	0.044061
41.75 	0.044228 	4929 	0.043515
41.77 	0.044323 	4941 	0.044086
41.79 	0.045712 	4944 	0.045120
41.81 	0.043760 	4936 	0.042811
41.83 	0.040787 	4928 	0.040431
41.85 	0.041506 	4939 	0.041032
41.87 	0.040729 	4935 	0.039899
41.89 	0.036692 	4933 	0.036217
41.91 	0.041734 	4936 	0.041378
41.93 	0.041971 	4932 	0.041377
41.95 	0.037721 	4931 	0.037127
41.97 	0.037037 	4914 	0.036441
41.99 	0.043833 	4905 	0.043355
42.01 	0.039053 	4942 	0.038460
42.03 	0.039887 	4939 	0.039531
42.05 	0.040186 	4952 	0.039358
42.07 	0.039295 	4937 	0.038801
42.09 	0.036783 	4948 	0.036309
42.11 	0.040243 	4945 	0.039276
42.13 	0.040445 	4945 	0.040090
42.15 	0.043945 	4938 	0.043589
42.17 	0.042497 	4918 	0.041544
42.19 	0.038916 	4908 	0.038916
42.21 	0.040808 	4901 	0.039852
42.23 	0.036795 	4892 	0.036555
42.25 	0.038249 	4889 	0.038129
42.27 	0.046163 	4874 	0.045562
42.29 	0.036603 	4863 	0.036242
42.31 	0.035633 	4855 	0.035151
42.33 	0.033719 	4834 	0.032992
42.35 	0.035759 	4838 	0.035395
42.37 	0.035818 	4830 	0.035575
42.39 	0.046003 	4804 	0.045394
42.41 	0.038301 	4804 	0.037916
42.43 	0.041319 	4792 	0.040585
42.45 	0.040620 	4776 	0.040129
42.47 	0.037146 	4765 	0.036777
42.49 	0.034208 	4765 	0.033839
42.51 	0.041324 	4743 	0.040830
42.53 	0.038071 	4728 	0.037575
42.55 	0.043543 	4708 	0.043170
42.57 	0.043763 	4730 	0.043763
42.59 	0.037217 	4729 	0.036722
42.61 	0.041206 	4708 	0.040833
42.63 	0.036526 	4709 	0.036277
42.65 	0.036499 	4685 	0.036124
42.67 	0.034372 	4684 	0.034247
42.69 	0.038083 	4674 	0.037456
42.71 	0.037529 	4663 	0.037404
42.73 	0.036207 	4640 	0.036081
42.75 	0.042235 	4617 	0.041728
42.77 	0.042826 	4600 	0.042317
42.79 	0.042994 	4582 	0.042866
42.81 	0.035072 	4562 	0.034944
42.83 	0.042549 	4536 	0.041515
42.85 	0.037544 	4528 	0.037027
42.87 	0.043343 	4499 	0.042562
42.89 	0.039955 	4480 	0.039563
42.91 	0.033438 	4456 	0.033175
42.93 	0.038911 	4446 	0.038516
42.95 	0.037364 	4416 	0.036834
42.97 	0.040673 	4401 	0.040406
42.99 	0.036944 	4385 	0.036276
43.01 	0.039881 	4363 	0.039478
43.03 	0.035772 	4333 	0.035502
43.05 	0.037919 	4325 	0.037377
43.07 	0.041899 	4296 	0.041627
43.09 	0.046696 	4283 	0.046559
43.11 	0.041833 	4255 	0.041558
43.13 	0.040595 	4237 	0.040042
43.15 	0.038279 	4206 	0.037861
43.17 	0.037090 	4179 	0.036810
43.19 	0.041249 	4194 	0.040970
43.21 	0.035954 	4172 	0.035533
43.23 	0.035388 	4154 	0.034824
43.25 	0.042805 	4135 	0.042097
43.27 	0.037759 	4105 	0.037616
43.29 	0.037561 	4100 	0.037275
43.31 	0.034812 	4079 	0.034238
43.33 	0.039003 	4051 	0.038280
43.35 	0.038690 	4032 	0.037964
43.37 	0.039352 	4015 	0.038623
43.39 	0.045977 	4002 	0.045392
43.41 	0.039023 	3972 	0.038728
43.43 	0.038131 	3960 	0.037540
43.45 	0.036086 	3935 	0.035491
43.47 	0.029839 	3921 	0.029367
43.49 	0.038491 	3897 	0.038040
43.51 	0.037142 	3877 	0.036387
43.53 	0.035206 	3863 	0.034751
43.55 	0.037112 	2964 	0.036519
43.57 	0.033959 	2238 	0.033697
43.59 	0.040664 	1746 	0.039993
43.61 	0.043671 	1351 	0.043671
43.63 	0.036963 	1001 	0.036963
43.65 	0.036390 	687 	0.036390
43.67 	0.037849 	502 	0.037849
43.69 	0.046322 	367 	0.046322
43.71 	0.016736 	239 	0.016736
43.73 	0.016667 	120 	0.016667
43.75 	0.000000 	16 	0.000000