File: Example_Data/25SC_s1_0002.008.dat
#F C:\frames\spec\25SC_s1_0002.008
#C title =s:2 frm:8 25SC_s1
#C wavelength =0.15406

#S 1  fr_average C:\frames\spec\25SC_s1_0002.008 C:\win32app\speccom\mask.axs chi 0 180 0 360 0.02
#C 2 theta =0.000000 to 180 deg
#C   q   =0.000000 to 81.568 nm^-1
#C  chi  =0.000000 to 360 deg
#C collumns:
#C  1 position (2theta or chi in degrees)
#C  2 average intensity (sum of all counts in the region divided with number of pixels)
#C  3 Number of pixels in region)
#C  4 error (sum of sqrt(intensity) for all pixels divided by number)
#N 4
#L TTh  Int  N_pix  Err
32.99 	0.065574 	61 	0.065574
33.01 	0.069874 	873 	0.068532
33.03 	0.077642 	1391 	0.075957
33.05 	0.063176 	1757 	0.062176
33.07 	0.071220 	2050 	0.070648
33.09 	0.073711 	2347 	0.072214
33.11 	0.067080 	2579 	0.065945
33.13 	0.079484 	2793 	0.078016
33.15 	0.074358 	2999 	0.072600
33.17 	0.066854 	3201 	0.064994
33.19 	0.068821 	3342 	0.067068
33.21 	0.064319 	3436 	0.062785
33.23 	0.071814 	3523 	0.069985
33.25 	0.067276 	3612 	0.066141
33.27 	0.076584 	3630 	0.074648
33.29 	0.076480 	3648 	0.074393
33.31 	0.069399 	3660 	0.067798
33.33 	0.072979 	3686 	0.071363
33.35 	0.069031 	3694 	0.067895
33.37 	0.067313 	3714 	0.065578
33.39 	0.070796 	3729 	0.069226
33.41 	0.071925 	3740 	0.070176
33.43 	0.074714 	3761 	0.072975
33.45 	0.073946 	3773 	0.072368
33.47 	0.071090 	3798 	0.069677
33.49 	0.068522 	3809 	0.066676
33.51 	0.066841 	3815 	0.065767
33.53 	0.072637 	3841 	0.071087
33.55 	0.064273 	3843 	0.063053
33.57 	0.063967 	3877 	0.062758
33.59 	0.071392 	3880 	0.069102
33.61 	0.081095 	3909 	0.079596
33.63 	0.071957 	3919 	0.070139
33.65 	0.070974 	3931 	0.069907
33.67 	0.081942 	3954 	0.079844
33.69 	0.065014 	3953 	0.063828
33.71 	0.076981 	3975 	0.075360
33.73 	0.061439 	4004 	0.059537
33.75 	0.068767 	3999 	0.067156
33.77 	0.067826 	4025 	0.065328
33.79 	0.077456 	4041 	0.075137
33.81 	0.073799 	4038 	0.073074
33.83 	0.069877 	4050 	0.068864
33.85 	0.075384 	4099 	0.073955
33.87 	0.072002 	4111 	0.070411
33.89 	0.067945 	4121 	0.066523
33.91 	0.069896 	4149 	0.068202
33.93 	0.066249 	4151 	0.065402
33.95 	0.065056 	4181 	0.063375
33.97 	0.068974 	4190 	0.068415
33.99 	0.072619 	4200 	0.071782
34.01 	0.070733 	4213 	0.068926
34.03 	0.073516 	4244 	0.072273
34.05 	0.071966 	4252 	0.070175
34.07 	0.080366 	4268 	0.077965
34.09 	0.071395 	4286 	0.069459
34.11 	0.070432 	4302 	0.069071
34.13 	0.072656 	4308 	0.070752
34.15 	0.074348 	4331 	0.072589
34.17 	0.069885 	4350 	0.068920
34.19 	0.071756 	4362 	0.069720
34.21 	0.071837 	4371 	0.069827
34.23 	0.062827 	4393 	0.062027
34.25 	0.074024 	4404 	0.072805
34.27 	0.082090 	4422 	0.081008
34.29 	0.070575 	4435 	0.069650
34.31 	0.065276 	4458 	0.064356
34.33 	0.070454 	4471 	0.069144
34.35 	0.072034 	4484 	0.070074
34.37 	0.073480 	4491 	0.071742
34.39 	0.070191 	4502 	0.068500
34.41 	0.069819 	4526 	0.068525
34.43 	0.064992 	4539 	0.063444
34.45 	0.076516 	4535 	0.075224
34.47 	0.071429 	4592 	0.069515
34.49 	0.075484 	4597 	0.073955
34.51 	0.070343 	4606 	0.069198
34.53 	0.072152 	4643 	0.070869
34.55 	0.079044 	4643 	0.077025
34.57 	0.073391 	4660 	0.071882
34.59 	0.066096 	4675 	0.065094
34.61 	0.076432 	4697 	0.074935
34.63 	0.071125 	4710 	0.069260
34.65 	0.073501 	4721 	0.072261
34.67 	0.072137 	4741 	0.070778
34.69 	0.078040 	4754 	0.076068
34.71 	0.065674 	4766 	0.064690
34.73 	0.069563 	4787 	0.068462
34.75 	0.072587 	4808 	0.071003
34.77 	0.067455 	4818 	0.065388
34.79 	0.070066 	4824 	0.068488
34.81 	0.070382 	4845 	0.069052
34.83 	0.067051 	4862 	0.065846
34.85 	0.069624 	4869 	0.068782
34.87 	0.066146 	4868 	0.064803
34.89 	0.072102 	4882 	0.069942
34.91 	0.075789 	4882 	0.074189
34.93 	0.074097 	4899 	0.072303
34.95 	0.073415 	4890 	0.071858
34.97 	0.072419 	4902 	0.070746
34.99 	0.074535 	4897 	0.073100
35.01 	0.074751 	4923 	0.072847
35.03 	0.068784 	4943 	0.067935
35.05 	0.072771 	4947 	0.071114
35.07 	0.068826 	4940 	0.066929
35.09 	0.073289 	4953 	0.071515
35.11 	0.072569 	4947 	0.071030
35.13 	0.070996 	4958 	0.069815
35.15 	0.062791 	4937 	0.061842
35.17 	0.077841 	4946 	0.076183
35.19 	0.058883 	4942 	0.057935
35.21 	0.073407 	4945 	0.072559
35.23 	0.075025 	4945 	0.074078
35.25 	0.073235 	4943 	0.071339
35.27 	0.072959 	4948 	0.071519
35.29 	0.076441 	4945 	0.074782
35.31 	0.070140 	4933 	0.068834
35.33 	0.071212 	4943 	0.069434
35.35 	0.072036 	4942 	0.070139
35.37 	0.074711 	4939 	0.073170
35.39 	0.069161 	4945 	0.068213
35.41 	0.074300 	4926 	0.072734
35.43 	0.076424 	4933 	0.075118
35.45 	0.073121 	4937 	0.072172
35.47 	0.071385 	4931 	0.069366
35.49 	0.067210 	4910 	0.065540
35.51 	0.077751 	4926 	0.076542
35.53 	0.071934 	4949 	0.070868
35.55 	0.069565 	4945 	0.068381
35.57 	0.068721 	4933 	0.067177
35.59 	0.068756 	4945 	0.067690
35.61 	0.073654 	4942 	0.070889
35.63 	0.073235 	4943 	0.071694
35.65 	0.072396 	4945 	0.070738
35.67 	0.072238 	4942 	0.070934
35.69 	0.074808 	4946 	0.073505
35.71 	0.072514 	4937 	0.071327
35.73 	0.064222 	4936 	0.063035
35.75 	0.081322 	4931 	0.079521
35.77 	0.069279 	4951 	0.067741
35.79 	0.069951 	4932 	0.068764
35.81 	0.066086 	4933 	0.064661
35.83 	0.078852 	4946 	0.077549
35.85 	0.067275 	4935 	0.065731
35.87 	0.078001 	4923 	0.075959
35.89 	0.072558 	4934 	0.070045
35.91 	0.069413 	4927 	0.068343
35.93 	0.076314 	4927 	0.074531
35.95 	0.073215 	4917 	0.071786
35.97 	0.074511 	4912 	0.072842
35.99 	0.076736 	4939 	0.075056
36.01 	0.072414 	4930 	0.071582
36.03 	0.079506 	4943 	0.077492
36.05 	0.077856 	4945 	0.075349
36.07 	0.071877 	4939 	0.070572
36.09 	0.076721 	4940 	0.074942
36.11 	0.070400 	4929 	0.069449
36.13 	0.080130 	4942 	0.078589
36.15 	0.067018 	4939 	0.066187
36.17 	0.075939 	4925 	0.074016
36.19 	0.076923 	4940 	0.075263
36.21 	0.073240 	4929 	0.071418
36.23 	0.076596 	4935 	0.075765
36.25 	0.069622 	4941 	0.068673
36.27 	0.069645 	4925 	0.068674
36.29 	0.068343 	4931 	0.066918
36.31 	0.066356 	4928 	0.064572
36.33 	0.075005 	4933 	0.072967
36.35 	0.068371 	4929 	0.066945
36.37 	0.067845 	4923 	0.065802
36.39 	0.070311 	4921 	0.069001
36.41 	0.072712 	4896 	0.071516
36.43 	0.078734 	4928 	0.077070
36.45 	0.069980 	4930 	0.068792
36.47 	0.070908 	4936 	0.069602
36.49 	0.072845 	4942 	0.071166
36.51 	0.069734 	4933 	0.067953
36.53 	0.061501 	4943 	0.060316
36.55 	0.069008 	4927 	0.067462
36.57 	0.078233 	4934 	0.076808
36.59 	0.062361 	4939 	0.061293
36.61 	0.068749 	4931 	0.067442
36.63 	0.073008 	4931 	0.071582
36.65 	0.064680 	4932 	0.063492
36.67 	0.072819 	4930 	0.071156
36.69 	0.071008 	4929 	0.069939
36.71 	0.067872 	4921 	0.066206
36.73 	0.070863 	4925 	0.069792
36.75 	0.069782 	4944 	0.068597
36.77 	0.065867 	4919 	0.064795
36.79 	0.068076 	4921 	0.066409
36.81 	0.067535 	4916 	0.066224
36.83 	0.062462 	4915 	0.061032
36.85 	0.064516 	4898 	0.063061
36.87 	0.069782 	4944 	0.068360
36.89 	0.066721 	4916 	0.065291
36.91 	0.072050 	4941 	0.070608
36.93 	0.062880 	4930 	0.061435
36.95 	0.071762 	4933 	0.070574
36.97 	0.067491 	4934 	0.066304
36.99 	0.079027 	4935 	0.076653
37.01 	0.070748 	4933 	0.069086
37.03 	0.070471 	4924 	0.069143
37.05 	0.067993 	4927 	0.066447
37.07 	0.064032 	4935 	0.062489
37.09 	0.074269 	4928 	0.073081
37.11 	0.068085 	4935 	0.066779
37.13 	0.072299 	4924 	0.070376
37.15 	0.069057 	4909 	0.067983
37.17 	0.069315 	4934 	0.068246
37.19 	0.064772 	4925 	0.063820
37.21 	0.068131 	4917 	0.067059
37.23 	0.062830 	4918 	0.061282
37.25 	0.067807 	4911 	0.066614
37.27 	0.070290 	4894 	0.068216
37.29 	0.073022 	4930 	0.071458
37.31 	0.067275 	4935 	0.065831
37.33 	0.067587 	4927 	0.066121
37.35 	0.068449 	4938 	0.067362
37.37 	0.062513 	4927 	0.061443
37.39 	0.065910 	4931 	0.064722
37.41 	0.064896 	4931 	0.063470
37.43 	0.064274 	4932 	0.063186
37.45 	0.068643 	4924 	0.067335
37.47 	0.066545 	4929 	0.065475
37.49 	0.067642 	4923 	0.066194
37.51 	0.066491 	4933 	0.065778
37.53 	0.071559 	4919 	0.070487
37.55 	0.067748 	4930 	0.066204
37.57 	0.063959 	4925 	0.063127
37.59 	0.059207 	4915 	0.057776
37.61 	0.066030 	4922 	0.065316
37.63 	0.069526 	4919 	0.068216
37.65 	0.066490 	4918 	0.065657
37.67 	0.066884 	4904 	0.065809
37.69 	0.074520 	4898 	0.072846
37.71 	0.066545 	4929 	0.065475
37.73 	0.068574 	4929 	0.067009
37.75 	0.066802 	4940 	0.065853
37.77 	0.063211 	4920 	0.062378
37.79 	0.066937 	4930 	0.065630
37.81 	0.059396 	4933 	0.058446
37.83 	0.065447 	4920 	0.064257
37.85 	0.063998 	4922 	0.062927
37.87 	0.066815 	4939 	0.066104
37.89 	0.063756 	4925 	0.062428
37.91 	0.061866 	4930 	0.060678
37.93 	0.067900 	4919 	0.066213
37.95 	0.066856 	4921 	0.066261
37.97 	0.065936 	4929 	0.064867
37.99 	0.071865 	4912 	0.070553
38.01 	0.067370 	4928 	0.066063
38.03 	0.069464 	4909 	0.068271
38.05 	0.064975 	4925 	0.064380
38.07 	0.064779 	4909 	0.063228
38.09 	0.070316 	4878 	0.069095
38.11 	0.065248 	4935 	0.064061
38.13 	0.067045 	4937 	0.065621
38.15 	0.067304 	4918 	0.065636
38.17 	0.069168 	4930 	0.067743
38.19 	0.070588 	4930 	0.068886
38.21 	0.069064 	4923 	0.067755
38.23 	0.061158 	4938 	0.060091
38.25 	0.068538 	4917 	0.067227
38.27 	0.068357 	4930 	0.066812
38.29 	0.071487 	4924 	0.069821
38.31 	0.071037 	4927 	0.069254
38.33 	0.071893 	4924 	0.070227
38.35 	0.067979 	4928 	0.066434
38.37 	0.078392 	4924 	0.076112
38.39 	0.072724 	4909 	0.071530
38.41 	0.070282 	4923 	0.069211
38.43 	0.078112 	4916 	0.076444
38.45 	0.070964 	4918 	0.069277
38.47 	0.069696 	4907 	0.068602
38.49 	0.075251 	4877 	0.072449
38.51 	0.079886 	4932 	0.077986
38.53 	0.083790 	4929 	0.081651
38.55 	0.077391 	4936 	0.076204
38.57 	0.083892 	4923 	0.082821
38.59 	0.074533 	4924 	0.072986
38.61 	0.069489 	4936 	0.067947
38.63 	0.074939 	4924 	0.073274
38.65 	0.073200 	4918 	0.071295
38.67 	0.068868 	4937 	0.067306
38.69 	0.070093 	4922 	0.069141
38.71 	0.068440 	4924 	0.066517
38.73 	0.075030 	4918 	0.073959
38.75 	0.071646 	4927 	0.070100
38.77 	0.067845 	4923 	0.066417
38.79 	0.070328 	4934 	0.069022
38.81 	0.065554 	4912 	0.064123
38.83 	0.063834 	4919 	0.062048
38.85 	0.062093 	4912 	0.061020
38.87 	0.068011 	4911 	0.066818
38.89 	0.065755 	4897 	0.064439
38.91 	0.065266 	4903 	0.064071
38.93 	0.064399 	4938 	0.062856
38.95 	0.061610 	4918 	0.060400
38.97 	0.066924 	4931 	0.065478
38.99 	0.064614 	4937 	0.063784
39.01 	0.064864 	4918 	0.063891
39.03 	0.062424 	4934 	0.061217
39.05 	0.062741 	4925 	0.061790
39.07 	0.067425 	4924 	0.066354
39.09 	0.063782 	4923 	0.062830
39.11 	0.062462 	4931 	0.061274
39.13 	0.061954 	4923 	0.060507
39.15 	0.066531 	4915 	0.064823
39.17 	0.062386 	4937 	0.061674
39.19 	0.057555 	4917 	0.056602
39.21 	0.064155 	4910 	0.063081
39.23 	0.071269 	4925 	0.070080
39.25 	0.064405 	4922 	0.063334
39.27 	0.068839 	4910 	0.067626
39.29 	0.066313 	4901 	0.065476
39.31 	0.061835 	4884 	0.061115
39.33 	0.060637 	4931 	0.059805
39.35 	0.062209 	4935 	0.061853
39.37 	0.059444 	4929 	0.058850
39.39 	0.060459 	4929 	0.059627
39.41 	0.052119 	4931 	0.051288
39.43 	0.063248 	4933 	0.062060
39.45 	0.064365 	4925 	0.062938
39.47 	0.062360 	4923 	0.061170
39.49 	0.061018 	4933 	0.059830
39.51 	0.063160 	4924 	0.062089
39.53 	0.060938 	4923 	0.059868
39.55 	0.058752 	4919 	0.057680
39.57 	0.060612 	4933 	0.058831
39.59 	0.061686 	4912 	0.060235
39.61 	0.066829 	4923 	0.064449
39.63 	0.056481 	4922 	0.055291
39.65 	0.065976 	4926 	0.064411
39.67 	0.070425 	4913 	0.069114
39.69 	0.057974 	4916 	0.057259
39.71 	0.058427 	4895 	0.057350
39.73 	0.066422 	4908 	0.065448
39.75 	0.065138 	4928 	0.063474
39.77 	0.069098 	4935 	0.068030
39.79 	0.057450 	4926 	0.056856
39.81 	0.063730 	4927 	0.062660
39.83 	0.069112 	4934 	0.068162
39.85 	0.063730 	4927 	0.062779
39.87 	0.057868 	4925 	0.056441
39.89 	0.060803 	4934 	0.059853
39.91 	0.063795 	4922 	0.062724
39.93 	0.065627 	4937 	0.064796
39.95 	0.057375 	4915 	0.056283
39.97 	0.063109 	4928 	0.061445
39.99 	0.064274 	4932 	0.062968
40.01 	0.059577 	4918 	0.058267
40.03 	0.067167 	4928 	0.065741
40.05 	0.067114 	4917 	0.064851
40.07 	0.060532 	4923 	0.059699
40.09 	0.063873 	4916 	0.062801
40.11 	0.060212 	4916 	0.059258
40.13 	0.057394 	4896 	0.056078
40.15 	0.058416 	4913 	0.057463
40.17 	0.065747 	4928 	0.064796
40.19 	0.062690 	4929 	0.061977
40.21 	0.064235 	4935 	0.062811
40.23 	0.055556 	4932 	0.054487
40.25 	0.059350 	4920 	0.058992
40.27 	0.061373 	4937 	0.060019
40.29 	0.058250 	4927 	0.057062
40.31 	0.059324 	4939 	0.057901
40.33 	0.061030 	4932 	0.059842
40.35 	0.060378 	4919 	0.059783
40.37 	0.061676 	4929 	0.060230
40.39 	0.061042 	4931 	0.060330
40.41 	0.053198 	4925 	0.052484
40.43 	0.061357 	4922 	0.060762
40.45 	0.057369 	4933 	0.056775
40.47 	0.062220 	4918 	0.061010
40.49 	0.063134 	4926 	0.062064
40.51 	0.062170 	4922 	0.061337
40.53 	0.053906 	4916 	0.052952
40.55 	0.062755 	4908 	0.061661
40.57 	0.062372 	4890 	0.060695
40.59 	0.062994 	4937 	0.061451
40.61 	0.056535 	4935 	0.055229
40.63 	0.056389 	4930 	0.055914
40.65 	0.055094 	4937 	0.053908
40.67 	0.053731 	4932 	0.053137
40.69 	0.058740 	4937 	0.058503
40.71 	0.053731 	4932 	0.053018
40.73 	0.056841 	4926 	0.055414
40.75 	0.057392 	4931 	0.056442
40.77 	0.057704 	4939 	0.056992
40.79 	0.058083 	4924 	0.057369
40.81 	0.062740 	4941 	0.061555
40.83 	0.060674 	4928 	0.060198
40.85 	0.058895 	4924 	0.057587
40.87 	0.054383 	4928 	0.053313
40.89 	0.055161 	4931 	0.053854
40.91 	0.061751 	4923 	0.060799
40.93 	0.060600 	4934 	0.059531
40.95 	0.059231 	4913 	0.058396
40.97 	0.056661 	4924 	0.055214
40.99 	0.061535 	4924 	0.060703
41.01 	0.064536 	4912 	0.063701
41.03 	0.060143 	4905 	0.059048
41.05 	0.065235 	4936 	0.063930
41.07 	0.067343 	4930 	0.066511
41.09 	0.062563 	4939 	0.060745
41.11 	0.062411 	4935 	0.061343
41.13 	0.058752 	4936 	0.057921
41.15 	0.059097 	4941 	0.058149
41.17 	0.060195 	4934 	0.059007
41.19 	0.063489 	4930 	0.062043
41.21 	0.056309 	4937 	0.055954
41.23 	0.059729 	4939 	0.059136
41.25 	0.057977 	4933 	0.056789
41.27 	0.060231 	4931 	0.059162
41.29 	0.055195 	4928 	0.054838
41.31 	0.058382 	4933 	0.057551
41.33 	0.062791 	4937 	0.061249
41.35 	0.059133 	4938 	0.058066
41.37 	0.057677 	4924 	0.056725
41.39 	0.055747 	4933 	0.055035
41.41 	0.062322 	4926 	0.061490
41.43 	0.062082 	4929 	0.061111
41.45 	0.060033 	4914 	0.059079
41.47 	0.053999 	4926 	0.053167
41.49 	0.059689 	4892 	0.059210
41.51 	0.054656 	4940 	0.053826
41.53 	0.063714 	4944 	0.062529
41.55 	0.056940 	4935 	0.056228
41.57 	0.055050 	4941 	0.053864
41.59 	0.062234 	4933 	0.061046
41.61 	0.061175 	4953 	0.059992
41.63 	0.054475 	4938 	0.053171
41.65 	0.063096 	4929 	0.060918
41.67 	0.059109 	4940 	0.058042
41.69 	0.062462 	4947 	0.060804
41.71 	0.056546 	4934 	0.055597
41.73 	0.060575 	4936 	0.059488
41.75 	0.057010 	4929 	0.056296
41.77 	0.060514 	4941 	0.059566
41.79 	0.053196 	4944 	0.052248
41.81 	0.050648 	4936 	0.050292
41.83 	0.054383 	4928 	0.053432
41.85 	0.055274 	4939 	0.054681
41.87 	0.052685 	4935 	0.051221
41.89 	0.055747 	4933 	0.055252
41.91 	0.057131 	4936 	0.056063
41.93 	0.052717 	4932 	0.051886
41.95 	0.054553 	4931 	0.053246
41.97 	0.062068 	4914 	0.060756
41.99 	0.064424 	4905 	0.063429
42.01 	0.054027 	4942 	0.053553
42.03 	0.052440 	4939 	0.051965
42.05 	0.053918 	4952 	0.053563
42.07 	0.048613 	4937 	0.047782
42.09 	0.054568 	4948 	0.053857
42.11 	0.056421 	4945 	0.055098
42.13 	0.059252 	4945 	0.059015
42.15 	0.057513 	4938 	0.056920
42.17 	0.058764 	4918 	0.058406
42.19 	0.056438 	4908 	0.055961
42.21 	0.054683 	4901 	0.053966
42.23 	0.055397 	4892 	0.054419
42.25 	0.049908 	4889 	0.048830
42.27 	0.054575 	4874 	0.053233
42.29 	0.060251 	4863 	0.059267
42.31 	0.052729 	4855 	0.052126
42.33 	0.057096 	4834 	0.056005
42.35 	0.051674 	4838 	0.051190
42.37 	0.048861 	4830 	0.048376
42.39 	0.048293 	4804 	0.047074
42.41 	0.056619 	4804 	0.056010
42.43 	0.049666 	4792 	0.049544
42.45 	0.054020 	4776 	0.053039
42.47 	0.056453 	4765 	0.055593
42.49 	0.055194 	4765 	0.054457
42.51 	0.058613 	4743 	0.057995
42.53 	0.052665 	4728 	0.052045
42.55 	0.049278 	4708 	0.048531
42.57 	0.055391 	4730 	0.054648
42.59 	0.053711 	4729 	0.052700
42.61 	0.057562 	4708 	0.056546
42.63 	0.053939 	4709 	0.053048
42.65 	0.055283 	4685 	0.054533
42.67 	0.055935 	4684 	0.055185
42.69 	0.054129 	4674 	0.053628
42.71 	0.059618 	4663 	0.058362
42.73 	0.053448 	4640 	0.052691
42.75 	0.051765 	4617 	0.050877
42.77 	0.057174 	4600 	0.056283
42.79 	0.054780 	4582 	0.053245
42.81 	0.054143 	4562 	0.053501
42.83 	0.054674 	4536 	0.053641
42.85 	0.051899 	4528 	0.051382
42.87 	0.049789 	4499 	0.049138
42.89 	0.049777 	4480 	0.049254
42.91 	0.054533 	4456 	0.054139
42.93 	0.048133 	4446 	0.047584
42.95 	0.050498 	4416 	0.049570
42.97 	0.050216 	4401 	0.048752
42.99 	0.052908 	4385 	0.052240
43.01 	0.053404 	4363 	0.053001
43.03 	0.053543 	4333 	0.052731
43.05 	0.050636 	4325 	0.050230
43.07 	0.051210 	4296 	0.050529
43.09 	0.052533 	4283 	0.051166
43.11 	0.056169 	4255 	0.055481
43.13 	0.056644 	4237 	0.054985
43.15 	0.051355 	4206 	0.050798
43.17 	0.062455 	4179 	0.060750
43.19 	0.056271 	4194 	0.055433
43.21 	0.057526 	4172 	0.056965
43.23 	0.056091 	4154 	0.054821
43.25 	0.050060 	4135 	0.049352
43.27 	0.048477 	4105 	0.048049
43.29 	0.050244 	4100 	0.049672
43.31 	0.050748 	4079 	0.050173
43.33 	0.053814 	4051 	0.052946
43.35 	0.052827 	4032 	0.052101
43.37 	0.052055 	4015 	0.050742
43.39 	0.050725 	4002 	0.049993
43.41 	0.055388 	3972 	0.054184
43.43 	0.051010 	3960 	0.050862
43.45 	0.052605 	3935 	0.051712
43.47 	0.049987 	3921 	0.049091
43.49 	0.052348 	3897 	0.051747
43.51 	0.055197 	3877 	0.053686
43.53 	0.054621 	3863 	0.053863
43.55 	0.048583 	2964 	0.047990
43.57 	0.056747 	2238 	0.055177
43.59 	0.047537 	1746 	0.047202
43.61 	0.040711 	1351 	0.040711
43.63 	0.048951 	1001 	0.048366
43.65 	0.045124 	687 	0.044271
43.67 	0.051793 	502 	0.051793
43.69 	0.049046 	367 	0.049046
43.71 	0.029289 	239 	0.029289
43.73 	0.100000 	120 	0.095118
43.75 	0.125000 	16 	0.125000