File: Example_Data/25SC_s1_0004.001.dat
#F C:\frames\spec\25SC_s1_0004.001
#C title =s:4 frm:1 25SC_s1
#C wavelength =0.15406

#S 1  fr_average C:\frames\spec\25SC_s1_0004.001 C:\win32app\speccom\mask.axs chi 0 180 0 360 0.02
#C 2 theta =0.000000 to 180 deg
#C   q   =0.000000 to 81.568 nm^-1
#C  chi  =0.000000 to 360 deg
#C collumns:
#C  1 position (2theta or chi in degrees)
#C  2 average intensity (sum of all counts in the region divided with number of pixels)
#C  3 Number of pixels in region)
#C  4 error (sum of sqrt(intensity) for all pixels divided by number)
#N 4
#L TTh  Int  N_pix  Err
32.99 	0.065574 	61 	0.065574
33.01 	0.063001 	873 	0.061659
33.03 	0.055356 	1391 	0.054023
33.05 	0.055777 	1757 	0.054110
33.07 	0.056585 	2050 	0.055728
33.09 	0.049851 	2347 	0.049601
33.11 	0.058162 	2579 	0.057481
33.13 	0.059076 	2793 	0.057608
33.15 	0.062021 	2999 	0.061044
33.17 	0.064980 	3201 	0.063882
33.19 	0.057451 	3342 	0.055669
33.21 	0.053842 	3436 	0.052989
33.23 	0.064150 	3523 	0.062986
33.25 	0.057863 	3612 	0.057214
33.27 	0.058402 	3630 	0.056788
33.29 	0.063322 	3648 	0.062332
33.31 	0.062295 	3660 	0.060535
33.33 	0.060499 	3686 	0.059069
33.35 	0.058202 	3694 	0.057251
33.37 	0.064890 	3714 	0.064259
33.39 	0.053634 	3729 	0.052691
33.41 	0.058556 	3740 	0.057773
33.43 	0.056102 	3761 	0.055012
33.45 	0.055129 	3773 	0.054663
33.47 	0.057135 	3798 	0.055876
33.49 	0.055133 	3809 	0.054825
33.51 	0.060550 	3815 	0.059911
33.53 	0.056756 	3841 	0.055841
33.55 	0.064533 	3843 	0.063313
33.57 	0.062935 	3877 	0.062331
33.59 	0.062113 	3880 	0.061057
33.61 	0.060885 	3909 	0.059986
33.63 	0.054861 	3919 	0.054413
33.65 	0.055202 	3931 	0.054755
33.67 	0.056399 	3954 	0.055806
33.69 	0.055148 	3953 	0.055148
33.71 	0.055346 	3975 	0.053553
33.73 	0.064935 	4004 	0.063033
33.75 	0.062266 	3999 	0.061656
33.77 	0.053168 	4025 	0.052294
33.79 	0.058154 	4041 	0.057284
33.81 	0.059931 	4038 	0.058335
33.83 	0.059259 	4050 	0.057789
33.85 	0.057575 	4099 	0.056860
33.87 	0.055947 	4111 	0.055235
33.89 	0.058238 	4121 	0.057504
33.91 	0.061702 	4149 	0.059866
33.93 	0.053963 	4151 	0.053116
33.95 	0.060273 	4181 	0.059712
33.97 	0.066826 	4190 	0.065568
33.99 	0.057619 	4200 	0.056341
34.01 	0.059815 	4213 	0.058703
34.03 	0.057729 	4244 	0.057038
34.05 	0.057150 	4252 	0.056185
34.07 	0.054827 	4268 	0.053591
34.09 	0.062296 	4286 	0.061066
34.11 	0.052766 	4302 	0.051813
34.13 	0.068477 	4308 	0.067253
34.15 	0.061649 	4331 	0.060680
34.17 	0.059770 	4350 	0.058423
34.19 	0.060752 	4362 	0.059656
34.21 	0.055822 	4371 	0.055286
34.23 	0.066242 	4393 	0.064908
34.25 	0.060627 	4404 	0.059696
34.27 	0.058345 	4422 	0.057396
34.29 	0.055017 	4435 	0.054357
34.31 	0.060117 	4458 	0.059460
34.33 	0.057705 	4471 	0.056526
34.35 	0.059099 	4484 	0.058054
34.37 	0.061234 	4491 	0.059756
34.39 	0.056864 	4502 	0.055823
34.41 	0.057667 	4526 	0.056890
34.43 	0.053756 	4539 	0.053111
34.45 	0.059316 	4535 	0.058003
34.47 	0.055096 	4592 	0.054309
34.49 	0.058516 	4597 	0.056987
34.51 	0.057968 	4606 	0.056802
34.53 	0.062460 	4643 	0.061576
34.55 	0.058367 	4643 	0.057484
34.57 	0.063305 	4660 	0.061293
34.59 	0.061390 	4675 	0.060263
34.61 	0.055567 	4697 	0.054819
34.63 	0.055626 	4710 	0.054258
34.65 	0.059098 	4721 	0.057857
34.67 	0.064754 	4741 	0.063519
34.69 	0.052587 	4754 	0.051478
34.71 	0.059379 	4766 	0.058519
34.73 	0.061625 	4787 	0.060157
34.75 	0.058028 	4808 	0.057054
34.77 	0.064134 	4818 	0.062240
34.79 	0.057214 	4824 	0.056607
34.81 	0.063983 	4845 	0.062654
34.83 	0.056561 	4862 	0.055356
34.85 	0.059355 	4869 	0.058513
34.87 	0.052177 	4868 	0.051315
34.89 	0.061245 	4882 	0.059686
34.91 	0.056739 	4882 	0.056259
34.93 	0.058175 	4899 	0.056501
34.95 	0.057055 	4890 	0.056336
34.97 	0.059976 	4902 	0.059020
34.99 	0.054319 	4897 	0.053362
35.01 	0.059720 	4923 	0.059125
35.03 	0.057657 	4943 	0.056946
35.05 	0.061856 	4947 	0.060672
35.07 	0.060121 	4940 	0.058798
35.09 	0.056733 	4953 	0.055669
35.11 	0.059228 	4947 	0.057688
35.13 	0.056071 	4958 	0.055480
35.15 	0.054689 	4937 	0.053977
35.17 	0.058835 	4946 	0.057533
35.19 	0.061311 	4942 	0.060244
35.21 	0.059454 	4945 	0.058625
35.23 	0.056421 	4945 	0.055354
35.25 	0.054623 	4943 	0.053319
35.27 	0.057397 	4948 	0.055976
35.29 	0.062487 	4945 	0.061066
35.31 	0.061829 	4933 	0.060879
35.33 	0.053409 	4943 	0.052698
35.35 	0.060299 	4942 	0.058996
35.37 	0.058109 	4939 	0.057397
35.39 	0.052174 	4945 	0.050970
35.41 	0.056435 	4926 	0.054870
35.43 	0.055544 	4933 	0.054594
35.45 	0.059348 	4937 	0.058873
35.47 	0.056986 	4931 	0.055680
35.49 	0.056823 	4910 	0.056226
35.51 	0.058668 	4926 	0.057598
35.53 	0.060214 	4949 	0.059267
35.55 	0.060465 	4945 	0.059636
35.57 	0.063045 	4933 	0.061976
35.59 	0.056016 	4945 	0.055068
35.61 	0.061109 	4942 	0.060161
35.63 	0.057455 	4943 	0.056388
35.65 	0.050152 	4945 	0.049796
35.67 	0.059085 	4942 	0.058374
35.69 	0.064497 	4946 	0.063194
35.71 	0.057930 	4937 	0.057574
35.73 	0.057131 	4936 	0.056301
35.75 	0.064490 	4931 	0.063164
35.77 	0.055140 	4951 	0.053721
35.79 	0.053122 	4932 	0.051935
35.81 	0.057166 	4933 	0.056216
35.83 	0.058835 	4946 	0.058006
35.85 	0.062817 	4935 	0.061392
35.87 	0.060329 	4923 	0.059139
35.89 	0.063640 	4934 	0.062690
35.91 	0.057439 	4927 	0.056369
35.93 	0.056221 	4927 	0.055507
35.95 	0.058979 	4917 	0.057788
35.97 	0.059446 	4912 	0.057876
35.99 	0.060539 	4939 	0.059214
36.01 	0.061866 	4930 	0.060797
36.03 	0.055837 	4943 	0.054888
36.05 	0.055410 	4945 	0.054699
36.07 	0.056894 	4939 	0.056282
36.09 	0.058704 	4940 	0.057400
36.11 	0.060256 	4929 	0.059899
36.13 	0.057669 	4942 	0.056583
36.15 	0.059729 	4939 	0.058780
36.17 	0.065381 	4925 	0.064667
36.19 	0.055668 	4940 	0.054719
36.21 	0.060459 	4929 	0.059508
36.23 	0.065856 	4935 	0.064194
36.25 	0.055252 	4941 	0.054778
36.27 	0.065381 	4925 	0.063815
36.29 	0.057189 	4931 	0.056358
36.31 	0.065341 	4928 	0.064152
36.33 	0.058585 	4933 	0.057635
36.35 	0.061473 	4929 	0.060166
36.37 	0.065001 	4923 	0.063930
36.39 	0.060963 	4921 	0.059773
36.41 	0.061479 	4896 	0.060163
36.43 	0.060268 	4928 	0.059674
36.45 	0.060041 	4930 	0.059090
36.47 	0.062399 	4936 	0.060856
36.49 	0.059288 	4942 	0.058102
36.51 	0.064261 	4933 	0.062955
36.53 	0.062513 	4943 	0.061328
36.55 	0.060077 	4927 	0.059126
36.57 	0.064045 	4934 	0.063333
36.59 	0.058716 	4939 	0.056918
36.61 	0.060434 	4931 	0.059008
36.63 	0.058406 	4931 	0.057099
36.65 	0.060219 	4932 	0.059031
36.67 	0.060243 	4930 	0.059530
36.69 	0.058835 	4929 	0.057885
36.71 	0.063199 	4921 	0.062127
36.73 	0.056650 	4925 	0.055579
36.75 	0.060275 	4944 	0.059525
36.77 	0.064851 	4919 	0.063541
36.79 	0.056899 	4921 	0.056185
36.81 	0.061635 	4916 	0.060682
36.83 	0.069990 	4915 	0.068401
36.85 	0.062270 	4898 	0.061194
36.87 	0.062702 	4944 	0.061517
36.89 	0.060618 	4916 	0.059784
36.91 	0.065371 	4941 	0.063949
36.93 	0.063895 	4930 	0.062231
36.95 	0.065477 	4933 	0.064527
36.97 	0.055533 	4934 	0.054583
36.99 	0.059372 	4935 	0.057710
37.01 	0.060815 	4933 	0.059746
37.03 	0.060723 	4924 	0.059890
37.05 	0.064542 	4927 	0.063353
37.07 	0.059980 	4935 	0.059149
37.09 	0.067167 	4928 	0.066454
37.11 	0.059777 	4935 	0.058709
37.13 	0.063769 	4924 	0.062560
37.15 	0.063760 	4909 	0.062906
37.17 	0.057560 	4934 	0.056610
37.19 	0.062132 	4925 	0.061180
37.21 	0.058572 	4917 	0.057123
37.23 	0.059374 	4918 	0.057587
37.25 	0.053553 	4911 	0.053076
37.27 	0.055783 	4894 	0.055064
37.29 	0.057404 	4930 	0.056215
37.31 	0.065248 	4935 	0.064536
37.33 	0.054191 	4927 	0.053121
37.35 	0.056096 	4938 	0.055028
37.37 	0.056424 	4927 	0.055829
37.39 	0.053539 	4931 	0.052470
37.41 	0.057392 	4931 	0.056798
37.43 	0.051703 	4932 	0.050634
37.45 	0.059708 	4924 	0.058875
37.47 	0.062690 	4929 	0.061245
37.49 	0.061548 	4923 	0.060834
37.51 	0.059193 	4933 	0.057768
37.53 	0.056922 	4919 	0.056565
37.55 	0.051116 	4930 	0.050522
37.57 	0.056447 	4925 	0.055257
37.59 	0.051475 	4915 	0.050283
37.61 	0.055059 	4922 	0.053849
37.63 	0.053466 	4919 	0.052275
37.65 	0.059374 	4918 	0.058659
37.67 	0.055261 	4904 	0.054305
37.69 	0.052470 	4898 	0.051514
37.71 	0.059850 	4929 	0.059374
37.73 	0.062690 	4929 	0.060908
37.75 	0.054049 	4940 	0.052981
37.77 	0.064228 	4920 	0.062422
37.79 	0.052333 	4930 	0.051739
37.81 	0.054125 	4933 	0.053037
37.83 	0.063008 	4920 	0.061818
37.85 	0.057294 	4922 	0.056104
37.87 	0.049808 	4939 	0.049333
37.89 	0.059898 	4925 	0.059185
37.91 	0.052941 	4930 	0.051347
37.93 	0.052653 	4919 	0.051700
37.95 	0.047551 	4921 	0.046361
37.97 	0.057821 	4929 	0.056989
37.99 	0.052932 	4912 	0.051978
38.01 	0.056006 	4928 	0.055293
38.03 	0.055612 	4909 	0.054538
38.05 	0.058680 	4925 	0.057967
38.07 	0.053168 	4909 	0.052810
38.09 	0.062731 	4878 	0.061530
38.11 	0.055522 	4935 	0.054810
38.13 	0.060563 	4937 	0.059832
38.15 	0.055510 	4918 	0.054677
38.17 	0.049087 	4930 	0.047642
38.19 	0.050101 	4930 	0.049626
38.21 	0.057688 	4923 	0.057093
38.23 	0.051640 	4938 	0.050929
38.25 	0.061826 	4917 	0.060635
38.27 	0.061055 	4930 	0.059391
38.29 	0.065191 	4924 	0.063644
38.31 	0.062919 	4927 	0.061849
38.33 	0.058895 	4924 	0.057349
38.35 	0.058644 	4928 	0.057456
38.37 	0.067831 	4924 	0.066503
38.39 	0.069668 	4909 	0.068216
38.41 	0.068860 	4923 	0.067076
38.43 	0.074044 	4916 	0.072495
38.45 	0.071370 	4918 	0.069445
38.47 	0.073568 	4907 	0.071181
38.49 	0.080172 	4877 	0.078371
38.51 	0.080495 	4932 	0.079188
38.53 	0.070603 	4929 	0.069295
38.55 	0.077796 	4936 	0.075660
38.57 	0.070485 	4923 	0.068542
38.59 	0.080422 	4924 	0.078400
38.61 	0.071515 	4936 	0.069973
38.63 	0.074330 	4924 	0.073021
38.65 	0.073200 	4918 	0.072605
38.67 	0.074134 	4937 	0.072710
38.69 	0.071312 	4922 	0.070003
38.71 	0.062957 	4924 	0.061648
38.73 	0.068727 	4918 	0.067417
38.75 	0.057642 	4927 	0.056572
38.77 	0.068860 	4923 	0.067433
38.79 	0.058573 	4934 	0.057861
38.81 	0.056596 	4912 	0.055642
38.83 	0.056922 	4919 	0.055969
38.85 	0.062500 	4912 	0.062142
38.87 	0.050703 	4911 	0.049987
38.89 	0.053502 	4897 	0.052665
38.91 	0.046706 	4903 	0.046348
38.93 	0.054070 	4938 	0.053240
38.95 	0.053680 	4918 	0.052470
38.97 	0.048063 	4931 	0.047826
38.99 	0.050030 	4937 	0.049081
39.01 	0.045954 	4918 	0.045358
39.03 	0.050872 	4934 	0.050159
39.05 	0.052183 	4925 	0.051112
39.07 	0.046710 	4924 	0.045758
39.09 	0.045094 	4923 	0.044618
39.11 	0.047658 	4931 	0.047420
39.13 	0.048345 	4923 	0.047750
39.15 	0.049034 	4915 	0.048199
39.17 	0.050435 	4937 	0.049724
39.19 	0.047387 	4917 	0.046553
39.21 	0.047047 	4910 	0.046092
39.23 	0.047716 	4925 	0.046645
39.25 	0.046932 	4922 	0.045861
39.27 	0.050306 	4910 	0.049590
39.29 	0.042644 	4901 	0.042525
39.31 	0.044431 	4884 	0.043831
39.33 	0.048063 	4931 	0.046994
39.35 	0.045795 	4935 	0.044846
39.37 	0.048286 	4929 	0.047078
39.39 	0.045648 	4929 	0.044935
39.41 	0.043805 	4931 	0.043092
39.43 	0.044395 	4933 	0.044039
39.45 	0.047513 	4925 	0.047156
39.47 	0.049360 	4923 	0.048646
39.49 	0.044395 	4933 	0.043782
39.51 	0.046304 	4924 	0.045947
39.53 	0.045704 	4923 	0.045704
39.55 	0.048587 	4919 	0.047992
39.57 	0.045611 	4933 	0.045017
39.59 	0.049267 	4912 	0.048552
39.61 	0.045094 	4923 	0.044143
39.63 	0.046932 	4922 	0.046337
39.65 	0.047503 	4926 	0.047265
39.67 	0.051089 	4913 	0.050254
39.69 	0.046583 	4916 	0.046106
39.71 	0.043922 	4895 	0.042965
39.73 	0.044825 	4908 	0.044347
39.75 	0.040787 	4928 	0.040193
39.77 	0.053698 	4935 	0.052986
39.79 	0.051969 	4926 	0.051117
39.81 	0.045667 	4927 	0.045548
39.83 	0.041346 	4934 	0.041108
39.85 	0.046073 	4927 	0.045478
39.87 	0.041624 	4925 	0.041268
39.89 	0.048642 	4934 	0.047455
39.91 	0.043072 	4922 	0.042358
39.93 	0.043144 	4937 	0.042550
39.95 	0.046796 	4915 	0.046557
39.97 	0.043831 	4928 	0.043356
39.99 	0.042579 	4932 	0.041985
40.01 	0.039854 	4918 	0.039020
40.03 	0.045049 	4928 	0.044454
40.05 	0.043929 	4917 	0.043453
40.07 	0.045094 	4923 	0.044262
40.09 	0.040683 	4916 	0.040326
40.11 	0.046176 	4916 	0.045937
40.13 	0.040645 	4896 	0.039808
40.15 	0.044169 	4913 	0.043434
40.17 	0.045860 	4928 	0.045028
40.19 	0.036924 	4929 	0.036687
40.21 	0.040324 	4935 	0.039612
40.23 	0.043187 	4932 	0.042593
40.25 	0.040041 	4920 	0.039564
40.27 	0.046790 	4937 	0.046078
40.29 	0.048102 	4927 	0.047508
40.31 	0.045556 	4939 	0.044963
40.33 	0.039740 	4932 	0.039384
40.35 	0.045131 	4919 	0.044655
40.37 	0.041996 	4929 	0.041026
40.39 	0.046441 	4931 	0.045728
40.41 	0.048731 	4925 	0.048136
40.43 	0.041040 	4922 	0.040445
40.45 	0.042570 	4933 	0.041977
40.47 	0.039650 	4918 	0.039174
40.49 	0.041819 	4926 	0.041224
40.51 	0.042462 	4922 	0.042105
40.53 	0.044142 	4916 	0.043546
40.55 	0.045436 	4908 	0.044720
40.57 	0.038241 	4890 	0.038122
40.59 	0.047802 	4937 	0.047328
40.61 	0.043566 	4935 	0.043092
40.63 	0.041582 	4930 	0.040869
40.65 	0.045169 	4937 	0.044200
40.67 	0.045418 	4932 	0.045180
40.69 	0.041928 	4937 	0.041454
40.71 	0.037713 	4932 	0.037119
40.73 	0.043849 	4926 	0.043373
40.75 	0.047455 	4931 	0.047098
40.77 	0.045556 	4939 	0.045319
40.79 	0.044070 	4924 	0.043951
40.81 	0.043109 	4941 	0.042634
40.83 	0.046672 	4928 	0.046197
40.85 	0.044679 	4924 	0.043965
40.87 	0.038149 	4928 	0.037793
40.89 	0.044818 	4931 	0.043987
40.91 	0.042454 	4923 	0.041978
40.93 	0.043170 	4934 	0.042576
40.95 	0.043761 	4913 	0.042927
40.97 	0.040008 	4924 	0.039532
40.99 	0.043054 	4924 	0.042321
41.01 	0.046417 	4912 	0.045344
41.03 	0.042610 	4905 	0.042610
41.05 	0.046394 	4936 	0.045800
41.07 	0.040974 	4930 	0.040380
41.09 	0.042519 	4939 	0.042044
41.11 	0.043364 	4935 	0.042513
41.13 	0.043152 	4936 	0.042440
41.15 	0.042299 	4941 	0.041706
41.17 	0.041143 	4934 	0.040906
41.19 	0.046045 	4930 	0.045213
41.21 	0.043549 	4937 	0.042362
41.23 	0.043531 	4939 	0.043057
41.25 	0.044192 	4933 	0.043242
41.27 	0.048672 	4931 	0.047721
41.29 	0.041193 	4928 	0.040718
41.31 	0.036084 	4933 	0.035965
41.33 	0.041928 	4937 	0.041572
41.35 	0.040097 	4938 	0.039385
41.37 	0.044070 	4924 	0.043594
41.39 	0.044192 	4933 	0.043698
41.41 	0.050751 	4926 	0.049523
41.43 	0.042199 	4929 	0.041724
41.45 	0.043142 	4914 	0.042665
41.47 	0.046488 	4926 	0.046131
41.49 	0.039452 	4892 	0.039332
41.51 	0.045951 	4940 	0.045240
41.53 	0.039442 	4944 	0.038731
41.55 	0.039919 	4935 	0.039207
41.57 	0.045133 	4941 	0.044658
41.59 	0.040949 	4933 	0.040117
41.61 	0.039774 	4953 	0.039064
41.63 	0.044350 	4938 	0.043875
41.65 	0.037939 	4929 	0.037345
41.67 	0.045547 	4940 	0.045072
41.69 	0.048514 	4947 	0.047567
41.71 	0.039927 	4934 	0.038859
41.73 	0.043355 	4936 	0.042762
41.75 	0.043214 	4929 	0.042976
41.77 	0.041085 	4941 	0.040492
41.79 	0.044498 	4944 	0.044024
41.81 	0.037885 	4936 	0.037292
41.83 	0.040179 	4928 	0.040060
41.85 	0.039482 	4939 	0.038533
41.87 	0.038298 	4935 	0.037942
41.89 	0.043381 	4933 	0.042788
41.91 	0.045989 	4936 	0.045514
41.93 	0.038929 	4932 	0.038573
41.95 	0.041777 	4931 	0.041658
41.97 	0.041107 	4914 	0.040392
41.99 	0.046687 	4905 	0.045851
42.01 	0.038648 	4942 	0.038293
42.03 	0.041101 	4939 	0.040983
42.05 	0.041801 	4952 	0.040973
42.07 	0.044359 	4937 	0.043884
42.09 	0.037793 	4948 	0.037083
42.11 	0.045096 	4945 	0.044741
42.13 	0.043883 	4945 	0.043409
42.15 	0.037465 	4938 	0.036852
42.17 	0.039244 	4918 	0.038271
42.19 	0.038305 	4908 	0.037350
42.21 	0.038360 	4901 	0.037881
42.23 	0.043132 	4892 	0.042533
42.25 	0.036817 	4889 	0.036098
42.27 	0.037136 	4874 	0.036535
42.29 	0.040716 	4863 	0.040595
42.31 	0.038929 	4855 	0.038567
42.33 	0.041167 	4834 	0.040197
42.35 	0.042373 	4838 	0.042010
42.37 	0.039959 	4830 	0.039473
42.39 	0.044963 	4804 	0.044231
42.41 	0.041632 	4804 	0.041144
42.43 	0.040275 	4792 	0.040031
42.45 	0.041248 	4776 	0.040267
42.47 	0.040294 	4765 	0.039556
42.49 	0.039454 	4765 	0.039086
42.51 	0.044487 	4743 	0.043499
42.53 	0.036379 	4728 	0.036255
42.55 	0.037383 	4708 	0.037134
42.57 	0.039746 	4730 	0.039622
42.59 	0.037640 	4729 	0.037145
42.61 	0.041844 	4708 	0.041470
42.63 	0.040348 	4709 	0.039851
42.65 	0.036713 	4685 	0.036588
42.67 	0.037575 	4684 	0.037200
42.69 	0.040223 	4674 	0.039345
42.71 	0.040532 	4663 	0.039883
42.73 	0.043103 	4640 	0.042598
42.75 	0.040719 	4617 	0.040338
42.77 	0.038261 	4600 	0.037751
42.79 	0.036447 	4582 	0.035552
42.81 	0.039237 	4562 	0.038980
42.83 	0.037037 	4536 	0.036391
42.85 	0.037544 	4528 	0.036639
42.87 	0.036675 	4499 	0.036675
42.89 	0.035268 	4480 	0.035006
42.91 	0.033662 	4456 	0.033531
42.93 	0.037112 	4446 	0.036849
42.95 	0.036232 	4416 	0.036232
42.97 	0.035901 	4401 	0.035635
42.99 	0.042189 	4385 	0.041789
43.01 	0.034380 	4363 	0.034246
43.03 	0.033003 	4333 	0.032867
43.05 	0.033064 	4325 	0.032657
43.07 	0.038408 	4296 	0.037862
43.09 	0.037590 	4283 	0.037180
43.11 	0.040423 	4255 	0.039574
43.13 	0.037527 	4237 	0.037250
43.15 	0.032335 	4206 	0.031917
43.17 	0.036612 	4179 	0.036051
43.19 	0.040057 	4194 	0.039638
43.21 	0.036433 	4172 	0.036012
43.23 	0.032740 	4154 	0.032740
43.25 	0.039178 	4135 	0.038328
43.27 	0.041413 	4105 	0.040985
43.29 	0.039512 	4100 	0.039084
43.31 	0.038245 	4079 	0.037670
43.33 	0.037768 	4051 	0.037045
43.35 	0.035962 	4032 	0.035817
43.37 	0.039851 	4015 	0.039559
43.39 	0.034233 	4002 	0.033940
43.41 	0.033484 	3972 	0.032894
43.43 	0.037374 	3960 	0.036930
43.45 	0.042186 	3935 	0.042037
43.47 	0.039276 	3921 	0.039276
43.49 	0.036438 	3897 	0.035536
43.51 	0.041527 	3877 	0.041376
43.53 	0.036759 	3863 	0.036001
43.55 	0.035088 	2964 	0.034890
43.57 	0.039321 	2238 	0.039321
43.59 	0.034364 	1746 	0.034364
43.61 	0.043671 	1351 	0.043238
43.63 	0.037962 	1001 	0.037377
43.65 	0.033479 	687 	0.032626
43.67 	0.037849 	502 	0.035515
43.69 	0.021798 	367 	0.021798
43.71 	0.029289 	239 	0.029289
43.73 	0.033333 	120 	0.033333
43.75 	0.062500 	16 	0.062500