File: Example_Data/25SC_s1_0006.004.dat
#F C:\frames\spec\25SC_s1_0006.004
#C title =s:6 frm:4 25SC_s1
#C wavelength =0.15406

#S 1  fr_average C:\frames\spec\25SC_s1_0006.004 C:\win32app\speccom\mask.axs chi 0 180 0 360 0.02
#C 2 theta =0.000000 to 180 deg
#C   q   =0.000000 to 81.568 nm^-1
#C  chi  =0.000000 to 360 deg
#C collumns:
#C  1 position (2theta or chi in degrees)
#C  2 average intensity (sum of all counts in the region divided with number of pixels)
#C  3 Number of pixels in region)
#C  4 error (sum of sqrt(intensity) for all pixels divided by number)
#N 4
#L TTh  Int  N_pix  Err
32.99 	0.049180 	61 	0.049180
33.01 	0.064147 	873 	0.063476
33.03 	0.062545 	1391 	0.060018
33.05 	0.054069 	1757 	0.053403
33.07 	0.061463 	2050 	0.060559
33.09 	0.051981 	2347 	0.050983
33.11 	0.046917 	2579 	0.045782
33.13 	0.059792 	2793 	0.058953
33.15 	0.066689 	2999 	0.066298
33.17 	0.052171 	3201 	0.051622
33.19 	0.058947 	3342 	0.058421
33.21 	0.067520 	3436 	0.066668
33.23 	0.059041 	3523 	0.058182
33.25 	0.065338 	3612 	0.064689
33.27 	0.053719 	3630 	0.052240
33.29 	0.055921 	3648 	0.054289
33.31 	0.061202 	3660 	0.060082
33.33 	0.056158 	3686 	0.054358
33.35 	0.061992 	3694 	0.061358
33.37 	0.051427 	3714 	0.050323
33.39 	0.060338 	3729 	0.059395
33.41 	0.058021 	3740 	0.056925
33.43 	0.057166 	3761 	0.056075
33.45 	0.058044 	3773 	0.057423
33.47 	0.052133 	3798 	0.051670
33.49 	0.056970 	3809 	0.056048
33.51 	0.050590 	3815 	0.049668
33.53 	0.055975 	3841 	0.054602
33.55 	0.053344 	3843 	0.052277
33.57 	0.059582 	3877 	0.058373
33.59 	0.068557 	3880 	0.066745
33.61 	0.058071 	3909 	0.057022
33.63 	0.059454 	3919 	0.059006
33.65 	0.059527 	3931 	0.058037
33.67 	0.055893 	3954 	0.055152
33.69 	0.062484 	3953 	0.061299
33.71 	0.067925 	3975 	0.066746
33.73 	0.063437 	4004 	0.062559
33.75 	0.064266 	3999 	0.062948
33.77 	0.064596 	4025 	0.063578
33.79 	0.057659 	4041 	0.056644
33.81 	0.066617 	4038 	0.065602
33.83 	0.058025 	4050 	0.056868
33.85 	0.061722 	4099 	0.060293
33.87 	0.060812 	4111 	0.059245
33.89 	0.066489 	4121 	0.065494
33.91 	0.058809 	4149 	0.058103
33.93 	0.063117 	4151 	0.062129
33.95 	0.054532 	4181 	0.053972
33.97 	0.057518 	4190 	0.056539
33.99 	0.056190 	4200 	0.055912
34.01 	0.051033 	4213 	0.050337
34.03 	0.056079 	4244 	0.055527
34.05 	0.062088 	4252 	0.061400
34.07 	0.065136 	4268 	0.064175
34.09 	0.060196 	4286 	0.059103
34.11 	0.058810 	4302 	0.058401
34.13 	0.060353 	4308 	0.059673
34.15 	0.054722 	4331 	0.054181
34.17 	0.063678 	4350 	0.062601
34.19 	0.054333 	4362 	0.053124
34.21 	0.064745 	4371 	0.063941
34.23 	0.057819 	4393 	0.056886
34.25 	0.055631 	4404 	0.054434
34.27 	0.059701 	4422 	0.059017
34.29 	0.056144 	4435 	0.054956
34.31 	0.063033 	4458 	0.062376
34.33 	0.058600 	4471 	0.057945
34.35 	0.058430 	4484 	0.057646
34.37 	0.057894 	4491 	0.056981
34.39 	0.062861 	4502 	0.061560
34.41 	0.060097 	4526 	0.059450
34.43 	0.060586 	4539 	0.059941
34.45 	0.061522 	4535 	0.060746
34.47 	0.060976 	4592 	0.059700
34.49 	0.066783 	4597 	0.065466
34.51 	0.067521 	4606 	0.066503
34.53 	0.057506 	4643 	0.056623
34.55 	0.062029 	4643 	0.060084
34.57 	0.065880 	4660 	0.065000
34.59 	0.062888 	4675 	0.061885
34.61 	0.055567 	4697 	0.054570
34.63 	0.064331 	4710 	0.062839
34.65 	0.059945 	4721 	0.058580
34.67 	0.056317 	4741 	0.055452
34.69 	0.057846 	4754 	0.056860
34.71 	0.056861 	4766 	0.056369
34.73 	0.064132 	4787 	0.063031
34.75 	0.060940 	4808 	0.059234
34.77 	0.057700 	4818 	0.057214
34.79 	0.058872 	4824 	0.058265
34.81 	0.065015 	4845 	0.064169
34.83 	0.071164 	4862 	0.069236
34.85 	0.056891 	4869 	0.055928
34.87 	0.057313 	4868 	0.056451
34.89 	0.061245 	4882 	0.060046
34.91 	0.056329 	4882 	0.055489
34.93 	0.059400 	4899 	0.057965
34.95 	0.058282 	4890 	0.057084
34.97 	0.064871 	4902 	0.064035
34.99 	0.057382 	4897 	0.056047
35.01 	0.062563 	4923 	0.061235
35.03 	0.069796 	4943 	0.068255
35.05 	0.066505 	4947 	0.065420
35.07 	0.057692 	4940 	0.056981
35.09 	0.061377 	4953 	0.060530
35.11 	0.056600 	4947 	0.056008
35.13 	0.056071 	4958 	0.055244
35.15 	0.056917 	4937 	0.055948
35.17 	0.064699 	4946 	0.063969
35.19 	0.061311 	4942 	0.060481
35.21 	0.066532 	4945 	0.065466
35.23 	0.061881 	4945 	0.060696
35.25 	0.057657 	4943 	0.056571
35.27 	0.061439 	4948 	0.060729
35.29 	0.055612 	4945 	0.054664
35.31 	0.060409 	4933 	0.059341
35.33 	0.062310 	4943 	0.061362
35.35 	0.062323 	4942 	0.061612
35.37 	0.058311 	4939 	0.057244
35.39 	0.061274 	4945 	0.060326
35.41 	0.064758 	4926 	0.063807
35.43 	0.057977 	4933 	0.056908
35.45 	0.063601 	4937 	0.062889
35.47 	0.064084 	4931 	0.063015
35.49 	0.058859 	4910 	0.058502
35.51 	0.059074 	4926 	0.057647
35.53 	0.062437 	4949 	0.061490
35.55 	0.062892 	4945 	0.061352
35.57 	0.056355 	4933 	0.055405
35.59 	0.058241 	4945 	0.056938
35.61 	0.059895 	4942 	0.058828
35.63 	0.060085 	4943 	0.059137
35.65 	0.056421 	4945 	0.055828
35.67 	0.062728 	4942 	0.061286
35.69 	0.061868 	4946 	0.060802
35.71 	0.055297 	4937 	0.054585
35.73 	0.059360 	4936 	0.058885
35.75 	0.059623 	4931 	0.058415
35.77 	0.059786 	4951 	0.058721
35.79 	0.057380 	4932 	0.056549
35.81 	0.061829 	4933 	0.061354
35.83 	0.061868 	4946 	0.060921
35.85 	0.056535 	4935 	0.055467
35.87 	0.064392 	4923 	0.063083
35.89 	0.061005 	4934 	0.060055
35.91 	0.065760 	4927 	0.064928
35.93 	0.060686 	4927 	0.059497
35.95 	0.057759 	4917 	0.057163
35.97 	0.059039 	4912 	0.058204
35.99 	0.058514 	4939 	0.057328
36.01 	0.062880 	4930 	0.060960
36.03 	0.049970 	4943 	0.049733
36.05 	0.061476 	4945 	0.060647
36.07 	0.062766 	4939 	0.061323
36.09 	0.065789 	4940 	0.063991
36.11 	0.063096 	4929 	0.061294
36.13 	0.064549 	4942 	0.063601
36.15 	0.055274 	4939 	0.054207
36.17 	0.063756 	4925 	0.062329
36.19 	0.062955 	4940 	0.061394
36.21 	0.055184 	4929 	0.054233
36.23 	0.063830 	4935 	0.062761
36.25 	0.062133 	4941 	0.061540
36.27 	0.061117 	4925 	0.060403
36.29 	0.061448 	4931 	0.060260
36.31 	0.058036 	4928 	0.057085
36.33 	0.066086 	4933 	0.064423
36.35 	0.052343 	4929 	0.050561
36.37 	0.058095 	4923 	0.056667
36.39 	0.056086 	4921 	0.055253
36.41 	0.063725 	4896 	0.062649
36.43 	0.060065 	4928 	0.058976
36.45 	0.064909 	4930 	0.064315
36.47 	0.058955 	4936 	0.057412
36.49 	0.059895 	4942 	0.058709
36.51 	0.065072 	4933 	0.063409
36.53 	0.058264 	4943 	0.057553
36.55 	0.055815 	4927 	0.054369
36.57 	0.057154 	4934 	0.056680
36.59 	0.066410 	4939 	0.064256
36.61 	0.059217 	4931 	0.058742
36.63 	0.061042 	4931 	0.060448
36.65 	0.063463 	4932 	0.061900
36.67 	0.057606 	4930 	0.056894
36.69 	0.064719 	4929 	0.063531
36.71 	0.055883 	4921 	0.055288
36.73 	0.061523 	4925 	0.060314
36.75 	0.057039 	4944 	0.055104
36.77 	0.059972 	4919 	0.058900
36.79 	0.059134 	4921 	0.057686
36.81 	0.061025 	4916 	0.059714
36.83 	0.064090 	4915 	0.062898
36.85 	0.054716 	4898 	0.053879
36.87 	0.053196 	4944 	0.051774
36.89 	0.065907 	4916 	0.064477
36.91 	0.060716 	4941 	0.059412
36.93 	0.056795 	4930 	0.055845
36.95 	0.063856 	4933 	0.062668
36.97 	0.060803 	4934 	0.060090
36.99 	0.061601 	4935 	0.059801
37.01 	0.059396 	4933 	0.058565
37.03 	0.058895 	4924 	0.057825
37.05 	0.052567 	4927 	0.051973
37.07 	0.066667 	4935 	0.064767
37.09 	0.059253 	4928 	0.057470
37.11 	0.057953 	4935 	0.057360
37.13 	0.055849 	4924 	0.054778
37.15 	0.058260 	4909 	0.056451
37.17 	0.061005 	4934 	0.060412
37.19 	0.052995 	4925 	0.052281
37.21 	0.055318 	4917 	0.053889
37.23 	0.058560 	4918 	0.058322
37.25 	0.061495 	4911 	0.060044
37.27 	0.053331 	4894 	0.052493
37.29 	0.055984 	4930 	0.054796
37.31 	0.059777 	4935 	0.058353
37.33 	0.056018 	4927 	0.055661
37.35 	0.057311 	4938 	0.056599
37.37 	0.058453 	4927 	0.057859
37.39 	0.056581 	4931 	0.055512
37.41 	0.058406 	4931 	0.056980
37.43 	0.056975 	4932 	0.055787
37.45 	0.058489 	4924 	0.057656
37.47 	0.055792 	4929 	0.054941
37.49 	0.055860 	4923 	0.054908
37.51 	0.055950 	4933 	0.054505
37.53 	0.049604 	4919 	0.048770
37.55 	0.050507 	4930 	0.049913
37.57 	0.057665 	4925 	0.056595
37.59 	0.048627 	4915 	0.047912
37.61 	0.053637 	4922 	0.052804
37.63 	0.051433 	4919 	0.050600
37.65 	0.052054 	4918 	0.050743
37.67 	0.061582 	4904 	0.060866
37.69 	0.059820 	4898 	0.058744
37.71 	0.057821 	4929 	0.056633
37.73 	0.053155 	4929 	0.052085
37.75 	0.055466 	4940 	0.054873
37.77 	0.057317 	4920 	0.056960
37.79 	0.056389 	4930 	0.055795
37.81 	0.055950 	4933 	0.055475
37.83 	0.061382 	4920 	0.060311
37.85 	0.057903 	4922 	0.057189
37.87 	0.057299 	4939 	0.056706
37.89 	0.059289 	4925 	0.057961
37.91 	0.058824 	4930 	0.057992
37.93 	0.060175 	4919 	0.058865
37.95 	0.058728 	4921 	0.057518
37.97 	0.050517 	4929 	0.049567
37.99 	0.055171 	4912 	0.054336
38.01 	0.060674 	4928 	0.059723
38.03 	0.057242 	4909 	0.056406
38.05 	0.056041 	4925 	0.055089
38.07 	0.058871 	4909 	0.058155
38.09 	0.054736 	4878 	0.054255
38.11 	0.059372 	4935 	0.058541
38.13 	0.060968 	4937 	0.060138
38.15 	0.051850 	4918 	0.051017
38.17 	0.061055 	4930 	0.059491
38.19 	0.058215 	4930 	0.056789
38.21 	0.060126 	4923 	0.059412
38.23 	0.059741 	4938 	0.058317
38.25 	0.059386 	4917 	0.058909
38.27 	0.066937 	4930 	0.065967
38.29 	0.063160 	4924 	0.061970
38.31 	0.063933 	4927 	0.063220
38.33 	0.067019 	4924 	0.064996
38.35 	0.063312 	4928 	0.061410
38.37 	0.071487 	4924 	0.069920
38.39 	0.069261 	4909 	0.068187
38.41 	0.063985 	4923 	0.062914
38.43 	0.075468 	4916 	0.073780
38.45 	0.066084 	4918 	0.065012
38.47 	0.069289 	4907 	0.068334
38.49 	0.068485 	4877 	0.067264
38.51 	0.074818 	4932 	0.072798
38.53 	0.067965 	4929 	0.066539
38.55 	0.061183 	4936 	0.059759
38.57 	0.064189 	4923 	0.062265
38.59 	0.058489 	4924 	0.057418
38.61 	0.059157 	4936 	0.057733
38.63 	0.067831 	4924 	0.066146
38.65 	0.065880 	4918 	0.065027
38.67 	0.063601 	4937 	0.061940
38.69 	0.060138 	4922 	0.059424
38.71 	0.060317 	4924 	0.058870
38.73 	0.059577 	4918 	0.058724
38.75 	0.050538 	4927 	0.049567
38.77 	0.058095 	4923 	0.057619
38.79 	0.061208 	4934 	0.060614
38.81 	0.063722 	4912 	0.062052
38.83 	0.053669 	4919 	0.052479
38.85 	0.059446 	4912 	0.058134
38.87 	0.058847 	4911 	0.057535
38.89 	0.054932 	4897 	0.053975
38.91 	0.050581 	4903 	0.049864
38.93 	0.058121 	4938 	0.057508
38.95 	0.058560 	4918 	0.057846
38.97 	0.047860 	4931 	0.047385
38.99 	0.051651 	4937 	0.050939
39.01 	0.051850 	4918 	0.051136
39.03 	0.056344 	4934 	0.055394
39.05 	0.054010 	4925 	0.053515
39.07 	0.048741 	4924 	0.048146
39.09 	0.056470 	4923 	0.055875
39.11 	0.057798 	4931 	0.057322
39.13 	0.056267 	4923 	0.055791
39.15 	0.062055 	4915 	0.061101
39.17 	0.058943 	4937 	0.057381
39.19 	0.051454 	4917 	0.050739
39.21 	0.050509 	4910 	0.049793
39.23 	0.050558 	4925 	0.050202
39.25 	0.051605 	4922 	0.051129
39.27 	0.053157 	4910 	0.052441
39.29 	0.052030 	4901 	0.051194
39.31 	0.051802 	4884 	0.050942
39.33 	0.059014 	4931 	0.058044
39.35 	0.049848 	4935 	0.049017
39.37 	0.051735 	4929 	0.051140
39.39 	0.055995 	4929 	0.054926
39.41 	0.054147 	4931 	0.053553
39.43 	0.052098 	4933 	0.051029
39.45 	0.050558 	4925 	0.049845
39.47 	0.050173 	4923 	0.049221
39.49 	0.058180 	4933 	0.057348
39.51 	0.047929 	4924 	0.047096
39.53 	0.058907 	4923 	0.057598
39.55 	0.057735 	4919 	0.057140
39.57 	0.053517 	4933 	0.052923
39.59 	0.052321 	4912 	0.051725
39.61 	0.054032 	4923 	0.052585
39.63 	0.055668 	4922 	0.055430
39.65 	0.052578 	4926 	0.051508
39.67 	0.061266 	4913 	0.059696
39.69 	0.050854 	4916 	0.050497
39.71 	0.052298 	4895 	0.051341
39.73 	0.060106 	4908 	0.059270
39.75 	0.062703 	4928 	0.061276
39.77 	0.052888 	4935 	0.052057
39.79 	0.053796 	4926 	0.052964
39.81 	0.055612 	4927 	0.055136
39.83 	0.063843 	4934 	0.062537
39.85 	0.054597 	4927 	0.054003
39.87 	0.058477 	4925 	0.057288
39.89 	0.061208 	4934 	0.059902
39.91 	0.053434 	4922 	0.052719
39.93 	0.054284 	4937 	0.053572
39.95 	0.059613 	4915 	0.058541
39.97 	0.061485 	4928 	0.060653
39.99 	0.047242 	4932 	0.046411
40.01 	0.054900 	4918 	0.054305
40.03 	0.060065 	4928 	0.058757
40.05 	0.052878 	4917 	0.052282
40.07 	0.056470 	4923 	0.055756
40.09 	0.058381 	4916 	0.057050
40.11 	0.056550 	4916 	0.055716
40.13 	0.057190 	4896 	0.056073
40.15 	0.050071 	4913 	0.048959
40.17 	0.059456 	4928 	0.058030
40.19 	0.053966 	4929 	0.053729
40.21 	0.053293 	4935 	0.052818
40.23 	0.054136 	4932 	0.053542
40.25 	0.053049 	4920 	0.052334
40.27 	0.054081 	4937 	0.053132
40.29 	0.057845 	4927 	0.057726
40.31 	0.049605 	4939 	0.048894
40.33 	0.051095 	4932 	0.050739
40.35 	0.051027 	4919 	0.050312
40.37 	0.050112 	4929 	0.049399
40.39 	0.051714 	4931 	0.050882
40.41 	0.053198 	4925 	0.052484
40.43 	0.056684 	4922 	0.056208
40.45 	0.060004 	4933 	0.058579
40.47 	0.055714 	4918 	0.054761
40.49 	0.047706 	4926 	0.047349
40.51 	0.055872 	4922 	0.054562
40.53 	0.058381 	4916 	0.057308
40.55 	0.056642 	4908 	0.056165
40.57 	0.056033 	4890 	0.055194
40.59 	0.053271 	4937 	0.052915
40.61 	0.053901 	4935 	0.053070
40.63 	0.055578 	4930 	0.054390
40.65 	0.057930 	4937 	0.057099
40.67 	0.057380 	4932 	0.056787
40.69 	0.055499 	4937 	0.054787
40.71 	0.051500 	4932 	0.050907
40.73 	0.050954 	4926 	0.050241
40.75 	0.058000 	4931 	0.056575
40.77 	0.052440 	4939 	0.051728
40.79 	0.055443 	4924 	0.054610
40.81 	0.052621 	4941 	0.051910
40.83 	0.051948 	4928 	0.050878
40.85 	0.052193 	4924 	0.051599
40.87 	0.056209 	4928 	0.055377
40.89 	0.051511 	4931 	0.050442
40.91 	0.048345 	4923 	0.047750
40.93 	0.053709 	4934 	0.052997
40.95 	0.050275 	4913 	0.050036
40.97 	0.051787 	4924 	0.050716
40.99 	0.053818 	4924 	0.052509
41.01 	0.055578 	4912 	0.054624
41.03 	0.049541 	4905 	0.048705
41.05 	0.052472 	4936 	0.051760
41.07 	0.055375 	4930 	0.055019
41.09 	0.050010 	4939 	0.049298
41.11 	0.053293 	4935 	0.052699
41.13 	0.054700 	4936 	0.053988
41.15 	0.053835 	4941 	0.053242
41.17 	0.057762 	4934 	0.056655
41.19 	0.054970 	4930 	0.054375
41.21 	0.048815 	4937 	0.048222
41.23 	0.054464 	4939 	0.053634
41.25 	0.057774 	4933 	0.056330
41.27 	0.056581 	4931 	0.055155
41.29 	0.055601 	4928 	0.054887
41.31 	0.056963 	4933 	0.055538
41.33 	0.055499 	4937 	0.054550
41.35 	0.049008 	4938 	0.048296
41.37 	0.053615 	4924 	0.052406
41.39 	0.055544 	4933 	0.054476
41.41 	0.055623 	4926 	0.054533
41.43 	0.049909 	4929 	0.048938
41.45 	0.046602 	4914 	0.046125
41.47 	0.051563 	4926 	0.050374
41.49 	0.050082 	4892 	0.049603
41.51 	0.052834 	4940 	0.052004
41.53 	0.054612 	4944 	0.053308
41.55 	0.045795 	4935 	0.045321
41.57 	0.052014 	4941 	0.051421
41.59 	0.051895 	4933 	0.051539
41.61 	0.042600 	4953 	0.042246
41.63 	0.048198 	4938 	0.047585
41.65 	0.052952 	4929 	0.052001
41.67 	0.049798 	4940 	0.049205
41.69 	0.047706 	4947 	0.046877
41.71 	0.054114 	4934 	0.053026
41.73 	0.057739 	4936 	0.057027
41.75 	0.051532 	4929 	0.050938
41.77 	0.050597 	4941 	0.050004
41.79 	0.049757 	4944 	0.048928
41.81 	0.047609 	4936 	0.046522
41.83 	0.051136 	4928 	0.050067
41.85 	0.049403 	4939 	0.048098
41.87 	0.050861 	4935 	0.049674
41.89 	0.046422 	4933 	0.046422
41.91 	0.051661 	4936 	0.050831
41.93 	0.043998 	4932 	0.043642
41.95 	0.054553 	4931 	0.053583
41.97 	0.052503 	4914 	0.051549
41.99 	0.048114 	4905 	0.047636
42.01 	0.048968 	4942 	0.048138
42.03 	0.045961 	4939 	0.045605
42.05 	0.049879 	4952 	0.049406
42.07 	0.049018 	4937 	0.048306
42.09 	0.046483 	4948 	0.045773
42.11 	0.044489 	4945 	0.044252
42.13 	0.046107 	4945 	0.045515
42.15 	0.047590 	4938 	0.046977
42.17 	0.045750 	4918 	0.045155
42.19 	0.041972 	4908 	0.041376
42.21 	0.049990 	4901 	0.049512
42.23 	0.048651 	4892 	0.048531
42.25 	0.050112 	4889 	0.049274
42.27 	0.051087 	4874 	0.050727
42.29 	0.050175 	4863 	0.049813
42.31 	0.053759 	4855 	0.052794
42.33 	0.045304 	4834 	0.044335
42.35 	0.048367 	4838 	0.048004
42.37 	0.043892 	4830 	0.043165
42.39 	0.051415 	4804 	0.050562
42.41 	0.046211 	4804 	0.045216
42.43 	0.050501 	4792 	0.049747
42.45 	0.048576 	4776 	0.047840
42.47 	0.050997 	4765 	0.050382
42.49 	0.042392 	4765 	0.042147
42.51 	0.049547 	4743 	0.048929
42.53 	0.045474 	4728 	0.045226
42.55 	0.052464 	4708 	0.051821
42.57 	0.050951 	4730 	0.049837
42.59 	0.050962 	4729 	0.049971
42.61 	0.049703 	4708 	0.048687
42.63 	0.050966 	4709 	0.050199
42.65 	0.048879 	4685 	0.048504
42.67 	0.046968 	4684 	0.046343
42.69 	0.046213 	4674 	0.045837
42.71 	0.046751 	4663 	0.046249
42.73 	0.049784 	4640 	0.049532
42.75 	0.047000 	4617 	0.046493
42.77 	0.049348 	4600 	0.048181
42.79 	0.051069 	4582 	0.049898
42.81 	0.049101 	4562 	0.047796
42.83 	0.044533 	4536 	0.044145
42.85 	0.042403 	4528 	0.042015
42.87 	0.047788 	4499 	0.047268
42.89 	0.048884 	4480 	0.048492
42.91 	0.051391 	4456 	0.050734
42.93 	0.047233 	4446 	0.046817
42.95 	0.049819 	4416 	0.049023
42.97 	0.048625 	4401 	0.047161
42.99 	0.047434 	4385 	0.046633
43.01 	0.050653 	4363 	0.049579
43.03 	0.044542 	4333 	0.043866
43.05 	0.049017 	4325 	0.047798
43.07 	0.050047 	4296 	0.049342
43.09 	0.047864 	4283 	0.047590
43.11 	0.041363 	4255 	0.041363
43.13 	0.044607 	4237 	0.044469
43.15 	0.046362 	4206 	0.045527
43.17 	0.050491 	4179 	0.049650
43.19 	0.046018 	4194 	0.045459
43.21 	0.054890 	4172 	0.054328
43.23 	0.053924 	4154 	0.053078
43.25 	0.050060 	4135 	0.049352
43.27 	0.048477 	4105 	0.048192
43.29 	0.047317 	4100 	0.047031
43.31 	0.045354 	4079 	0.044923
43.33 	0.047149 	4051 	0.046281
43.35 	0.049851 	4032 	0.048834
43.37 	0.046575 	4015 	0.045700
43.39 	0.046227 	4002 	0.045641
43.41 	0.050856 	3972 	0.050856
43.43 	0.043939 	3960 	0.043348
43.45 	0.045997 	3935 	0.044807
43.47 	0.044887 	3921 	0.044588
43.49 	0.053374 	3897 	0.052773
43.51 	0.051844 	3877 	0.051089
43.53 	0.046855 	3863 	0.046400
43.55 	0.045209 	2964 	0.044814
43.57 	0.047364 	2238 	0.047102
43.59 	0.049255 	1746 	0.048584
43.61 	0.051073 	1351 	0.051073
43.63 	0.049950 	1001 	0.049950
43.65 	0.050946 	687 	0.050946
43.67 	0.037849 	502 	0.036682
43.69 	0.040872 	367 	0.040872
43.71 	0.046025 	239 	0.046025
43.73 	0.058333 	120 	0.058333
43.75 	0.000000 	16 	0.000000