File: Example_Data/25SC_s1_0052.001.dat
#F C:\frames\spec\25SC_s1_0052.001
#C title =s:52 frm:1 25SC_s1
#C wavelength =0.15406

#S 1  fr_average C:\frames\spec\25SC_s1_0052.001 C:\win32app\speccom\mask.axs chi 0 180 0 360 0.02
#C 2 theta =0.000000 to 180 deg
#C   q   =0.000000 to 81.568 nm^-1
#C  chi  =0.000000 to 360 deg
#C collumns:
#C  1 position (2theta or chi in degrees)
#C  2 average intensity (sum of all counts in the region divided with number of pixels)
#C  3 Number of pixels in region)
#C  4 error (sum of sqrt(intensity) for all pixels divided by number)
#N 4
#L TTh  Int  N_pix  Err
32.99 	0.000000 	61 	0.000000
33.01 	0.079038 	873 	0.079038
33.03 	0.070453 	1391 	0.067926
33.05 	0.071713 	1757 	0.070380
33.07 	0.067805 	2050 	0.065805
33.09 	0.076694 	2347 	0.074157
33.11 	0.063591 	2579 	0.061963
33.13 	0.064447 	2793 	0.063188
33.15 	0.067022 	2999 	0.066436
33.17 	0.070603 	3201 	0.069688
33.19 	0.067325 	3342 	0.066098
33.21 	0.066356 	3436 	0.064822
33.23 	0.066705 	3523 	0.064875
33.25 	0.064507 	3612 	0.063048
33.27 	0.066667 	3630 	0.065698
33.29 	0.065789 	3648 	0.064184
33.31 	0.073770 	3660 	0.072170
33.33 	0.071351 	3686 	0.069285
33.35 	0.061992 	3694 	0.061041
33.37 	0.068121 	3714 	0.066859
33.39 	0.074283 	3729 	0.073026
33.41 	0.069519 	3740 	0.068266
33.43 	0.068599 	3761 	0.067197
33.45 	0.063610 	3773 	0.062213
33.47 	0.062665 	3798 	0.061585
33.49 	0.073510 	3809 	0.071665
33.51 	0.068938 	3815 	0.067249
33.53 	0.070815 	3841 	0.069595
33.55 	0.066615 	3843 	0.064938
33.57 	0.064999 	3877 	0.063941
33.59 	0.065464 	3880 	0.063954
33.61 	0.067792 	3909 	0.066294
33.63 	0.066088 	3919 	0.064295
33.65 	0.069702 	3931 	0.068510
33.67 	0.067274 	3954 	0.065792
33.69 	0.063243 	3953 	0.062206
33.71 	0.067421 	3975 	0.066685
33.73 	0.067183 	4004 	0.064696
33.75 	0.069267 	3999 	0.067192
33.77 	0.062360 	4025 	0.061026
33.79 	0.064093 	4041 	0.063078
33.81 	0.066617 	4038 	0.065457
33.83 	0.067407 	4050 	0.066250
33.85 	0.068065 	4099 	0.066493
33.87 	0.069083 	4111 	0.067943
33.89 	0.058238 	4121 	0.057243
33.91 	0.065076 	4149 	0.063946
33.93 	0.058540 	4151 	0.056988
33.95 	0.067209 	4181 	0.066205
33.97 	0.065871 	4190 	0.063634
33.99 	0.067857 	4200 	0.067020
34.01 	0.066224 	4213 	0.064694
34.03 	0.063384 	4244 	0.062279
34.05 	0.060442 	4252 	0.059753
34.07 	0.060918 	4268 	0.059523
34.09 	0.062296 	4286 	0.060770
34.11 	0.060437 	4302 	0.059620
34.13 	0.058032 	4308 	0.057057
34.15 	0.069730 	4331 	0.068648
34.17 	0.064368 	4350 	0.063291
34.19 	0.067171 	4362 	0.065560
34.21 	0.064974 	4371 	0.064036
34.23 	0.062372 	4393 	0.061839
34.25 	0.061989 	4404 	0.061191
34.27 	0.062641 	4422 	0.061582
34.29 	0.065163 	4435 	0.063446
34.31 	0.062135 	4458 	0.060953
34.33 	0.063520 	4471 	0.061927
34.35 	0.066905 	4484 	0.065598
34.37 	0.063460 	4491 	0.062265
34.39 	0.059307 	4502 	0.057485
34.41 	0.066063 	4526 	0.064747
34.43 	0.062128 	4539 	0.061354
34.45 	0.059096 	4535 	0.057783
34.47 	0.061411 	4592 	0.060901
34.49 	0.064172 	4597 	0.062643
34.51 	0.059053 	4606 	0.058036
34.53 	0.063537 	4643 	0.062653
34.55 	0.066983 	4643 	0.065721
34.57 	0.060944 	4660 	0.060190
34.59 	0.066738 	4675 	0.065360
34.61 	0.064935 	4697 	0.063563
34.63 	0.060722 	4710 	0.059727
34.65 	0.066088 	4721 	0.065219
34.67 	0.063489 	4741 	0.061882
34.69 	0.063946 	4754 	0.062817
34.71 	0.059799 	4766 	0.057832
34.73 	0.068519 	4787 	0.067173
34.75 	0.065932 	4808 	0.064835
34.77 	0.067870 	4818 	0.066635
34.79 	0.066128 	4824 	0.064913
34.81 	0.070588 	4845 	0.068775
34.83 	0.068696 	4862 	0.066869
34.85 	0.064900 	4869 	0.063697
34.87 	0.064914 	4868 	0.063710
34.89 	0.059197 	4882 	0.057997
34.91 	0.063703 	4882 	0.063103
34.93 	0.064299 	4899 	0.063581
34.95 	0.065440 	4890 	0.064122
34.97 	0.059976 	4902 	0.059119
34.99 	0.066163 	4897 	0.064947
35.01 	0.063376 	4923 	0.062900
35.03 	0.062917 	4943 	0.061851
35.05 	0.061249 	4947 	0.060539
35.07 	0.062551 	4940 	0.061602
35.09 	0.067434 	4953 	0.066350
35.11 	0.062462 	4947 	0.061160
35.13 	0.064139 	4958 	0.063194
35.15 	0.058740 	4937 	0.058028
35.17 	0.068540 	4946 	0.067356
35.19 	0.064144 	4942 	0.063314
35.21 	0.064307 	4945 	0.063004
35.23 	0.065319 	4945 	0.064134
35.25 	0.065547 	4943 	0.063651
35.27 	0.065885 	4948 	0.063991
35.29 	0.056623 	4945 	0.056386
35.31 	0.065275 	4933 	0.064543
35.33 	0.071212 	4943 	0.069790
35.35 	0.062323 	4942 	0.060525
35.37 	0.058514 	4939 	0.056953
35.39 	0.060667 	4945 	0.059483
35.41 	0.060089 	4926 	0.058900
35.43 	0.067505 	4933 	0.066198
35.45 	0.063399 	4937 	0.063162
35.47 	0.058609 	4931 	0.057421
35.49 	0.059063 	4910 	0.057850
35.51 	0.067194 	4926 	0.066124
35.53 	0.070519 	4949 	0.069809
35.55 	0.065925 	4945 	0.064840
35.57 	0.058382 	4933 	0.057551
35.59 	0.065925 	4945 	0.064741
35.61 	0.070619 	4942 	0.068960
35.63 	0.067570 	4943 	0.066385
35.65 	0.066734 	4945 	0.065668
35.67 	0.059692 	4942 	0.058744
35.69 	0.056814 	4946 	0.055866
35.71 	0.060361 	4937 	0.059293
35.73 	0.061791 	4936 	0.060960
35.75 	0.070980 	4931 	0.069316
35.77 	0.066047 	4951 	0.064746
35.79 	0.067315 	4932 	0.066128
35.81 	0.062031 	4933 	0.060725
35.83 	0.064092 	4946 	0.062908
35.85 	0.062817 	4935 	0.062342
35.87 	0.064798 	4923 	0.063727
35.89 	0.062019 	4934 	0.060812
35.91 	0.057236 	4927 	0.056760
35.93 	0.066572 	4927 	0.065502
35.95 	0.065690 	4917 	0.064023
35.97 	0.063722 	4912 	0.062648
35.99 	0.068232 	4939 	0.066691
36.01 	0.061258 	4930 	0.060307
36.03 	0.066963 	4943 	0.066015
36.05 	0.065319 	4945 	0.064252
36.07 	0.066005 	4939 	0.064226
36.09 	0.068421 	4940 	0.067334
36.11 	0.062284 	4929 	0.061215
36.13 	0.063335 	4942 	0.061912
36.15 	0.066613 	4939 	0.064952
36.17 	0.068223 	4925 	0.066776
36.19 	0.067409 	4940 	0.066342
36.21 	0.064922 	4929 	0.063377
36.23 	0.067477 	4935 	0.065934
36.25 	0.070026 	4941 	0.069434
36.27 	0.066193 	4925 	0.064746
36.29 	0.067938 	4931 	0.066374
36.31 	0.068791 	4928 	0.067483
36.33 	0.059193 	4933 	0.058006
36.35 	0.058024 	4929 	0.056578
36.37 	0.062563 	4923 	0.061731
36.39 	0.067060 	4921 	0.065988
36.41 	0.063725 	4896 	0.062529
36.43 	0.062703 	4928 	0.061376
36.45 	0.066531 	4930 	0.065343
36.47 	0.066451 	4936 	0.065026
36.49 	0.064346 	4942 	0.062568
36.51 	0.059396 	4933 	0.058565
36.53 	0.059478 	4943 	0.058293
36.55 	0.066166 	4927 	0.065096
36.57 	0.056141 	4934 	0.055073
36.59 	0.062766 	4939 	0.061580
36.61 	0.065504 	4931 	0.063702
36.63 	0.062462 	4931 	0.060997
36.65 	0.061841 	4932 	0.060535
36.67 	0.066329 	4930 	0.064784
36.69 	0.065733 	4929 	0.064407
36.71 	0.066653 	4921 	0.065939
36.73 	0.062741 	4925 	0.062146
36.75 	0.059871 	4944 	0.058923
36.77 	0.061801 	4919 	0.059777
36.79 	0.065027 	4921 	0.064194
36.81 	0.065094 	4916 	0.063902
36.83 	0.065514 	4915 	0.064441
36.85 	0.063495 	4898 	0.062060
36.87 	0.064523 	4944 	0.063219
36.89 	0.065094 	4916 	0.063902
36.91 	0.069622 	4941 	0.068061
36.93 	0.065923 	4930 	0.064378
36.95 	0.070748 	4933 	0.069086
36.97 	0.065464 	4934 	0.064396
36.99 	0.067680 	4935 	0.066374
37.01 	0.066288 	4933 	0.064705
37.03 	0.061942 	4924 	0.061347
37.05 	0.065557 	4927 	0.064130
37.07 	0.065248 	4935 	0.064655
37.09 	0.062500 	4928 	0.060559
37.11 	0.064640 	4935 	0.063216
37.13 	0.071284 	4924 	0.070213
37.15 	0.063149 	4909 	0.061717
37.17 	0.063235 	4934 	0.062166
37.19 	0.064975 	4925 	0.063290
37.21 	0.067724 	4917 	0.066752
37.23 	0.062830 	4918 	0.061639
37.25 	0.056404 	4911 	0.055808
37.27 	0.067225 	4894 	0.065889
37.29 	0.057809 	4930 	0.057334
37.31 	0.063627 	4935 	0.062678
37.33 	0.064339 	4927 	0.062774
37.35 	0.060348 	4938 	0.059162
37.37 	0.062310 	4927 	0.061359
37.39 	0.056784 	4931 	0.055477
37.41 	0.064490 	4931 	0.064015
37.43 	0.060422 	4932 	0.059472
37.45 	0.068846 	4924 	0.067380
37.47 	0.058835 	4929 	0.057885
37.49 	0.064798 	4923 	0.063846
37.51 	0.060815 	4933 	0.059509
37.53 	0.066884 	4919 	0.065216
37.55 	0.064706 	4930 	0.063855
37.57 	0.059695 	4925 	0.058625
37.59 	0.060631 	4915 	0.059419
37.61 	0.062983 	4922 	0.061435
37.63 	0.065867 	4919 	0.064914
37.65 	0.059577 	4918 	0.058505
37.67 	0.061175 	4904 	0.060338
37.69 	0.059004 	4898 	0.057927
37.71 	0.061676 	4929 	0.060606
37.73 	0.063907 	4929 	0.062719
37.75 	0.061538 	4940 	0.061064
37.77 	0.057927 	4920 	0.056955
37.79 	0.059229 	4930 	0.058516
37.81 	0.066086 	4933 	0.065017
37.83 	0.058943 	4920 	0.057852
37.85 	0.061560 	4922 	0.060965
37.87 	0.066613 	4939 	0.064478
37.89 	0.058477 	4925 	0.057407
37.91 	0.058012 	4930 	0.056804
37.93 	0.064851 	4919 	0.064017
37.95 	0.060963 	4921 	0.060110
37.97 	0.059038 	4929 	0.058325
37.99 	0.063518 	4912 	0.061610
38.01 	0.067167 	4928 	0.065483
38.03 	0.067020 	4909 	0.065310
38.05 	0.062741 	4925 	0.062027
38.07 	0.063760 	4909 	0.061812
38.09 	0.057811 	4878 	0.056850
38.11 	0.061803 	4935 	0.060616
38.13 	0.065829 	4937 	0.063931
38.15 	0.063034 	4918 	0.062438
38.17 	0.069980 	4930 	0.068316
38.19 	0.073022 	4930 	0.071696
38.21 	0.071501 	4923 	0.070549
38.23 	0.070474 	4938 	0.069762
38.25 	0.071995 	4917 	0.070089
38.27 	0.076471 	4930 	0.074926
38.29 	0.076564 	4924 	0.074998
38.31 	0.074690 	4927 	0.073482
38.33 	0.075142 	4924 	0.073596
38.35 	0.083604 	4928 	0.081207
38.37 	0.086312 	4924 	0.083933
38.39 	0.084946 	4909 	0.082778
38.41 	0.079017 	4923 	0.077827
38.43 	0.089097 	4916 	0.086694
38.45 	0.087231 	4918 	0.085682
38.47 	0.092317 	4907 	0.089791
38.49 	0.087144 	4877 	0.084722
38.51 	0.081711 	4932 	0.080029
38.53 	0.088659 	4929 	0.086500
38.55 	0.080429 	4936 	0.078155
38.57 	0.082267 	4923 	0.080601
38.59 	0.079001 	4924 	0.077673
38.61 	0.073541 	4936 	0.071761
38.63 	0.079001 	4924 	0.076622
38.65 	0.077877 	4918 	0.076924
38.67 	0.066842 	4937 	0.065537
38.69 	0.071922 	4922 	0.069998
38.71 	0.068846 	4924 	0.067538
38.73 	0.064864 	4918 	0.063772
38.75 	0.061295 	4927 	0.060700
38.77 	0.065407 	4923 	0.063841
38.79 	0.063640 	4934 	0.061810
38.81 	0.057818 	4912 	0.057102
38.83 	0.057939 	4919 	0.056986
38.85 	0.056393 	4912 	0.055438
38.87 	0.050906 	4911 	0.049952
38.89 	0.060445 	4897 	0.059349
38.91 	0.056496 	4903 	0.055660
38.93 	0.059336 	4938 	0.057912
38.95 	0.053274 	4918 	0.051606
38.97 	0.053539 	4931 	0.053182
38.99 	0.057525 	4937 	0.056694
39.01 	0.058154 	4918 	0.056844
39.03 	0.046818 	4934 	0.045987
39.05 	0.055431 	4925 	0.054123
39.07 	0.051178 	4924 	0.050107
39.09 	0.049766 	4923 	0.049171
39.11 	0.055364 	4931 	0.054532
39.13 	0.047532 	4923 	0.046937
39.15 	0.053306 	4915 	0.052472
39.17 	0.051448 	4937 	0.050717
39.19 	0.048607 	4917 	0.047892
39.21 	0.057434 	4910 	0.056718
39.23 	0.053401 	4925 	0.052668
39.25 	0.053230 	4922 	0.051783
39.27 	0.049491 	4910 	0.048775
39.29 	0.051418 	4901 	0.051060
39.31 	0.052211 	4884 	0.051252
39.33 	0.053133 	4931 	0.052539
39.35 	0.049645 	4935 	0.049052
39.37 	0.050314 	4929 	0.049601
39.39 	0.052952 	4929 	0.052477
39.41 	0.052525 	4931 	0.051812
39.43 	0.051895 	4933 	0.051302
39.45 	0.050152 	4925 	0.049657
39.47 	0.046110 	4923 	0.045039
39.49 	0.053112 	4933 	0.052518
39.51 	0.048132 	4924 	0.047279
39.53 	0.053423 	4923 	0.053304
39.55 	0.043708 	4919 	0.043351
39.57 	0.048855 	4933 	0.048142
39.59 	0.052321 	4912 	0.051605
39.61 	0.050782 	4923 	0.049811
39.63 	0.057903 	4922 	0.056575
39.65 	0.048315 	4926 	0.047602
39.67 	0.044983 	4913 	0.044625
39.69 	0.049837 	4916 	0.049003
39.71 	0.050664 	4895 	0.050305
39.73 	0.050530 	4908 	0.049794
39.75 	0.046469 	4928 	0.045637
39.77 	0.051672 	4935 	0.050584
39.79 	0.051157 	4926 	0.050681
39.81 	0.048508 	4927 	0.048033
39.83 	0.046615 	4934 	0.045409
39.85 	0.049929 	4927 	0.049453
39.87 	0.048325 	4925 	0.047254
39.89 	0.049655 	4934 	0.048567
39.91 	0.049573 	4922 	0.049097
39.93 	0.052664 	4937 	0.051952
39.95 	0.049644 	4915 	0.048690
39.97 	0.050731 	4928 	0.049641
39.99 	0.046431 	4932 	0.045719
40.01 	0.045954 	4918 	0.045239
40.03 	0.049919 	4928 	0.049087
40.05 	0.049827 	4917 	0.048735
40.07 	0.053626 	4923 	0.052555
40.09 	0.049430 	4916 	0.048715
40.11 	0.050854 	4916 	0.050139
40.13 	0.045547 	4896 	0.044949
40.15 	0.048443 	4913 	0.047966
40.17 	0.050122 	4928 	0.049052
40.19 	0.050720 	4929 	0.050364
40.21 	0.047619 	4935 	0.046432
40.23 	0.049270 	4932 	0.048676
40.25 	0.042683 	4920 	0.042326
40.27 	0.044764 	4937 	0.044171
40.29 	0.041202 	4927 	0.040132
40.31 	0.046973 	4939 	0.046024
40.33 	0.048459 	4932 	0.047628
40.35 	0.050823 	4919 	0.050228
40.37 	0.046460 	4929 	0.046222
40.39 	0.048266 	4931 	0.047553
40.41 	0.042843 	4925 	0.042248
40.43 	0.047542 	4922 	0.046828
40.45 	0.048855 	4933 	0.048142
40.47 	0.050427 	4918 	0.049831
40.49 	0.041819 	4926 	0.041581
40.51 	0.047338 	4922 	0.046267
40.53 	0.046989 	4916 	0.046394
40.55 	0.048900 	4908 	0.048542
40.57 	0.042945 	4890 	0.042585
40.59 	0.043954 	4937 	0.043479
40.61 	0.044580 	4935 	0.043630
40.63 	0.048884 	4930 	0.047696
40.65 	0.047600 	4937 	0.047125
40.67 	0.046431 	4932 	0.045838
40.69 	0.041928 	4937 	0.041810
40.71 	0.041363 	4932 	0.041244
40.73 	0.044864 	4926 	0.043893
40.75 	0.046238 	4931 	0.046000
40.77 	0.042316 	4939 	0.042079
40.79 	0.044882 	4924 	0.044525
40.81 	0.043311 	4941 	0.042837
40.83 	0.045657 	4928 	0.045301
40.85 	0.044882 	4924 	0.044287
40.87 	0.047078 	4928 	0.046840
40.89 	0.044413 	4931 	0.043581
40.91 	0.048548 	4923 	0.047695
40.93 	0.048845 	4934 	0.048014
40.95 	0.047425 	4913 	0.046829
40.97 	0.048132 	4924 	0.047398
40.99 	0.045085 	4924 	0.044609
41.01 	0.056800 	4912 	0.055587
41.03 	0.046279 	4905 	0.045682
41.05 	0.046394 	4936 	0.045563
41.07 	0.045030 	4930 	0.044912
41.09 	0.049605 	4939 	0.048894
41.11 	0.041945 	4935 	0.041708
41.13 	0.051864 	4936 	0.051270
41.15 	0.044728 	4941 	0.044372
41.17 	0.045197 	4934 	0.044109
41.19 	0.049899 	4930 	0.049423
41.21 	0.048613 	4937 	0.048019
41.23 	0.051225 	4939 	0.050632
41.25 	0.046625 	4933 	0.045418
41.27 	0.048063 	4931 	0.046955
41.29 	0.047687 	4928 	0.047211
41.31 	0.048247 	4933 	0.047633
41.33 	0.042739 	4937 	0.042383
41.35 	0.045970 	4938 	0.045140
41.37 	0.048335 	4924 	0.047621
41.39 	0.045206 	4933 	0.044375
41.41 	0.048518 	4926 	0.048042
41.43 	0.047271 	4929 	0.046439
41.45 	0.039886 	4914 	0.039171
41.47 	0.049939 	4926 	0.049463
41.49 	0.042314 	4892 	0.041456
41.51 	0.047368 	4940 	0.046776
41.53 	0.045914 	4944 	0.045322
41.55 	0.047214 	4935 	0.046858
41.57 	0.052014 	4941 	0.051065
41.59 	0.039530 	4933 	0.039173
41.61 	0.041187 	4953 	0.040832
41.63 	0.051843 	4938 	0.051012
41.65 	0.046257 	4929 	0.044950
41.67 	0.046356 	4940 	0.045882
41.69 	0.046897 	4947 	0.046542
41.71 	0.048034 	4934 	0.047559
41.73 	0.037480 	4936 	0.037005
41.75 	0.041185 	4929 	0.040709
41.77 	0.044930 	4941 	0.044693
41.79 	0.043285 	4944 	0.043166
41.81 	0.051053 	4936 	0.050085
41.83 	0.046063 	4928 	0.044875
41.85 	0.044746 	4939 	0.044271
41.87 	0.043566 	4935 	0.042973
41.89 	0.048855 	4933 	0.048380
41.91 	0.045583 	4936 	0.044634
41.93 	0.042174 	4932 	0.041342
41.95 	0.049888 	4931 	0.048700
41.97 	0.047212 	4914 	0.046497
41.99 	0.045056 	4905 	0.044578
42.01 	0.045730 	4942 	0.044901
42.03 	0.047378 	4939 	0.046429
42.05 	0.041599 	4952 	0.040870
42.07 	0.046384 	4937 	0.045673
42.09 	0.043452 	4948 	0.042860
42.11 	0.046714 	4945 	0.046240
42.13 	0.040849 	4945 	0.040494
42.15 	0.042527 	4938 	0.041934
42.17 	0.041887 	4918 	0.041411
42.19 	0.041972 	4908 	0.041495
42.21 	0.047337 	4901 	0.046979
42.23 	0.044154 	4892 	0.043435
42.25 	0.042135 	4889 	0.042016
42.27 	0.045137 	4874 	0.044176
42.29 	0.042361 	4863 	0.042120
42.31 	0.043460 	4855 	0.042857
42.33 	0.041787 	4834 	0.041181
42.35 	0.046300 	4838 	0.045937
42.37 	0.042029 	4830 	0.041301
42.39 	0.042048 	4804 	0.041804
42.41 	0.045587 	4804 	0.044977
42.43 	0.040693 	4792 	0.040326
42.45 	0.040410 	4776 	0.039920
42.47 	0.046800 	4765 	0.046308
42.49 	0.043442 	4765 	0.042950
42.51 	0.041113 	4743 	0.040866
42.53 	0.041878 	4728 	0.041754
42.55 	0.038020 	4708 	0.037523
42.57 	0.042072 	4730 	0.041824
42.59 	0.041235 	4729 	0.040616
42.61 	0.046517 	4708 	0.046268
42.63 	0.049480 	4709 	0.048609
42.65 	0.042263 	4685 	0.042263
42.67 	0.045047 	4684 	0.044672
42.69 	0.043646 	4674 	0.043019
42.71 	0.039674 	4663 	0.039151
42.73 	0.041164 	4640 	0.040659
42.75 	0.038337 	4617 	0.037829
42.77 	0.041957 	4600 	0.041447
42.79 	0.040157 	4582 	0.039646
42.81 	0.044498 	4562 	0.044113
42.83 	0.037698 	4536 	0.037311
42.85 	0.045053 	4528 	0.044536
42.87 	0.042454 	4499 	0.041781
42.89 	0.044420 	4480 	0.044027
42.91 	0.045108 	4456 	0.043925
42.93 	0.047233 	4446 	0.046048
42.95 	0.037817 	4416 	0.037286
42.97 	0.039536 	4401 	0.038982
42.99 	0.047206 	4385 	0.046672
43.01 	0.040798 	4363 	0.040395
43.03 	0.039926 	4333 	0.039115
43.05 	0.039769 	4325 	0.039092
43.07 	0.045624 	4296 	0.044533
43.09 	0.036657 	4283 	0.036109
43.11 	0.043948 	4255 	0.043122
43.13 	0.044607 	4237 	0.043916
43.15 	0.043509 	4206 	0.042813
43.17 	0.045705 	4179 	0.045144
43.19 	0.044826 	4194 	0.044267
43.21 	0.039310 	4172 	0.038608
43.23 	0.043332 	4154 	0.042627
43.25 	0.040145 	4135 	0.039720
43.27 	0.036297 	4105 	0.035726
43.29 	0.042195 	4100 	0.041624
43.31 	0.042658 	4079 	0.042370
43.33 	0.039003 	4051 	0.038858
43.35 	0.036210 	4032 	0.036065
43.37 	0.039103 	4015 	0.038957
43.39 	0.043728 	4002 	0.043289
43.41 	0.040282 	3972 	0.039692
43.43 	0.040657 	3960 	0.040361
43.45 	0.037103 	3935 	0.036805
43.47 	0.043611 	3921 	0.043163
43.49 	0.040031 	3897 	0.039730
43.51 	0.039979 	3877 	0.039073
43.53 	0.041936 	3863 	0.041633
43.55 	0.047233 	2964 	0.046838
43.57 	0.040661 	2238 	0.040400
43.59 	0.028637 	1746 	0.028301
43.61 	0.047372 	1351 	0.046939
43.63 	0.046953 	1001 	0.046953
43.65 	0.034934 	687 	0.034934
43.67 	0.031873 	502 	0.031873
43.69 	0.038147 	367 	0.038147
43.71 	0.037657 	239 	0.035206
43.73 	0.033333 	120 	0.033333
43.75 	0.000000 	16 	0.000000