File: Example_Data/25SC_s1_0021.002.dat
#F C:\frames\spec\25SC_s1_0021.002
#C title =s:21 frm:2 25SC_s1
#C wavelength =0.15406

#S 1  fr_average C:\frames\spec\25SC_s1_0021.002 C:\win32app\speccom\mask.axs chi 0 180 0 360 0.02
#C 2 theta =0.000000 to 180 deg
#C   q   =0.000000 to 81.568 nm^-1
#C  chi  =0.000000 to 360 deg
#C collumns:
#C  1 position (2theta or chi in degrees)
#C  2 average intensity (sum of all counts in the region divided with number of pixels)
#C  3 Number of pixels in region)
#C  4 error (sum of sqrt(intensity) for all pixels divided by number)
#N 4
#L TTh  Int  N_pix  Err
32.99 	0.081967 	61 	0.081967
33.01 	0.048110 	873 	0.048110
33.03 	0.058231 	1391 	0.056968
33.05 	0.062038 	1757 	0.061371
33.07 	0.063415 	2050 	0.061700
33.09 	0.052833 	2347 	0.051585
33.11 	0.056223 	2579 	0.055542
33.13 	0.057286 	2793 	0.056447
33.15 	0.061020 	2999 	0.060239
33.17 	0.056545 	3201 	0.056179
33.19 	0.061939 	3342 	0.060887
33.21 	0.055297 	3436 	0.054615
33.23 	0.062163 	3523 	0.060833
33.25 	0.054817 	3612 	0.054331
33.27 	0.059504 	3630 	0.058859
33.29 	0.054276 	3648 	0.053286
33.31 	0.058743 	3660 	0.058263
33.33 	0.065654 	3686 	0.063906
33.35 	0.057932 	3694 	0.057297
33.37 	0.063005 	3714 	0.061743
33.39 	0.055243 	3729 	0.053986
33.41 	0.061230 	3740 	0.059664
33.43 	0.053443 	3761 	0.052509
33.45 	0.061490 	3773 	0.060067
33.47 	0.060558 	3798 	0.058862
33.49 	0.065371 	3809 	0.063987
33.51 	0.059502 	3815 	0.058734
33.53 	0.052330 	3841 	0.050958
33.55 	0.066354 	3843 	0.064983
33.57 	0.055713 	3877 	0.055260
33.59 	0.058763 	3880 	0.057404
33.61 	0.069327 	3909 	0.068128
33.63 	0.059709 	3919 	0.058513
33.65 	0.060544 	3931 	0.059501
33.67 	0.059686 	3954 	0.058353
33.69 	0.062990 	3953 	0.061039
33.71 	0.059874 	3975 	0.058401
33.73 	0.063686 	4004 	0.063101
33.75 	0.065766 	3999 	0.065034
33.77 	0.058882 	4025 	0.057427
33.79 	0.060381 	4041 	0.059076
33.81 	0.057207 	4038 	0.056046
33.83 	0.070123 	4050 	0.067954
33.85 	0.057087 	4099 	0.056658
33.87 	0.058866 	4111 	0.057727
33.89 	0.066003 	4121 	0.064724
33.91 	0.060014 	4149 	0.059309
33.93 	0.054927 	4151 	0.054221
33.95 	0.062425 	4181 	0.061024
33.97 	0.055131 	4190 	0.054852
33.99 	0.055000 	4200 	0.054140
34.01 	0.057916 	4213 	0.057499
34.03 	0.058435 	4244 	0.057745
34.05 	0.053857 	4252 	0.053168
34.07 	0.057638 	4268 	0.056677
34.09 	0.060896 	4286 	0.058983
34.11 	0.056950 	4302 	0.055452
34.13 	0.055014 	4308 	0.054062
34.15 	0.052644 	4331 	0.051967
34.17 	0.050575 	4350 	0.050171
34.19 	0.061440 	4362 	0.059694
34.21 	0.057195 	4371 	0.056391
34.23 	0.054405 	4393 	0.053183
34.25 	0.062216 	4404 	0.061551
34.27 	0.058345 	4422 	0.057285
34.29 	0.061556 	4435 	0.060235
34.31 	0.067519 	4458 	0.066599
34.33 	0.059047 	4471 	0.058392
34.35 	0.064897 	4484 	0.063199
34.37 	0.065242 	4491 	0.064198
34.39 	0.061306 	4502 	0.060525
34.41 	0.054574 	4526 	0.053279
34.43 	0.052434 	4539 	0.051531
34.45 	0.051378 	4535 	0.050345
34.47 	0.053136 	4592 	0.052243
34.49 	0.055688 	4597 	0.054796
34.51 	0.052757 	4606 	0.051973
34.53 	0.059875 	4643 	0.058992
34.55 	0.062460 	4643 	0.061703
34.57 	0.063305 	4660 	0.062173
34.59 	0.061818 	4675 	0.060565
34.61 	0.057484 	4697 	0.056361
34.63 	0.054565 	4710 	0.053570
34.65 	0.060157 	4721 	0.059288
34.67 	0.058216 	4741 	0.057845
34.69 	0.058056 	4754 	0.056947
34.71 	0.061057 	4766 	0.059951
34.73 	0.055358 	4787 	0.054135
34.75 	0.055532 	4808 	0.054314
34.77 	0.058946 	4818 	0.057467
34.79 	0.056799 	4824 	0.056192
34.81 	0.063777 	4845 	0.062568
34.83 	0.054093 	4862 	0.053611
34.85 	0.052578 	4869 	0.051355
34.87 	0.059573 	4868 	0.058971
34.89 	0.057354 	4882 	0.056014
34.91 	0.057763 	4882 	0.057283
34.93 	0.051235 	4899 	0.050159
34.95 	0.061963 	4890 	0.061604
34.97 	0.060180 	4902 	0.059343
34.99 	0.057382 	4897 	0.056425
35.01 	0.061345 	4923 	0.060274
35.03 	0.058264 	4943 	0.057198
35.05 	0.059026 	4947 	0.057249
35.07 	0.059717 	4940 	0.058274
35.09 	0.062185 	4953 	0.061593
35.11 	0.067314 	4947 	0.066465
35.13 	0.054054 	4958 	0.052991
35.15 	0.060158 	4937 	0.058359
35.17 	0.053781 	4946 	0.052715
35.19 	0.052206 	4942 	0.051613
35.21 	0.058241 	4945 	0.057648
35.23 	0.060061 	4945 	0.058758
35.25 	0.054623 	4943 	0.054030
35.27 	0.061641 	4948 	0.059609
35.29 	0.063296 	4945 	0.061519
35.31 	0.064058 	4933 	0.063227
35.33 	0.058871 	4943 	0.057805
35.35 	0.060502 	4942 	0.058941
35.37 	0.061348 	4939 	0.060281
35.39 	0.052983 	4945 	0.052627
35.41 	0.056232 	4926 	0.055281
35.43 	0.055544 	4933 	0.054832
35.45 	0.061778 	4937 	0.061541
35.47 	0.054756 	4931 	0.053924
35.49 	0.066395 	4910 	0.065321
35.51 	0.058262 	4926 	0.057291
35.53 	0.056779 	4949 	0.055477
35.55 	0.057230 	4945 	0.056756
35.57 	0.060207 	4933 	0.059613
35.59 	0.063903 	4945 	0.062837
35.61 	0.057062 	4942 	0.056114
35.63 	0.060490 	4943 	0.059522
35.65 	0.053994 	4945 	0.052572
35.67 	0.058276 	4942 	0.057328
35.69 	0.063890 	4946 	0.063061
35.71 	0.060361 	4937 	0.059036
35.73 	0.058955 	4936 	0.057491
35.75 	0.056581 	4931 	0.055630
35.77 	0.056554 	4951 	0.055588
35.79 	0.061436 	4932 	0.060129
35.81 	0.060612 	4933 	0.060018
35.83 	0.061868 	4946 	0.061631
35.85 	0.063627 	4935 	0.062203
35.87 	0.059720 	4923 	0.058530
35.89 	0.058370 	4934 	0.057658
35.91 	0.055815 	4927 	0.054864
35.93 	0.062919 	4927 	0.061135
35.95 	0.063657 	4917 	0.063180
35.97 	0.060668 	4912 	0.060071
35.99 	0.054464 	4939 	0.053397
36.01 	0.059229 	4930 	0.058754
36.03 	0.059073 	4943 	0.058481
36.05 	0.058847 	4945 	0.058018
36.07 	0.053857 	4939 	0.053383
36.09 	0.061538 	4940 	0.060590
36.11 	0.062487 	4929 	0.061180
36.13 	0.055645 	4942 	0.055171
36.15 	0.063171 	4939 	0.062103
36.17 	0.068223 	4925 	0.067034
36.19 	0.055870 	4940 	0.054309
36.21 	0.059444 	4929 	0.058375
36.23 	0.056535 	4935 	0.055348
36.25 	0.056871 	4941 	0.055567
36.27 	0.057056 	4925 	0.056204
36.29 	0.056175 	4931 	0.055462
36.31 	0.059456 	4928 	0.058386
36.33 	0.062639 	4933 	0.061571
36.35 	0.054981 	4929 	0.054149
36.37 	0.058907 	4923 	0.057836
36.39 	0.062995 	4921 	0.061686
36.41 	0.060458 	4896 	0.059381
36.43 	0.057224 	4928 	0.056035
36.45 	0.057809 	4930 	0.056383
36.47 	0.059765 	4936 	0.058697
36.49 	0.055645 	4942 	0.054816
36.51 	0.056963 	4933 	0.056013
36.53 	0.062715 	4943 	0.061885
36.55 	0.058859 	4927 	0.057789
36.57 	0.055938 	4934 	0.054989
36.59 	0.056287 	4939 	0.055338
36.61 	0.054350 	4931 	0.053737
36.63 	0.058203 	4931 	0.057015
36.65 	0.057380 	4932 	0.055955
36.67 	0.061258 	4930 	0.059832
36.69 	0.056807 	4929 	0.056331
36.71 	0.056289 	4921 	0.055575
36.73 	0.057462 	4925 	0.056253
36.75 	0.050971 	4944 	0.050615
36.77 	0.051433 	4919 	0.051076
36.79 	0.059134 	4921 	0.058420
36.81 	0.054312 	4916 	0.053717
36.83 	0.056155 	4915 	0.055440
36.85 	0.056962 	4898 	0.055627
36.87 	0.057039 	4944 	0.055617
36.89 	0.062042 	4916 	0.060374
36.91 	0.064157 	4941 	0.063209
36.93 	0.059026 	4930 	0.058076
36.95 	0.051693 	4933 	0.050980
36.97 	0.053912 	4934 	0.052724
36.99 	0.058359 	4935 	0.057409
37.01 	0.060612 	4933 	0.059187
37.03 	0.056255 	4924 	0.055422
37.05 	0.053785 	4927 	0.053191
37.07 	0.058967 	4935 	0.057879
37.09 	0.059456 	4928 	0.057911
37.11 	0.053293 	4935 	0.052818
37.13 	0.052193 	4924 	0.051480
37.15 	0.058668 	4909 	0.057952
37.17 	0.056952 	4934 	0.056121
37.19 	0.055228 	4925 	0.054019
37.21 	0.051861 	4917 	0.050908
37.23 	0.050427 	4918 	0.049355
37.25 	0.055589 	4911 	0.054755
37.27 	0.054761 	4894 	0.054043
37.29 	0.061055 	4930 	0.060342
37.31 	0.055319 	4935 	0.054370
37.33 	0.052973 	4927 	0.051784
37.35 	0.058121 	4938 	0.056678
37.37 	0.055612 	4927 	0.054304
37.39 	0.055972 	4931 	0.054903
37.41 	0.056986 	4931 	0.056630
37.43 	0.052717 	4932 	0.051767
37.45 	0.056255 	4924 	0.055303
37.47 	0.058227 	4929 	0.056801
37.49 	0.050985 	4923 	0.050509
37.51 	0.057774 	4933 	0.055993
37.53 	0.051230 	4919 	0.050496
37.55 	0.059838 	4930 	0.058016
37.57 	0.054619 	4925 	0.053549
37.59 	0.052289 	4915 	0.051931
37.61 	0.057294 	4922 	0.056699
37.63 	0.052043 	4919 	0.051090
37.65 	0.059170 	4918 	0.058456
37.67 	0.052202 	4904 	0.051247
37.69 	0.054920 	4898 	0.053844
37.71 	0.054575 	4929 	0.054080
37.73 	0.053763 	4929 	0.052456
37.75 	0.054049 	4940 	0.053456
37.77 	0.055894 	4920 	0.055180
37.79 	0.053347 	4930 	0.052396
37.81 	0.057369 	4933 	0.056419
37.83 	0.052033 	4920 	0.051318
37.85 	0.050183 	4922 	0.049588
37.87 	0.052237 	4939 	0.051644
37.89 	0.051168 	4925 	0.050811
37.91 	0.054564 	4930 	0.054089
37.93 	0.051433 	4919 	0.050342
37.95 	0.053851 	4921 	0.053137
37.97 	0.049300 	4929 	0.048587
37.99 	0.049674 	4912 	0.048720
38.01 	0.053977 	4928 	0.052888
38.03 	0.048482 	4909 	0.047766
38.05 	0.052995 	4925 	0.052162
38.07 	0.057038 	4909 	0.055606
38.09 	0.053506 	4878 	0.053145
38.11 	0.052888 	4935 	0.052175
38.13 	0.052664 	4937 	0.052189
38.15 	0.056527 	4918 	0.055455
38.17 	0.056389 	4930 	0.055677
38.19 	0.053550 	4930 	0.052837
38.21 	0.053829 	4923 	0.052639
38.23 	0.058728 	4938 	0.058016
38.25 	0.062843 	4917 	0.061890
38.27 	0.054361 	4930 	0.053173
38.29 	0.055240 	4924 	0.053931
38.31 	0.057845 	4927 	0.056874
38.33 	0.056458 	4924 	0.055506
38.35 	0.057224 	4928 	0.056630
38.37 	0.057880 	4924 	0.056671
38.39 	0.063149 	4909 	0.062433
38.41 	0.062157 	4923 	0.061086
38.43 	0.061229 	4916 	0.059273
38.45 	0.063034 	4918 	0.062081
38.47 	0.063990 	4907 	0.063274
38.49 	0.066229 	4877 	0.064648
38.51 	0.062044 	4932 	0.060975
38.53 	0.066748 	4929 	0.064846
38.55 	0.063614 	4936 	0.061914
38.57 	0.061142 	4923 	0.060428
38.59 	0.067831 	4924 	0.066403
38.61 	0.066653 	4936 	0.064972
38.63 	0.062348 	4924 	0.061396
38.65 	0.062830 	4918 	0.061501
38.67 	0.065424 	4937 	0.063625
38.69 	0.059325 	4922 	0.058492
38.71 	0.062348 	4924 	0.061277
38.73 	0.052054 	4918 	0.051339
38.75 	0.058250 	4927 	0.057299
38.77 	0.054641 	4923 	0.053809
38.79 	0.058776 	4934 	0.057569
38.81 	0.055375 	4912 	0.054659
38.83 	0.049400 	4919 	0.048686
38.85 	0.057614 	4912 	0.056283
38.87 	0.052331 	4911 	0.051616
38.89 	0.059833 	4897 	0.059354
38.91 	0.054252 	4903 	0.053775
38.93 	0.049818 	4938 	0.049205
38.95 	0.054087 	4918 	0.053491
38.97 	0.051105 	4931 	0.050511
38.99 	0.054081 	4937 	0.053014
39.01 	0.048800 	4918 	0.047967
39.03 	0.045805 	4934 	0.044736
39.05 	0.051371 	4925 	0.051133
39.07 	0.048335 	4924 	0.047621
39.09 	0.047329 	4923 	0.046496
39.11 	0.045427 	4931 	0.045189
39.13 	0.047735 	4923 	0.047140
39.15 	0.049847 	4915 	0.049490
39.17 	0.047600 	4937 	0.047244
39.19 	0.053691 	4917 	0.052738
39.21 	0.049898 	4910 	0.049302
39.23 	0.045279 	4925 	0.044684
39.25 	0.046526 	4922 	0.045812
39.27 	0.048269 	4910 	0.047911
39.29 	0.046521 	4901 	0.045784
39.31 	0.045250 	4884 	0.045010
39.33 	0.048672 	4931 	0.047583
39.35 	0.044174 	4935 	0.043225
39.37 	0.053358 	4929 	0.053001
39.39 	0.041996 	4929 	0.041521
39.41 	0.040763 	4931 	0.040050
39.43 	0.048855 	4933 	0.048380
39.45 	0.050558 	4925 	0.049964
39.47 	0.042048 	4923 	0.041334
39.49 	0.041760 	4933 	0.041403
39.51 	0.046710 	4924 	0.045639
39.53 	0.042048 	4923 	0.041810
39.55 	0.044521 	4919 	0.044045
39.57 	0.050071 	4933 	0.049833
39.59 	0.044788 	4912 	0.044192
39.61 	0.043876 	4923 	0.043638
39.63 	0.043072 	4922 	0.042715
39.65 	0.044458 	4926 	0.043982
39.67 	0.045186 	4913 	0.044471
39.69 	0.047600 	4916 	0.046408
39.71 	0.047395 	4895 	0.046677
39.73 	0.046862 	4908 	0.045907
39.75 	0.052557 	4928 	0.052081
39.77 	0.046809 	4935 	0.046452
39.79 	0.043646 	4926 	0.043170
39.81 	0.042419 	4927 	0.042063
39.83 	0.044386 	4934 	0.043911
39.85 	0.042825 	4927 	0.042587
39.87 	0.044467 	4925 	0.044110
39.89 	0.043575 	4934 	0.043100
39.91 	0.044697 	4922 	0.044340
39.93 	0.045169 	4937 	0.044319
39.95 	0.043947 	4915 	0.043232
39.97 	0.047890 	4928 	0.047414
39.99 	0.045215 	4932 	0.044859
40.01 	0.045750 	4918 	0.045135
40.03 	0.046266 	4928 	0.045672
40.05 	0.049217 	4917 	0.048145
40.07 	0.045501 	4923 	0.044787
40.09 	0.041904 	4916 	0.041427
40.11 	0.044752 	4916 	0.043918
40.13 	0.050654 	4896 	0.050295
40.15 	0.039894 	4913 	0.039179
40.17 	0.044846 	4928 	0.044014
40.19 	0.045040 	4929 	0.044208
40.21 	0.050861 	4935 	0.050030
40.23 	0.046229 	4932 	0.045754
40.25 	0.044715 	4920 	0.044239
40.27 	0.042941 	4937 	0.042585
40.29 	0.042825 	4927 	0.042112
40.31 	0.047176 	4939 	0.046108
40.33 	0.037307 	4932 	0.037070
40.35 	0.041269 	4919 	0.040911
40.37 	0.050314 	4929 	0.049483
40.39 	0.041168 	4931 	0.041168
40.41 	0.049746 	4925 	0.048438
40.43 	0.045916 	4922 	0.045559
40.45 	0.047436 	4933 	0.046486
40.47 	0.046360 	4918 	0.045884
40.49 	0.037759 	4926 	0.037640
40.51 	0.040431 	4922 	0.040193
40.53 	0.045159 	4916 	0.044563
40.55 	0.043806 	4908 	0.042971
40.57 	0.042331 	4890 	0.042092
40.59 	0.046182 	4937 	0.045351
40.61 	0.039919 	4935 	0.039325
40.63 	0.040771 	4930 	0.040058
40.65 	0.044764 	4937 	0.044289
40.67 	0.049270 	4932 	0.048795
40.69 	0.039093 	4937 	0.038499
40.71 	0.043390 	4932 	0.042915
40.73 	0.044864 	4926 	0.044388
40.75 	0.043196 	4931 	0.042959
40.77 	0.047783 	4939 	0.047190
40.79 	0.050366 	4924 	0.049771
40.81 	0.040073 	4941 	0.039599
40.83 	0.049107 	4928 	0.048751
40.85 	0.042851 	4924 	0.042613
40.87 	0.044237 	4928 	0.043880
40.89 	0.044007 	4931 	0.043176
40.91 	0.046313 	4923 	0.045956
40.93 	0.046007 	4934 	0.045651
40.95 	0.043761 	4913 	0.043404
40.97 	0.041227 	4924 	0.040989
40.99 	0.044070 	4924 	0.043475
41.01 	0.039088 	4912 	0.038492
41.03 	0.043629 	4905 	0.043271
41.05 	0.047407 	4936 	0.046101
41.07 	0.040365 	4930 	0.040009
41.09 	0.044341 	4939 	0.044104
41.11 	0.043769 	4935 	0.043413
41.13 	0.043760 	4936 	0.043404
41.15 	0.042704 	4941 	0.042230
41.17 	0.039319 	4934 	0.038963
41.19 	0.042191 	4930 	0.041715
41.21 	0.051651 	4937 	0.050702
41.23 	0.039887 	4939 	0.039649
41.25 	0.047030 	4933 	0.046436
41.27 	0.038735 	4931 	0.038259
41.29 	0.045455 	4928 	0.044504
41.31 	0.045003 	4933 	0.043578
41.33 	0.043954 	4937 	0.043341
41.35 	0.036047 	4938 	0.035454
41.37 	0.041430 	4924 	0.040954
41.39 	0.043989 	4933 	0.043396
41.41 	0.040804 	4926 	0.040209
41.43 	0.038344 	4929 	0.037869
41.45 	0.040497 	4914 	0.040020
41.47 	0.045676 	4926 	0.044487
41.49 	0.047220 	4892 	0.046501
41.51 	0.042510 	4940 	0.042036
41.53 	0.040453 	4944 	0.040335
41.55 	0.035664 	4935 	0.034951
41.57 	0.040882 	4941 	0.040645
41.59 	0.037503 	4933 	0.036909
41.61 	0.046638 	4953 	0.046165
41.63 	0.044350 	4938 	0.043875
41.65 	0.047068 	4929 	0.046236
41.67 	0.035223 	4940 	0.034748
41.69 	0.040833 	4947 	0.040122
41.71 	0.045805 	4934 	0.045211
41.73 	0.041329 	4936 	0.040953
41.75 	0.038953 	4929 	0.038715
41.77 	0.040882 	4941 	0.040527
41.79 	0.041262 	4944 	0.041144
41.81 	0.043152 	4936 	0.042796
41.83 	0.038352 	4928 	0.037877
41.85 	0.041304 	4939 	0.041067
41.87 	0.037690 	4935 	0.037077
41.89 	0.041557 	4933 	0.041438
41.91 	0.040316 	4936 	0.039723
41.93 	0.040552 	4932 	0.039839
41.95 	0.041979 	4931 	0.041504
41.97 	0.044363 	4914 	0.043767
41.99 	0.037309 	4905 	0.036831
42.01 	0.046540 	4942 	0.045710
42.03 	0.045353 	4939 	0.045116
42.05 	0.038974 	4952 	0.038383
42.07 	0.033219 	4937 	0.032981
42.09 	0.037793 	4948 	0.037438
42.11 	0.035592 	4945 	0.035236
42.13 	0.039838 	4945 	0.039364
42.15 	0.040097 	4938 	0.039504
42.17 	0.039040 	4918 	0.039040
42.19 	0.035045 	4908 	0.034567
42.21 	0.041420 	4901 	0.040942
42.23 	0.042110 	4892 	0.041750
42.25 	0.041931 	4889 	0.041092
42.27 	0.040419 	4874 	0.039938
42.29 	0.044417 	4863 	0.043694
42.31 	0.042430 	4855 	0.041827
42.33 	0.039512 	4834 	0.039148
42.35 	0.040926 	4838 	0.040684
42.37 	0.044513 	4830 	0.043664
42.39 	0.032473 	4804 	0.031863
42.41 	0.040591 	4804 	0.040103
42.43 	0.037354 	4792 	0.036743
42.45 	0.043342 	4776 	0.042483
42.47 	0.038615 	4765 	0.038246
42.49 	0.042602 	4765 	0.042234
42.51 	0.038372 	4743 	0.037878
42.53 	0.038071 	4728 	0.037947
42.55 	0.038870 	4708 	0.038497
42.57 	0.038478 	4730 	0.037982
42.59 	0.041658 	4729 	0.041039
42.61 	0.042268 	4708 	0.041771
42.63 	0.038225 	4709 	0.037333
42.65 	0.043543 	4685 	0.042793
42.67 	0.036721 	4684 	0.036346
42.69 	0.037227 	4674 	0.036601
42.71 	0.033455 	4663 	0.033078
42.73 	0.037069 	4640 	0.036564
42.75 	0.039853 	4617 	0.039472
42.77 	0.042609 	4600 	0.042099
42.79 	0.036010 	4582 	0.035755
42.81 	0.037922 	4562 	0.037408
42.83 	0.045414 	4536 	0.044510
42.85 	0.047482 	4528 	0.047353
42.87 	0.036008 	4499 	0.035748
42.89 	0.033036 	4480 	0.032774
42.91 	0.036804 	4456 	0.036673
42.93 	0.046559 	4446 	0.045768
42.95 	0.040761 	4416 	0.040098
42.97 	0.038855 	4401 	0.037657
42.99 	0.039225 	4385 	0.039091
43.01 	0.040568 	4363 	0.040031
43.03 	0.040157 	4333 	0.039211
43.05 	0.041618 	4325 	0.041212
43.07 	0.037244 	4296 	0.037108
43.09 	0.040626 	4283 	0.040352
43.11 	0.034548 	4255 	0.034410
43.13 	0.045787 	4237 	0.045234
43.15 	0.036139 	4206 	0.035860
43.17 	0.041158 	4179 	0.040457
43.19 	0.039342 	4194 	0.039202
43.21 	0.042426 	4172 	0.041864
43.23 	0.035388 	4154 	0.034965
43.25 	0.037727 	4135 	0.037137
43.27 	0.045067 	4105 	0.044782
43.29 	0.039756 	4100 	0.039327
43.31 	0.039470 	4079 	0.039327
43.33 	0.039250 	4051 	0.038816
43.35 	0.037450 	4032 	0.037305
43.37 	0.039103 	4015 	0.038520
43.39 	0.042729 	4002 	0.042290
43.41 	0.038520 	3972 	0.037930
43.43 	0.039394 	3960 	0.038950
43.45 	0.037357 	3935 	0.036910
43.47 	0.038256 	3921 	0.037807
43.49 	0.042084 	3897 	0.041332
43.51 	0.040753 	3877 	0.040300
43.53 	0.038312 	3863 	0.037706
43.55 	0.040148 	2964 	0.039753
43.57 	0.040661 	2238 	0.039876
43.59 	0.036082 	1746 	0.035747
43.61 	0.039230 	1351 	0.037929
43.63 	0.035964 	1001 	0.035379
43.65 	0.046579 	687 	0.045727
43.67 	0.023904 	502 	0.023904
43.69 	0.024523 	367 	0.024523
43.71 	0.071130 	239 	0.071130
43.73 	0.016667 	120 	0.016667
43.75 	0.000000 	16 	0.000000