File: Example_Data/25SC_s1_0002.003.dat
#F C:\frames\spec\25SC_s1_0002.003
#C title =s:2 frm:3 25SC_s1
#C wavelength =0.15406

#S 1  fr_average C:\frames\spec\25SC_s1_0002.003 C:\win32app\speccom\mask.axs chi 0 180 0 360 0.02
#C 2 theta =0.000000 to 180 deg
#C   q   =0.000000 to 81.568 nm^-1
#C  chi  =0.000000 to 360 deg
#C collumns:
#C  1 position (2theta or chi in degrees)
#C  2 average intensity (sum of all counts in the region divided with number of pixels)
#C  3 Number of pixels in region)
#C  4 error (sum of sqrt(intensity) for all pixels divided by number)
#N 4
#L TTh  Int  N_pix  Err
32.99 	0.098361 	61 	0.098361
33.01 	0.059565 	873 	0.058894
33.03 	0.071891 	1391 	0.070206
33.05 	0.075697 	1757 	0.074030
33.07 	0.075610 	2050 	0.074467
33.09 	0.074137 	2347 	0.072390
33.11 	0.070958 	2579 	0.068459
33.13 	0.071966 	2793 	0.070288
33.15 	0.068023 	2999 	0.066265
33.17 	0.064355 	3201 	0.063257
33.19 	0.078097 	3342 	0.076870
33.21 	0.071013 	3436 	0.069308
33.23 	0.068691 	3523 	0.066862
33.25 	0.064784 	3612 	0.064298
33.27 	0.072727 	3630 	0.070952
33.29 	0.077851 	3648 	0.076727
33.31 	0.069672 	3660 	0.068392
33.33 	0.074064 	3686 	0.072634
33.35 	0.075257 	3694 	0.074121
33.37 	0.071082 	3714 	0.069795
33.39 	0.078842 	3729 	0.076931
33.41 	0.075936 	3740 	0.074318
33.43 	0.070726 	3761 	0.069947
33.45 	0.074477 	3773 	0.073390
33.47 	0.072143 	3798 	0.070292
33.49 	0.067997 	3809 	0.067228
33.51 	0.073394 	3815 	0.071552
33.53 	0.082791 	3841 	0.081418
33.55 	0.071819 	3843 	0.071209
33.57 	0.078411 	3877 	0.077202
33.59 	0.064433 	3880 	0.063074
33.61 	0.072397 	3909 	0.070749
33.63 	0.073743 	3919 	0.071477
33.65 	0.071483 	3931 	0.069993
33.67 	0.066515 	3954 	0.064885
33.69 	0.073362 	3953 	0.071584
33.71 	0.074465 	3975 	0.072992
33.73 	0.077672 	4004 	0.075893
33.75 	0.066267 	3999 	0.064802
33.77 	0.070062 	4025 	0.068898
33.79 	0.068052 	4041 	0.066289
33.81 	0.067855 	4038 	0.066985
33.83 	0.073086 	4050 	0.071929
33.85 	0.078556 	4099 	0.076126
33.87 	0.075407 	4111 	0.073840
33.89 	0.069401 	4121 	0.068121
33.91 	0.076645 	4149 	0.073939
33.93 	0.074681 	4151 	0.072987
33.95 	0.072232 	4181 	0.071111
33.97 	0.073031 	4190 	0.072052
33.99 	0.063571 	4200 	0.062595
34.01 	0.068835 	4213 	0.067004
34.03 	0.063384 	4244 	0.062279
34.05 	0.077140 	4252 	0.075763
34.07 	0.067948 	4268 	0.067124
34.09 	0.074662 	4286 	0.072885
34.11 	0.064621 	4302 	0.063668
34.13 	0.068245 	4308 	0.067021
34.15 	0.061649 	4331 	0.060837
34.17 	0.085057 	4350 	0.083172
34.19 	0.071527 	4362 	0.069378
34.21 	0.072295 	4371 	0.070552
34.23 	0.071933 	4393 	0.070466
34.25 	0.069028 	4404 	0.067565
34.27 	0.067390 	4422 	0.066198
34.29 	0.073957 	4435 	0.072240
34.31 	0.070884 	4458 	0.069964
34.33 	0.070678 	4471 	0.069761
34.35 	0.073372 	4484 	0.072327
34.37 	0.067246 	4491 	0.066463
34.39 	0.074856 	4502 	0.073294
34.41 	0.074459 	4526 	0.072258
34.43 	0.073364 	4539 	0.072461
34.45 	0.063727 	4535 	0.062047
34.47 	0.067726 	4592 	0.066323
34.49 	0.067435 	4597 	0.065396
34.51 	0.070994 	4606 	0.069468
34.53 	0.072582 	4643 	0.071321
34.55 	0.072152 	4643 	0.070890
34.57 	0.066524 	4660 	0.064889
34.59 	0.071872 	4675 	0.070849
34.61 	0.073238 	4697 	0.071971
34.63 	0.072824 	4710 	0.071331
34.65 	0.065664 	4721 	0.064423
34.67 	0.072559 	4741 	0.070829
34.69 	0.067312 	4754 	0.065587
34.71 	0.067352 	4766 	0.065754
34.73 	0.066012 	4787 	0.064524
34.75 	0.064892 	4808 	0.064039
34.77 	0.073059 	4818 	0.071965
34.79 	0.070481 	4824 	0.069509
34.81 	0.073478 	4845 	0.071302
34.83 	0.068696 	4862 	0.067250
34.85 	0.070856 	4869 	0.069032
34.87 	0.065325 	4868 	0.064242
34.89 	0.066571 	4882 	0.065231
34.91 	0.064728 	4882 	0.063168
34.93 	0.063278 	4899 	0.062441
34.95 	0.074233 	4890 	0.072556
34.97 	0.071603 	4902 	0.070150
34.99 	0.070451 	4897 	0.068657
35.01 	0.073736 	4923 	0.072169
35.03 	0.069391 	4943 	0.067732
35.05 	0.067516 	4947 	0.066095
35.07 	0.071255 	4940 	0.070306
35.09 	0.068443 	4953 	0.067142
35.11 	0.072974 	4947 	0.070941
35.13 	0.068374 	4958 	0.066701
35.15 	0.075349 	4937 	0.074044
35.17 	0.064497 	4946 	0.063312
35.19 	0.072440 	4942 	0.070781
35.21 	0.071385 	4945 	0.069727
35.23 	0.066532 	4945 	0.065110
35.25 	0.068380 	4943 	0.066602
35.27 	0.067300 	4948 	0.066353
35.29 	0.076643 	4945 	0.074511
35.31 	0.073789 	4933 	0.072344
35.33 	0.074246 	4943 	0.072943
35.35 	0.072845 	4942 	0.071541
35.37 	0.063171 	4939 	0.061747
35.39 	0.071790 	4945 	0.069737
35.41 	0.075315 	4926 	0.073531
35.43 	0.074397 	4933 	0.072853
35.45 	0.068260 	4937 	0.067054
35.47 	0.066721 	4931 	0.065038
35.49 	0.067617 	4910 	0.066066
35.51 	0.075924 	4926 	0.074001
35.53 	0.069711 	4949 	0.068172
35.55 	0.070981 	4945 	0.068612
35.57 	0.071559 	4933 	0.070371
35.59 	0.071992 	4945 	0.070314
35.61 	0.067179 	4942 	0.065401
35.63 	0.071212 	4943 	0.070027
35.65 	0.071183 	4945 	0.069979
35.67 	0.073250 	4942 	0.071709
35.69 	0.072180 	4946 	0.071094
35.71 	0.064817 	4937 	0.063492
35.73 	0.064830 	4936 	0.063880
35.75 	0.068546 	4931 	0.067596
35.77 	0.070491 	4951 	0.069308
35.79 	0.066099 	4932 	0.064773
35.81 	0.072978 	4933 	0.071652
35.83 	0.071775 	4946 	0.070117
35.85 	0.075988 	4935 	0.074307
35.87 	0.070689 	4923 	0.069380
35.89 	0.070126 	4934 	0.068820
35.91 	0.066369 	4927 	0.064823
35.93 	0.069008 	4927 	0.067462
35.95 	0.074436 	4917 	0.072887
35.97 	0.069625 	4912 	0.068314
35.99 	0.072889 	4939 	0.071209
36.01 	0.068966 	4930 	0.066688
36.03 	0.072426 	4943 	0.069937
36.05 	0.071385 	4945 	0.069845
36.07 	0.067423 	4939 	0.066237
36.09 	0.066802 	4940 	0.064904
36.11 	0.071820 	4929 	0.070037
36.13 	0.077904 	4942 	0.076007
36.15 	0.073294 	4939 	0.072108
36.17 	0.068223 	4925 	0.067153
36.19 	0.072470 	4940 	0.071402
36.21 	0.071617 	4929 	0.070052
36.23 	0.075988 	4935 	0.073357
36.25 	0.071241 	4941 	0.069443
36.27 	0.069645 	4925 	0.067861
36.29 	0.073616 	4931 	0.071596
36.31 	0.073052 	4928 	0.071388
36.33 	0.080681 	4933 	0.079256
36.35 	0.069182 	4929 	0.067637
36.37 	0.072517 	4923 	0.071565
36.39 	0.076814 	4921 	0.076099
36.41 	0.071691 	4896 	0.069398
36.43 	0.071226 	4928 	0.069680
36.45 	0.072008 	4930 	0.070345
36.47 	0.073339 	4936 	0.071915
36.49 	0.078511 	4942 	0.076733
36.51 	0.072775 	4933 	0.071093
36.53 	0.075056 	4943 	0.073989
36.55 	0.072255 	4927 	0.070353
36.57 	0.069518 	4934 	0.069161
36.59 	0.069042 	4939 	0.067856
36.61 	0.074021 	4931 	0.072715
36.63 	0.061854 	4931 	0.060903
36.65 	0.067924 	4932 	0.066617
36.67 	0.067343 	4930 	0.065560
36.69 	0.069994 	4929 	0.068924
36.71 	0.070717 	4921 	0.069408
36.73 	0.073909 	4925 	0.072125
36.75 	0.076659 	4944 	0.074407
36.77 	0.076235 	4919 	0.074905
36.79 	0.072140 	4921 	0.070830
36.81 	0.072823 	4916 	0.071136
36.83 	0.074466 	4915 	0.072797
36.85 	0.066762 	4898 	0.065427
36.87 	0.072209 	4944 	0.070530
36.89 	0.072620 	4916 	0.071151
36.91 	0.079134 	4941 	0.077474
36.93 	0.074037 	4930 	0.072373
36.95 	0.072978 	4933 	0.071296
36.97 	0.069923 	4934 	0.068380
36.99 	0.074772 	4935 	0.073091
37.01 	0.072370 	4933 	0.071064
37.03 	0.070065 	4924 	0.068637
37.05 	0.069008 	4927 	0.067086
37.07 	0.073961 	4935 	0.071706
37.09 	0.065138 	4928 	0.064425
37.11 	0.071530 	4935 	0.070224
37.13 	0.070877 	4924 	0.069192
37.15 	0.063760 	4909 	0.062309
37.17 	0.065869 	4934 	0.063851
37.19 	0.076548 	4925 	0.075240
37.21 	0.067114 	4917 	0.066280
37.23 	0.069540 	4918 	0.068449
37.25 	0.065974 	4911 	0.065497
37.27 	0.070290 	4894 	0.068734
37.29 	0.066531 	4930 	0.065462
37.31 	0.068288 	4935 	0.066745
37.33 	0.079765 	4927 	0.077862
37.35 	0.068854 	4938 	0.067905
37.37 	0.068805 	4927 	0.067259
37.39 	0.067126 	4931 	0.065938
37.41 	0.068140 	4931 	0.066477
37.43 	0.062247 	4932 	0.061296
37.45 	0.065597 	4924 	0.064407
37.47 	0.069182 	4929 	0.067737
37.49 	0.072517 	4923 	0.070236
37.51 	0.064464 	4933 	0.062881
37.53 	0.072372 	4919 	0.071301
37.55 	0.065923 	4930 	0.064359
37.57 	0.069848 	4925 	0.067925
37.59 	0.072228 	4915 	0.069805
37.61 	0.064405 	4922 	0.063215
37.63 	0.063834 	4919 	0.062524
37.65 	0.065270 	4918 	0.064437
37.67 	0.062398 	4904 	0.062159
37.69 	0.069212 	4898 	0.067657
37.71 	0.065733 	4929 	0.064545
37.73 	0.065328 	4929 	0.064001
37.75 	0.072267 	4940 	0.070706
37.77 	0.067276 	4920 	0.065610
37.79 	0.073834 	4930 	0.072289
37.81 	0.063450 	4933 	0.062025
37.83 	0.069512 	4920 	0.068203
37.85 	0.063998 	4922 	0.062808
37.87 	0.071067 	4939 	0.070217
37.89 	0.072487 	4925 	0.070703
37.91 	0.062272 	4930 	0.061559
37.93 	0.065460 	4919 	0.064270
37.95 	0.074172 	4921 	0.072962
37.97 	0.056807 	4929 	0.055499
37.99 	0.062704 	4912 	0.061849
38.01 	0.064326 	4928 	0.063019
38.03 	0.068038 	4909 	0.066964
38.05 	0.062538 	4925 	0.061705
38.07 	0.067223 	4909 	0.065533
38.09 	0.064371 	4878 	0.063871
38.11 	0.073354 	4935 	0.071810
38.13 	0.061171 	4937 	0.060321
38.15 	0.064864 	4918 	0.063434
38.17 	0.066329 	4930 	0.065378
38.19 	0.067546 	4930 	0.066357
38.21 	0.072923 	4923 	0.071614
38.23 	0.075537 	4938 	0.074350
38.25 	0.067724 	4917 	0.066156
38.27 	0.074239 	4930 	0.072576
38.29 	0.076361 	4924 	0.074695
38.31 	0.073473 	4927 	0.071908
38.33 	0.080626 	4924 	0.079079
38.35 	0.082995 	4928 	0.081806
38.37 	0.080219 	4924 	0.078058
38.39 	0.080261 	4909 	0.078590
38.41 	0.088970 	4923 	0.086432
38.43 	0.091131 	4916 	0.088510
38.45 	0.093737 	4918 	0.092189
38.47 	0.085388 	4907 	0.083598
38.49 	0.091245 	4877 	0.088582
38.51 	0.090227 	4932 	0.088327
38.53 	0.086833 	4929 	0.084813
38.55 	0.088128 	4936 	0.085873
38.57 	0.088767 	4923 	0.086030
38.59 	0.085093 	4924 	0.082833
38.61 	0.079011 	4936 	0.077231
38.63 	0.076970 	4924 	0.074452
38.65 	0.074827 	4918 	0.072068
38.67 	0.078590 	4937 	0.076454
38.69 	0.071516 	4922 	0.069492
38.71 	0.073924 	4924 	0.072853
38.73 	0.067507 	4918 	0.066912
38.75 	0.069008 	4927 	0.067700
38.77 	0.066626 	4923 	0.065317
38.79 	0.065261 	4934 	0.063105
38.81 	0.064129 	4912 	0.063294
38.83 	0.065460 	4919 	0.063774
38.85 	0.060261 	4912 	0.059664
38.87 	0.057422 	4911 	0.056448
38.89 	0.057178 	4897 	0.056341
38.91 	0.059759 	4903 	0.058565
38.93 	0.058931 	4938 	0.057844
38.95 	0.063034 	4918 	0.061228
38.97 	0.061651 	4931 	0.060681
38.99 	0.058943 	4937 	0.057756
39.01 	0.060390 	4918 	0.059180
39.03 	0.056141 	4934 	0.055310
39.05 	0.068223 	4925 	0.067153
39.07 	0.057067 	4924 	0.055977
39.09 	0.059720 	4923 	0.059125
39.11 	0.058000 	4931 	0.057050
39.13 	0.057485 	4923 	0.056652
39.15 	0.057986 	4915 	0.057151
39.17 	0.053879 	4937 	0.052930
39.19 	0.058776 	4917 	0.057346
39.21 	0.052749 	4910 	0.052392
39.23 	0.064162 	4925 	0.062696
39.25 	0.061764 	4922 	0.060692
39.27 	0.056212 	4910 	0.054899
39.29 	0.057335 	4901 	0.056359
39.31 	0.053645 	4884 	0.053045
39.33 	0.055364 	4931 	0.054513
39.35 	0.052077 	4935 	0.051246
39.37 	0.053763 	4929 	0.053407
39.39 	0.056401 	4929 	0.055331
39.41 	0.055364 	4931 	0.054532
39.43 	0.049463 	4933 	0.048988
39.45 	0.052386 	4925 	0.051672
39.47 	0.051188 	4923 	0.050355
39.49 	0.054936 	4933 	0.054580
39.51 	0.056255 	4924 	0.055641
39.53 	0.053220 	4923 	0.051911
39.55 	0.056109 	4919 	0.054680
39.57 	0.063856 	4933 	0.062431
39.59 	0.057207 	4912 	0.056253
39.61 	0.056063 	4923 	0.055349
39.63 	0.061764 	4922 	0.060811
39.65 	0.056841 	4926 	0.056366
39.67 	0.058620 	4913 	0.057666
39.69 	0.054516 	4916 	0.053324
39.71 	0.059448 	4895 	0.058132
39.73 	0.058068 	4908 	0.056994
39.75 	0.057630 	4928 	0.056778
39.77 	0.052888 	4935 	0.052413
39.79 	0.051766 	4926 	0.051290
39.81 	0.050944 	4927 	0.049398
39.83 	0.056952 	4934 	0.056239
39.85 	0.058453 	4927 	0.057621
39.87 	0.056244 	4925 	0.055411
39.89 	0.053709 	4934 	0.052997
39.91 	0.053840 	4922 	0.053483
39.93 	0.054689 	4937 	0.054096
39.95 	0.059817 	4915 	0.058586
39.97 	0.059659 	4928 	0.058233
39.99 	0.054745 	4932 	0.053300
40.01 	0.053274 	4918 	0.052321
40.03 	0.052151 	4928 	0.051200
40.05 	0.050437 	4917 	0.050318
40.07 	0.053016 	4923 	0.052422
40.09 	0.055736 	4916 	0.055021
40.11 	0.048210 	4916 	0.047595
40.13 	0.052288 	4896 	0.051450
40.15 	0.054346 	4913 	0.053153
40.17 	0.052151 	4928 	0.051913
40.19 	0.053763 	4929 	0.052575
40.21 	0.053293 	4935 	0.052462
40.23 	0.055556 	4932 	0.054962
40.25 	0.055285 	4920 	0.054689
40.27 	0.051246 	4937 	0.050771
40.29 	0.054191 	4927 	0.053240
40.31 	0.053250 	4939 	0.052657
40.33 	0.048865 	4932 	0.047914
40.35 	0.051840 	4919 	0.051363
40.37 	0.053358 	4929 	0.052050
40.39 	0.051714 	4931 	0.050763
40.41 	0.051371 	4925 	0.050657
40.43 	0.057700 	4922 	0.057105
40.45 	0.049868 	4933 	0.049512
40.47 	0.053477 	4918 	0.052524
40.49 	0.050954 	4926 	0.050340
40.51 	0.045916 	4922 	0.045559
40.53 	0.053906 	4916 	0.052952
40.55 	0.047881 	4908 	0.047642
40.57 	0.054397 	4890 	0.054157
40.59 	0.046587 	4937 	0.045994
40.61 	0.051469 	4935 	0.050282
40.63 	0.052738 	4930 	0.051907
40.65 	0.053069 	4937 	0.052001
40.67 	0.049878 	4932 	0.048809
40.69 	0.054487 	4937 	0.053300
40.71 	0.053933 	4932 	0.052983
40.73 	0.055014 	4926 	0.053825
40.75 	0.053742 	4931 	0.053385
40.77 	0.052237 	4939 	0.051288
40.79 	0.050366 	4924 	0.049414
40.81 	0.052216 	4941 	0.051031
40.83 	0.046875 	4928 	0.046043
40.85 	0.051178 	4924 	0.050702
40.87 	0.051339 	4928 	0.049913
40.89 	0.058609 	4931 	0.058015
40.91 	0.057485 	4923 	0.056276
40.93 	0.049453 	4934 	0.048978
40.95 	0.050682 	4913 	0.050086
40.97 	0.049350 	4924 	0.048042
40.99 	0.054630 	4924 	0.053798
41.01 	0.048249 	4912 	0.047653
41.03 	0.054027 	4905 	0.053668
41.05 	0.048622 	4936 	0.047792
41.07 	0.051116 	4930 	0.050027
41.09 	0.045961 	4939 	0.045249
41.11 	0.049037 	4935 	0.047712
41.13 	0.052877 	4936 	0.052046
41.15 	0.050192 	4941 	0.049481
41.17 	0.051074 	4934 	0.050243
41.19 	0.053753 	4930 	0.052802
41.21 	0.051853 	4937 	0.050785
41.23 	0.051427 	4939 	0.050479
41.25 	0.051490 	4933 	0.050659
41.27 	0.054756 	4931 	0.053924
41.29 	0.052354 	4928 	0.051403
41.31 	0.049868 	4933 	0.049631
41.33 	0.048613 	4937 	0.048138
41.35 	0.050020 	4938 	0.049071
41.37 	0.050975 	4924 	0.050023
41.39 	0.044395 	4933 	0.043920
41.41 	0.050345 	4926 	0.049513
41.43 	0.049097 	4929 	0.048265
41.45 	0.051079 	4914 	0.050602
41.47 	0.050345 	4926 	0.049394
41.49 	0.045585 	4892 	0.045225
41.51 	0.048583 	4940 	0.047496
41.53 	0.049150 	4944 	0.048677
41.55 	0.046201 	4935 	0.045845
41.57 	0.056466 	4941 	0.055636
41.59 	0.052301 	4933 	0.051707
41.61 	0.051484 	4953 	0.050301
41.63 	0.054070 	4938 	0.052884
41.65 	0.052343 	4929 	0.050660
41.67 	0.051822 	4940 	0.051110
41.69 	0.050940 	4947 	0.050229
41.71 	0.051277 	4934 	0.050565
41.73 	0.050243 	4936 	0.049412
41.75 	0.053763 	4929 	0.052456
41.77 	0.053430 	4941 	0.052719
41.79 	0.043083 	4944 	0.042253
41.81 	0.049433 	4936 	0.048721
41.83 	0.048093 	4928 	0.047023
41.85 	0.048390 	4939 	0.048035
41.87 	0.047822 	4935 	0.047228
41.89 	0.051895 	4933 	0.051420
41.91 	0.055105 	4936 	0.054156
41.93 	0.049067 	4932 	0.048473
41.95 	0.051916 	4931 	0.051441
41.97 	0.050875 	4914 	0.049921
41.99 	0.049745 	4905 	0.049267
42.01 	0.052003 	4942 	0.051292
42.03 	0.051225 	4939 	0.050276
42.05 	0.045840 	4952 	0.045485
42.07 	0.051043 	4937 	0.050331
42.09 	0.045473 	4948 	0.045236
42.11 	0.047321 	4945 	0.046254
42.13 	0.043478 	4945 	0.043004
42.15 	0.051438 	4938 	0.050845
42.17 	0.049207 	4918 	0.048969
42.19 	0.046251 	4908 	0.045654
42.21 	0.047337 	4901 	0.046262
42.23 	0.049264 	4892 	0.047588
42.25 	0.047044 	4889 	0.046325
42.27 	0.049241 	4874 	0.048279
42.29 	0.044006 	4863 	0.043885
42.31 	0.048816 	4855 	0.048454
42.33 	0.048407 	4834 	0.047801
42.35 	0.049194 	4838 	0.048831
42.37 	0.048654 	4830 	0.048169
42.39 	0.046420 	4804 	0.045200
42.41 	0.048501 	4804 	0.048014
42.43 	0.052379 	4792 	0.052134
42.45 	0.043132 	4776 	0.042887
42.47 	0.044911 	4765 	0.044050
42.49 	0.047219 	4765 	0.046973
42.51 	0.047649 	4743 	0.046517
42.53 	0.051396 	4728 	0.050529
42.55 	0.048853 	4708 	0.048480
42.57 	0.045455 	4730 	0.044959
42.59 	0.050539 	4729 	0.049796
42.61 	0.050977 	4708 	0.050355
42.63 	0.049480 	4709 	0.048733
42.65 	0.056564 	4685 	0.055938
42.67 	0.045474 	4684 	0.044724
42.69 	0.050064 	4674 	0.049688
42.71 	0.049324 	4663 	0.048948
42.73 	0.052155 	4640 	0.051145
42.75 	0.048083 	4617 	0.047829
42.77 	0.051739 	4600 	0.051102
42.79 	0.045613 	4582 	0.045209
42.81 	0.048663 	4562 	0.047892
42.83 	0.047178 	4536 	0.046511
42.85 	0.049470 	4528 	0.048306
42.87 	0.040009 	4499 	0.039488
42.89 	0.052902 	4480 	0.052096
42.91 	0.050494 	4456 	0.050099
42.93 	0.048583 	4446 	0.048056
42.95 	0.046196 	4416 	0.045400
42.97 	0.041809 	4401 	0.041276
42.99 	0.048803 	4385 	0.047979
43.01 	0.044923 	4363 	0.044520
43.03 	0.045003 	4333 	0.043922
43.05 	0.048092 	4325 	0.047686
43.07 	0.044460 	4296 	0.044324
43.09 	0.044595 	4283 	0.044321
43.11 	0.054289 	4255 	0.053325
43.13 	0.048147 	4237 	0.047594
43.15 	0.045411 	4206 	0.044715
43.17 	0.044987 	4179 	0.044286
43.19 	0.047687 	4194 	0.046547
43.21 	0.040268 	4172 	0.039122
43.23 	0.050794 	4154 	0.050371
43.25 	0.050544 	4135 	0.049977
43.27 	0.044580 	4105 	0.044152
43.29 	0.047805 	4100 	0.046662
43.31 	0.049277 	4079 	0.048702
43.33 	0.045915 	4051 	0.045481
43.35 	0.047123 	4032 	0.046687
43.37 	0.046326 	4015 	0.045597
43.39 	0.043978 	4002 	0.043393
43.41 	0.046828 	3972 	0.046090
43.43 	0.044949 	3960 	0.044802
43.45 	0.049047 	3935 	0.047534
43.47 	0.042846 	3921 	0.041950
43.49 	0.046959 	3897 	0.046659
43.51 	0.046170 	3877 	0.045565
43.53 	0.047631 	3863 	0.046545
43.55 	0.050270 	2964 	0.049875
43.57 	0.043789 	2238 	0.043789
43.59 	0.037801 	1746 	0.037465
43.61 	0.048853 	1351 	0.048419
43.63 	0.046953 	1001 	0.046368
43.65 	0.039301 	687 	0.038449
43.67 	0.031873 	502 	0.031873
43.69 	0.032698 	367 	0.032698
43.71 	0.054393 	239 	0.051942
43.73 	0.075000 	120 	0.075000
43.75 	0.000000 	16 	0.000000