File: Example_Data/25SC_s1_0013.004.dat
#F C:\frames\spec\25SC_s1_0013.004
#C title =s:13 frm:4 25SC_s1
#C wavelength =0.15406

#S 1  fr_average C:\frames\spec\25SC_s1_0013.004 C:\win32app\speccom\mask.axs chi 0 180 0 360 0.02
#C 2 theta =0.000000 to 180 deg
#C   q   =0.000000 to 81.568 nm^-1
#C  chi  =0.000000 to 360 deg
#C collumns:
#C  1 position (2theta or chi in degrees)
#C  2 average intensity (sum of all counts in the region divided with number of pixels)
#C  3 Number of pixels in region)
#C  4 error (sum of sqrt(intensity) for all pixels divided by number)
#N 4
#L TTh  Int  N_pix  Err
32.99 	0.081967 	61 	0.081967
33.01 	0.065292 	873 	0.063279
33.03 	0.059669 	1391 	0.057564
33.05 	0.058054 	1757 	0.057720
33.07 	0.052195 	2050 	0.051909
33.09 	0.060503 	2347 	0.059504
33.11 	0.062427 	2579 	0.061746
33.13 	0.052274 	2793 	0.051854
33.15 	0.056019 	2999 	0.055433
33.17 	0.053733 	3201 	0.053367
33.19 	0.053561 	3342 	0.052860
33.21 	0.049185 	3436 	0.048674
33.23 	0.053931 	3523 	0.052269
33.25 	0.066168 	3612 	0.065682
33.27 	0.061157 	3630 	0.060350
33.29 	0.058388 	3648 	0.056622
33.31 	0.057650 	3660 	0.056050
33.33 	0.059957 	3686 	0.059003
33.35 	0.053871 	3694 	0.052761
33.37 	0.057620 	3714 	0.056200
33.39 	0.056047 	3729 	0.055419
33.41 	0.060160 	3740 	0.058412
33.43 	0.069396 	3761 	0.068150
33.45 	0.058044 	3773 	0.056440
33.47 	0.054502 	3798 	0.053268
33.49 	0.049357 	3809 	0.048742
33.51 	0.059240 	3815 	0.058011
33.53 	0.064306 	3841 	0.063239
33.55 	0.060890 	3843 	0.059645
33.57 	0.063193 	3877 	0.061833
33.59 	0.061856 	3880 	0.060799
33.61 	0.061141 	3909 	0.059618
33.63 	0.060219 	3919 	0.058725
33.65 	0.055457 	3931 	0.055159
33.67 	0.055387 	3954 	0.054350
33.69 	0.057678 	3953 	0.056640
33.71 	0.060377 	3975 	0.059346
33.73 	0.062438 	4004 	0.061267
33.75 	0.059265 	3999 	0.058239
33.77 	0.062857 	4025 	0.062275
33.79 	0.061618 	4041 	0.060749
33.81 	0.058692 	4038 	0.057387
33.83 	0.056296 	4050 	0.055139
33.85 	0.066602 	4099 	0.065030
33.87 	0.059353 	4111 	0.058498
33.89 	0.059694 	4121 	0.058415
33.91 	0.052061 	4149 	0.051072
33.93 	0.058299 	4151 	0.057170
33.95 	0.059555 	4181 	0.058131
33.97 	0.066826 	4190 	0.065568
33.99 	0.058571 	4200 	0.057735
34.01 	0.066461 	4213 	0.065349
34.03 	0.061263 	4244 	0.060435
34.05 	0.058325 	4252 	0.057499
34.07 	0.053655 	4268 	0.053106
34.09 	0.062063 	4286 	0.060947
34.11 	0.059740 	4302 	0.059059
34.13 	0.068477 	4308 	0.067389
34.15 	0.054953 	4331 	0.054412
34.17 	0.062989 	4350 	0.061642
34.19 	0.056625 	4362 	0.055417
34.21 	0.067033 	4371 	0.065961
34.23 	0.061917 	4393 	0.060850
34.25 	0.061989 	4404 	0.061058
34.27 	0.063546 	4422 	0.062619
34.29 	0.054791 	4435 	0.054131
34.31 	0.061238 	4458 	0.060318
34.33 	0.057929 	4471 	0.056619
34.35 	0.067574 	4484 	0.066659
34.37 	0.065687 	4491 	0.064252
34.39 	0.057086 	4502 	0.055524
34.41 	0.059213 	4526 	0.058307
34.43 	0.061908 	4539 	0.060488
34.45 	0.055347 	4535 	0.054572
34.47 	0.059451 	4592 	0.058558
34.49 	0.056124 	4597 	0.055486
34.51 	0.058836 	4606 	0.057798
34.53 	0.057291 	4643 	0.056155
34.55 	0.062029 	4643 	0.061524
34.57 	0.066953 	4660 	0.065821
34.59 	0.050053 	4675 	0.048926
34.61 	0.056845 	4697 	0.056221
34.63 	0.056476 	4710 	0.055729
34.65 	0.058250 	4721 	0.057630
34.67 	0.063067 	4741 	0.061584
34.69 	0.062263 	4754 	0.061154
34.71 	0.054343 	4766 	0.053237
34.73 	0.056821 	4787 	0.056086
34.75 	0.056988 	4808 	0.056623
34.77 	0.059776 	4818 	0.058925
34.79 	0.059909 	4824 	0.058674
34.81 	0.064603 	4845 	0.062407
34.83 	0.062526 	4862 	0.061803
34.85 	0.062025 	4869 	0.060581
34.87 	0.061832 	4868 	0.059767
34.89 	0.057558 	4882 	0.056958
34.91 	0.063703 	4882 	0.062024
34.93 	0.053889 	4899 	0.053410
34.95 	0.064417 	4890 	0.063579
34.97 	0.065483 	4902 	0.063910
34.99 	0.057995 	4897 	0.057157
35.01 	0.059110 	4923 	0.058039
35.03 	0.060085 	4943 	0.059492
35.05 	0.062058 	4947 	0.060973
35.07 	0.064575 	4940 	0.063370
35.09 	0.063598 	4953 	0.062652
35.11 	0.058419 	4947 	0.056624
35.13 	0.057483 	4958 	0.056892
35.15 	0.061576 	4937 	0.060627
35.17 	0.059846 	4946 	0.058662
35.19 	0.061716 	4942 	0.060294
35.21 	0.060667 	4945 	0.059720
35.23 	0.059050 	4945 	0.057983
35.25 	0.055634 	4943 	0.054548
35.27 	0.055982 	4948 	0.055272
35.29 	0.056218 	4945 	0.055626
35.31 	0.057369 	4933 	0.056300
35.33 	0.063726 	4943 	0.062660
35.35 	0.062323 	4942 	0.061493
35.37 	0.061753 	4939 	0.060923
35.39 	0.060263 	4945 	0.059552
35.41 	0.063540 	4926 	0.062589
35.43 	0.056558 	4933 	0.055845
35.45 	0.063601 	4937 	0.062652
35.47 	0.059826 	4931 	0.058519
35.49 	0.057230 	4910 	0.056395
35.51 	0.061104 	4926 	0.060034
35.53 	0.067286 	4949 	0.065866
35.55 	0.061881 	4945 	0.060795
35.57 	0.054936 	4933 	0.053749
35.59 	0.060263 	4945 	0.058604
35.61 	0.058074 	4942 	0.057461
35.63 	0.059478 	4943 	0.058135
35.65 	0.065521 	4945 	0.063724
35.67 	0.060704 	4942 	0.059499
35.69 	0.066114 	4946 	0.065167
35.71 	0.064817 	4937 	0.063512
35.73 	0.056726 	4936 	0.056133
35.75 	0.057392 	4931 	0.056560
35.77 	0.060594 	4951 	0.058937
35.79 	0.059408 	4932 	0.058339
35.81 	0.060207 	4933 	0.059119
35.83 	0.058835 	4946 	0.058006
35.85 	0.060182 	4935 	0.058758
35.87 	0.056063 	4923 	0.054873
35.89 	0.059384 	4934 	0.057840
35.91 	0.066572 	4927 	0.064907
35.93 	0.062513 	4927 	0.061443
35.95 	0.061623 	4917 	0.061027
35.97 	0.055171 	4912 	0.054336
35.99 	0.059121 	4939 	0.058528
36.01 	0.058824 	4930 	0.057635
36.03 	0.060490 	4943 	0.059147
36.05 	0.059454 	4945 	0.058625
36.07 	0.055882 	4939 	0.054814
36.09 	0.055870 	4940 	0.055040
36.11 	0.063096 	4929 	0.061551
36.13 	0.067584 	4942 	0.065786
36.15 	0.060741 	4939 	0.059792
36.17 	0.059898 	4925 	0.058808
36.19 	0.058704 	4940 	0.058112
36.21 	0.060459 	4929 	0.059627
36.23 	0.057345 	4935 	0.056277
36.25 	0.060312 	4941 	0.059482
36.27 	0.061117 	4925 	0.059808
36.29 	0.062665 	4931 	0.061477
36.31 	0.059253 	4928 	0.057332
36.33 	0.060409 	4933 	0.059103
36.35 	0.056401 	4929 	0.055312
36.37 	0.062157 	4923 	0.061086
36.39 	0.062792 	4921 	0.062078
36.41 	0.058415 	4896 	0.057578
36.43 	0.060471 	4928 	0.059282
36.45 	0.058418 	4930 	0.057586
36.47 	0.060575 	4936 	0.059507
36.49 	0.061918 	4942 	0.060733
36.51 	0.061626 	4933 	0.059706
36.53 	0.058871 	4943 	0.058042
36.55 	0.056018 	4927 	0.054809
36.57 	0.055736 	4934 	0.054766
36.59 	0.053655 	4939 	0.052469
36.61 	0.058203 	4931 	0.057114
36.63 	0.057392 	4931 	0.056541
36.65 	0.055961 	4932 	0.055367
36.67 	0.054158 	4930 	0.052851
36.69 	0.061676 	4929 	0.059597
36.71 	0.057712 	4921 	0.057236
36.73 	0.055635 	4925 	0.055159
36.75 	0.052791 	4944 	0.051962
36.77 	0.063631 	4919 	0.062440
36.79 	0.058931 	4921 	0.057979
36.81 	0.053295 	4916 	0.052084
36.83 	0.054730 	4915 	0.053777
36.85 	0.057575 	4898 	0.056379
36.87 	0.059871 	4944 	0.058311
36.89 	0.049634 	4916 	0.048542
36.91 	0.057478 	4941 	0.056885
36.93 	0.055172 	4930 	0.054341
36.95 	0.059396 	4933 	0.058565
36.97 	0.064248 	4934 	0.063041
36.99 	0.055927 	4935 	0.055334
37.01 	0.060207 	4933 	0.059257
37.03 	0.051990 	4924 	0.051395
37.05 	0.055003 	4927 	0.054052
37.07 	0.053901 	4935 	0.053189
37.09 	0.054586 	4928 	0.053992
37.11 	0.056332 	4935 	0.056095
37.13 	0.062957 	4924 	0.062124
37.15 	0.052149 	4909 	0.051552
37.17 	0.057965 	4934 	0.057253
37.19 	0.056853 	4925 	0.055644
37.21 	0.058979 	4917 	0.058026
37.23 	0.059170 	4918 	0.058456
37.25 	0.060273 	4911 	0.059080
37.27 	0.057417 	4894 	0.056460
37.29 	0.055984 	4930 	0.055271
37.31 	0.059777 	4935 	0.058828
37.33 	0.059062 	4927 	0.058349
37.35 	0.056501 	4938 	0.055077
37.37 	0.056830 	4927 	0.055997
37.39 	0.050700 	4931 	0.049987
37.41 	0.054147 	4931 	0.052959
37.43 	0.052311 	4932 	0.051836
37.45 	0.051584 	4924 	0.051108
37.47 	0.054575 	4929 	0.054337
37.49 	0.058704 	4923 	0.057752
37.51 	0.049463 	4933 	0.048869
37.53 	0.061598 	4919 	0.060407
37.55 	0.056592 	4930 	0.055503
37.57 	0.051168 	4925 	0.049959
37.59 	0.054120 	4915 	0.053385
37.61 	0.057091 	4922 	0.056238
37.63 	0.051840 	4919 	0.051006
37.65 	0.060797 	4918 	0.059130
37.67 	0.053222 	4904 	0.052625
37.69 	0.057779 	4898 	0.057061
37.71 	0.055589 	4929 	0.054619
37.73 	0.051735 	4929 	0.050665
37.75 	0.061336 	4940 	0.060625
37.77 	0.053252 	4920 	0.052419
37.79 	0.056187 	4930 	0.055474
37.81 	0.056963 	4933 	0.055776
37.83 	0.055894 	4920 	0.055418
37.85 	0.050386 	4922 	0.049672
37.87 	0.057502 	4939 	0.056415
37.89 	0.056447 	4925 	0.055357
37.91 	0.047667 	4930 	0.047073
37.93 	0.057735 	4919 	0.057140
37.95 	0.053241 	4921 	0.052408
37.97 	0.057618 	4929 	0.056549
37.99 	0.054764 	4912 	0.053929
38.01 	0.050325 	4928 	0.049730
38.03 	0.053575 	4909 	0.052978
38.05 	0.057056 	4925 	0.056223
38.07 	0.057649 	4909 	0.056933
38.09 	0.059041 	4878 	0.058200
38.11 	0.059372 	4935 	0.058422
38.13 	0.057525 	4937 	0.056694
38.15 	0.061814 	4918 	0.060980
38.17 	0.059635 	4930 	0.058328
38.19 	0.060243 	4930 	0.059174
38.21 	0.062767 	4923 	0.062291
38.23 	0.054881 	4938 	0.054525
38.25 	0.069555 	4917 	0.068006
38.27 	0.064706 	4930 	0.063755
38.29 	0.059504 	4924 	0.058315
38.31 	0.064948 	4927 	0.063759
38.33 	0.062551 	4924 	0.061242
38.35 	0.062703 	4928 	0.061395
38.37 	0.066409 	4924 	0.065220
38.39 	0.061112 	4909 	0.060038
38.41 	0.070485 	4923 	0.069653
38.43 	0.065907 	4916 	0.064835
38.45 	0.065474 	4918 	0.064283
38.47 	0.067862 	4907 	0.066549
38.49 	0.069305 	4877 	0.067724
38.51 	0.066707 	4932 	0.065876
38.53 	0.068777 	4929 	0.067569
38.55 	0.065843 	4936 	0.064300
38.57 	0.057485 	4923 	0.056652
38.59 	0.072299 	4924 	0.070871
38.61 	0.060981 	4936 	0.059794
38.63 	0.064988 	4924 	0.063541
38.65 	0.057340 	4918 	0.055891
38.67 	0.058943 	4937 	0.058231
38.69 	0.061560 	4922 	0.061084
38.71 	0.056052 	4924 	0.055338
38.73 	0.055307 	4918 	0.054692
38.75 	0.057439 	4927 	0.056963
38.77 	0.055860 	4923 	0.054908
38.79 	0.048845 	4934 	0.048607
38.81 	0.058632 	4912 	0.057559
38.83 	0.054889 	4919 	0.054413
38.85 	0.063314 	4912 	0.062003
38.87 	0.058237 	4911 	0.057879
38.89 	0.054115 	4897 	0.053756
38.91 	0.054660 	4903 	0.053705
38.93 	0.050223 	4938 	0.049511
38.95 	0.053070 	4918 	0.052117
38.97 	0.052322 	4931 	0.051847
38.99 	0.051448 	4937 	0.050736
39.01 	0.055510 	4918 	0.054200
39.03 	0.049453 	4934 	0.049215
39.05 	0.051980 	4925 	0.051385
39.07 	0.053006 	4924 	0.051697
39.09 	0.054235 	4923 	0.053759
39.11 	0.055364 	4931 	0.054651
39.13 	0.052204 	4923 	0.051609
39.15 	0.055544 	4915 	0.054710
39.17 	0.054487 	4937 	0.053537
39.19 	0.053081 	4917 	0.052485
39.21 	0.056823 	4910 	0.055988
39.23 	0.052183 	4925 	0.051588
39.25 	0.053840 	4922 	0.053007
39.27 	0.051120 	4910 	0.050285
39.29 	0.052030 	4901 	0.051194
39.31 	0.056921 	4884 	0.056201
39.33 	0.047860 	4931 	0.047385
39.35 	0.054711 	4935 	0.053643
39.37 	0.050720 	4929 	0.050245
39.39 	0.059647 	4929 	0.058934
39.41 	0.055770 	4931 	0.054463
39.43 	0.047638 	4933 	0.046688
39.45 	0.058477 	4925 	0.057882
39.47 	0.056267 	4923 	0.055077
39.49 	0.060815 	4933 	0.059489
39.51 	0.050569 	4924 	0.049379
39.53 	0.048954 	4923 	0.048478
39.55 	0.055092 	4919 	0.054497
39.57 	0.053720 	4933 	0.053245
39.59 	0.055782 	4912 	0.055166
39.61 	0.054235 	4923 	0.053759
39.63 	0.049777 	4922 	0.048943
39.65 	0.055623 	4926 	0.055029
39.67 	0.055770 	4913 	0.054578
39.69 	0.053295 	4916 	0.052104
39.71 	0.052503 	4895 	0.051665
39.73 	0.049307 	4908 	0.048472
39.75 	0.057021 	4928 	0.056070
39.77 	0.057143 	4935 	0.056193
39.79 	0.054811 	4926 	0.053622
39.81 	0.060280 	4927 	0.059329
39.83 	0.056344 	4934 	0.055631
39.85 	0.058250 	4927 	0.056586
39.87 	0.059898 	4925 	0.058828
39.89 	0.056141 	4934 	0.055310
39.91 	0.053230 	4922 	0.052378
39.93 	0.053271 	4937 	0.052559
39.95 	0.050458 	4915 	0.050100
39.97 	0.052151 	4928 	0.051200
39.99 	0.052514 	4932 	0.051802
40.01 	0.056324 	4918 	0.055470
40.03 	0.052963 	4928 	0.052131
40.05 	0.057149 	4917 	0.056434
40.07 	0.057079 	4923 	0.055889
40.09 	0.048820 	4916 	0.048105
40.11 	0.050651 	4916 	0.049678
40.13 	0.049837 	4896 	0.048999
40.15 	0.053328 	4913 	0.052354
40.17 	0.052557 	4928 	0.052081
40.19 	0.054981 	4929 	0.053911
40.21 	0.051672 	4935 	0.050960
40.23 	0.056569 	4932 	0.055382
40.25 	0.056504 	4920 	0.055433
40.27 	0.052056 	4937 	0.051700
40.29 	0.050538 	4927 	0.049943
40.31 	0.051022 	4939 	0.050192
40.33 	0.059611 	4932 	0.058641
40.35 	0.055296 	4919 	0.054462
40.37 	0.058024 	4929 	0.057073
40.39 	0.055364 	4931 	0.054414
40.41 	0.050964 	4925 	0.050370
40.43 	0.055059 	4922 	0.053750
40.45 	0.048652 	4933 	0.047583
40.47 	0.054087 	4918 	0.053372
40.49 	0.053796 	4926 	0.052944
40.51 	0.058513 	4922 	0.057323
40.53 	0.055126 	4916 	0.054173
40.55 	0.049715 	4908 	0.048283
40.57 	0.047239 	4890 	0.046760
40.59 	0.056512 	4937 	0.055444
40.61 	0.049848 	4935 	0.049255
40.63 	0.051318 	4930 	0.050843
40.65 	0.053474 	4937 	0.053236
40.67 	0.055150 	4932 	0.053962
40.69 	0.051448 	4937 	0.050736
40.71 	0.058394 	4932 	0.057206
40.73 	0.050751 	4926 	0.050394
40.75 	0.048874 	4931 	0.048399
40.77 	0.052440 	4939 	0.051847
40.79 	0.050569 	4924 	0.050212
40.81 	0.052014 	4941 	0.051184
40.83 	0.054586 	4928 	0.053378
40.85 	0.047929 	4924 	0.047334
40.87 	0.050528 	4928 	0.050052
40.89 	0.052525 	4931 	0.052168
40.91 	0.053016 	4923 	0.052659
40.93 	0.051074 	4934 	0.050718
40.95 	0.042744 	4913 	0.041890
40.97 	0.051381 	4924 	0.050667
40.99 	0.052396 	4924 	0.051802
41.01 	0.057818 	4912 	0.056864
41.03 	0.051172 	4905 	0.050217
41.05 	0.052472 	4936 	0.051760
41.07 	0.050710 	4930 	0.049977
41.09 	0.051832 	4939 	0.051714
41.11 	0.050253 	4935 	0.049778
41.13 	0.053282 	4936 	0.052689
41.15 	0.045942 	4941 	0.045468
41.17 	0.051074 	4934 	0.049887
41.19 	0.051724 	4930 	0.050873
41.21 	0.052664 	4937 	0.052189
41.23 	0.048998 	4939 	0.048405
41.25 	0.050476 	4933 	0.049645
41.27 	0.054553 	4931 	0.053840
41.29 	0.049310 	4928 	0.048696
41.31 	0.058788 	4933 	0.057719
41.33 	0.049018 	4937 	0.048424
41.35 	0.049210 	4938 	0.048024
41.37 	0.044679 	4924 	0.044084
41.39 	0.050882 	4933 	0.050288
41.41 	0.046488 	4926 	0.046250
41.43 	0.050314 	4929 	0.050077
41.45 	0.049858 	4914 	0.049023
41.47 	0.051766 	4926 	0.051290
41.49 	0.050899 	4892 	0.050301
41.51 	0.056073 	4940 	0.055954
41.53 	0.050364 	4944 	0.049535
41.55 	0.055724 	4935 	0.054894
41.57 	0.044728 	4941 	0.044254
41.59 	0.047841 	4933 	0.047129
41.61 	0.052090 	4953 	0.050907
41.63 	0.052855 	4938 	0.052144
41.65 	0.050112 	4929 	0.049755
41.67 	0.055061 	4940 	0.053756
41.69 	0.048110 	4947 	0.047380
41.71 	0.049655 	4934 	0.049181
41.73 	0.051459 	4936 	0.050865
41.75 	0.049097 	4929 	0.048503
41.77 	0.050597 	4941 	0.049530
41.79 	0.049353 	4944 	0.048760
41.81 	0.049433 	4936 	0.048958
41.83 	0.050528 	4928 	0.050052
41.85 	0.046568 	4939 	0.046212
41.87 	0.051266 	4935 	0.050673
41.89 	0.051085 	4933 	0.050847
41.91 	0.051459 	4936 	0.050747
41.93 	0.044607 	4932 	0.043894
41.95 	0.050700 	4931 	0.049630
41.97 	0.045788 	4914 	0.045430
41.99 	0.052192 	4905 	0.050858
42.01 	0.045933 	4942 	0.045340
42.03 	0.050415 	4939 	0.049348
42.05 	0.049677 	4952 	0.048849
42.07 	0.044764 	4937 	0.044527
42.09 	0.044665 	4948 	0.044428
42.11 	0.050556 	4945 	0.049964
42.13 	0.047725 	4945 	0.047014
42.15 	0.045970 	4938 	0.045496
42.17 	0.044327 	4918 	0.043731
42.19 	0.052771 	4908 	0.051936
42.21 	0.043256 	4901 	0.043137
42.23 	0.047220 	4892 	0.046741
42.25 	0.049294 	4889 	0.048336
42.27 	0.048625 	4874 	0.047904
42.29 	0.047296 	4863 	0.047055
42.31 	0.051493 	4855 	0.050045
42.33 	0.045304 	4834 	0.044698
42.35 	0.046920 	4838 	0.046073
42.37 	0.046584 	4830 	0.045472
42.39 	0.048293 	4804 	0.047663
42.41 	0.047669 	4804 	0.047303
42.43 	0.045075 	4792 	0.044708
42.45 	0.048576 	4776 	0.048208
42.47 	0.049738 	4765 	0.048754
42.49 	0.050367 	4765 	0.049876
42.51 	0.043854 	4743 	0.042990
42.53 	0.045262 	4728 	0.044891
42.55 	0.046517 	4708 	0.045894
42.57 	0.048626 	4730 	0.048254
42.59 	0.046099 	4729 	0.045603
42.61 	0.044180 	4708 	0.043931
42.63 	0.045870 	4709 	0.045372
42.65 	0.049306 	4685 	0.048931
42.67 	0.049103 	4684 	0.048353
42.69 	0.054557 	4674 	0.053033
42.71 	0.048681 	4663 	0.048304
42.73 	0.048491 	4640 	0.048113
42.75 	0.048733 	4617 	0.047845
42.77 	0.047609 	4600 	0.046972
42.79 	0.048669 	4582 	0.048413
42.81 	0.046471 	4562 	0.045829
42.83 	0.042769 	4536 	0.041994
42.85 	0.046599 	4528 	0.045435
42.87 	0.047788 	4499 	0.047137
42.89 	0.049330 	4480 	0.048415
42.91 	0.050494 	4456 	0.049420
42.93 	0.046559 	4446 	0.046295
42.95 	0.047328 	4416 	0.046532
42.97 	0.046580 	4401 	0.045915
42.99 	0.046750 	4385 	0.046350
43.01 	0.041944 	4363 	0.041138
43.03 	0.049850 	4333 	0.049309
43.05 	0.049017 	4325 	0.047934
43.07 	0.047719 	4296 	0.046219
43.09 	0.047397 	4283 	0.046713
43.11 	0.051469 	4255 	0.050505
43.13 	0.049327 	4237 	0.048498
43.15 	0.048740 	4206 	0.048044
43.17 	0.043073 	4179 	0.042512
43.19 	0.045303 	4194 	0.044604
43.21 	0.050815 	4172 	0.049692
43.23 	0.054405 	4154 	0.053136
43.25 	0.043531 	4135 	0.042823
43.27 	0.052132 	4105 	0.051275
43.29 	0.054146 	4100 	0.053718
43.31 	0.046825 	4079 	0.046394
43.33 	0.049371 	4051 	0.048503
43.35 	0.049603 	4032 	0.049022
43.37 	0.046326 	4015 	0.045889
43.39 	0.043478 	4002 	0.043039
43.41 	0.046828 	3972 	0.046090
43.43 	0.049495 	3960 	0.048903
43.45 	0.050318 	3935 	0.049698
43.47 	0.055088 	3921 	0.054490
43.49 	0.043623 	3897 	0.043022
43.51 	0.045654 	3877 	0.045503
43.53 	0.054103 	3863 	0.053193
43.55 	0.052632 	2964 	0.051643
43.57 	0.044236 	2238 	0.042927
43.59 	0.046392 	1746 	0.045721
43.61 	0.052554 	1351 	0.052120
43.63 	0.037962 	1001 	0.037377
43.65 	0.042213 	687 	0.042213
43.67 	0.047809 	502 	0.046642
43.69 	0.051771 	367 	0.050175
43.71 	0.033473 	239 	0.033473
43.73 	0.025000 	120 	0.025000
43.75 	0.062500 	16 	0.062500