File: Example_Data/25SC_s1_0009.000.dat
#F C:\frames\spec\25SC_s1_0009.000
#C title =s:9 frm:0 25SC_s1
#C wavelength =0.15406

#S 1  fr_average C:\frames\spec\25SC_s1_0009.000 C:\win32app\speccom\mask.axs chi 0 180 0 360 0.02
#C 2 theta =0.000000 to 180 deg
#C   q   =0.000000 to 81.568 nm^-1
#C  chi  =0.000000 to 360 deg
#C collumns:
#C  1 position (2theta or chi in degrees)
#C  2 average intensity (sum of all counts in the region divided with number of pixels)
#C  3 Number of pixels in region)
#C  4 error (sum of sqrt(intensity) for all pixels divided by number)
#N 4
#L TTh  Int  N_pix  Err
32.99 	0.032787 	61 	0.032787
33.01 	0.067583 	873 	0.066131
33.03 	0.058231 	1391 	0.056968
33.05 	0.063176 	1757 	0.061842
33.07 	0.062927 	2050 	0.062070
33.09 	0.065616 	2347 	0.064118
33.11 	0.062040 	2579 	0.061585
33.13 	0.065163 	2793 	0.063031
33.15 	0.054685 	2999 	0.054099
33.17 	0.060606 	3201 	0.059142
33.19 	0.062837 	3342 	0.061259
33.21 	0.059953 	3436 	0.059101
33.23 	0.058757 	3523 	0.057925
33.25 	0.056478 	3612 	0.055019
33.27 	0.058127 	3630 	0.057158
33.29 	0.056469 	3648 	0.055827
33.31 	0.063115 	3660 	0.061674
33.33 	0.054259 	3686 	0.053783
33.35 	0.065512 	3694 	0.064243
33.37 	0.059505 	3714 	0.058874
33.39 	0.057120 	3729 	0.056020
33.41 	0.056684 	3740 	0.056058
33.43 	0.058495 	3761 	0.057249
33.45 	0.056454 	3773 	0.055522
33.47 	0.065561 	3798 	0.063710
33.49 	0.064846 	3809 	0.063462
33.51 	0.063172 	3815 	0.062404
33.53 	0.060661 	3841 	0.059111
33.55 	0.058808 	3843 	0.057564
33.57 	0.055455 	3877 	0.054398
33.59 	0.061340 	3880 	0.059830
33.61 	0.064211 	3909 	0.063162
33.63 	0.062516 	3919 	0.061171
33.65 	0.061816 	3931 	0.061071
33.67 	0.057410 	3954 	0.055929
33.69 	0.057172 	3953 	0.056727
33.71 	0.066918 	3975 	0.065887
33.73 	0.057692 	4004 	0.056961
33.75 	0.058515 	3999 	0.057343
33.77 	0.065590 	4025 	0.064426
33.79 	0.060629 	4041 	0.059904
33.81 	0.058692 	4038 	0.058112
33.83 	0.066173 	4050 	0.064726
33.85 	0.059771 	4099 	0.058770
33.87 	0.050596 	4111 	0.050453
33.89 	0.058481 	4121 	0.057628
33.91 	0.060738 	4149 	0.059749
33.93 	0.060949 	4151 	0.059538
33.95 	0.059316 	4181 	0.057915
33.97 	0.062291 	4190 	0.061173
33.99 	0.064048 	4200 	0.062653
34.01 	0.058865 	4213 	0.058031
34.03 	0.061027 	4244 	0.059647
34.05 	0.063264 	4252 	0.062713
34.07 	0.057873 	4268 	0.057186
34.09 	0.057163 	4286 	0.056616
34.11 	0.060205 	4302 	0.059524
34.13 	0.062906 	4308 	0.061275
34.15 	0.059340 	4331 	0.058528
34.17 	0.057931 	4350 	0.056988
34.19 	0.056167 	4362 	0.055093
34.21 	0.063372 	4371 	0.062032
34.23 	0.055543 	4393 	0.054721
34.25 	0.057221 	4404 	0.056556
34.27 	0.060606 	4422 	0.059679
34.29 	0.062232 	4435 	0.060515
34.31 	0.055855 	4458 	0.054803
34.33 	0.063297 	4471 	0.062380
34.35 	0.061998 	4484 	0.061084
34.37 	0.061011 	4491 	0.060228
34.39 	0.059973 	4502 	0.058521
34.41 	0.064295 	4526 	0.062483
34.43 	0.064552 	4539 	0.063390
34.45 	0.064168 	4535 	0.062618
34.47 	0.059233 	4592 	0.058575
34.49 	0.055906 	4597 	0.055141
34.51 	0.055363 	4606 	0.054218
34.53 	0.053629 	4643 	0.052620
34.55 	0.052768 	4643 	0.052137
34.57 	0.052790 	4660 	0.051910
34.59 	0.058396 	4675 	0.057268
34.61 	0.058335 	4697 	0.057462
34.63 	0.059660 	4710 	0.058116
34.65 	0.056768 	4721 	0.055651
34.67 	0.063067 	4741 	0.061831
34.69 	0.058687 	4754 	0.057578
34.71 	0.059799 	4766 	0.058569
34.73 	0.060581 	4787 	0.059479
34.75 	0.060524 	4808 	0.059549
34.77 	0.065587 	4818 	0.064250
34.79 	0.054312 	4824 	0.053219
34.81 	0.057998 	4845 	0.057273
34.83 	0.055121 	4862 	0.054278
34.85 	0.053810 	4869 	0.053088
34.87 	0.058956 	4868 	0.057512
34.89 	0.061245 	4882 	0.059926
34.91 	0.057149 	4882 	0.055949
34.93 	0.059808 	4899 	0.058732
34.95 	0.055215 	4890 	0.054496
34.97 	0.052224 	4902 	0.051148
34.99 	0.063508 	4897 	0.062432
35.01 	0.058095 	4923 	0.057857
35.03 	0.060692 	4943 	0.058559
35.05 	0.051951 	4947 	0.051240
35.07 	0.052834 	4940 	0.051530
35.09 	0.057743 	4953 	0.055713
35.11 	0.052961 	4947 	0.052014
35.13 	0.057281 	4958 	0.056218
35.15 	0.060361 	4937 	0.059530
35.17 	0.064699 	4946 	0.063514
35.19 	0.062728 	4942 	0.061898
35.21 	0.061476 	4945 	0.060647
35.23 	0.060061 	4945 	0.058758
35.25 	0.059276 	4943 	0.058446
35.27 	0.062854 	4948 	0.061788
35.29 	0.065723 	4945 	0.064657
35.31 	0.060004 	4933 	0.059173
35.33 	0.059478 	4943 	0.058293
35.35 	0.064751 	4942 	0.063072
35.37 	0.061551 	4939 	0.060839
35.39 	0.055005 	4945 	0.054176
35.41 	0.061307 	4926 	0.060237
35.43 	0.059801 	4933 	0.058851
35.45 	0.057120 	4937 	0.056645
35.47 	0.059623 	4931 	0.058316
35.49 	0.065988 	4910 	0.065033
35.51 	0.060495 	4926 	0.059663
35.53 	0.067286 	4949 	0.066103
35.55 	0.061072 	4945 	0.060006
35.57 	0.062842 	4933 	0.062130
35.59 	0.059454 	4945 	0.058388
35.61 	0.058478 	4942 	0.057767
35.63 	0.059680 	4943 	0.058021
35.65 	0.060061 	4945 	0.058876
35.67 	0.056050 	4942 	0.055220
35.69 	0.053579 	4946 	0.052513
35.71 	0.064614 	4937 	0.063309
35.73 	0.056929 	4936 	0.056217
35.75 	0.060028 	4931 	0.058722
35.77 	0.060796 	4951 	0.059968
35.79 	0.062652 	4932 	0.061682
35.81 	0.065680 	4933 	0.064374
35.83 	0.063890 	4946 	0.063298
35.85 	0.056130 	4935 	0.055774
35.87 	0.057079 	4923 	0.056127
35.89 	0.055736 	4934 	0.054905
35.91 	0.063122 	4927 	0.061576
35.93 	0.058047 	4927 	0.057196
35.95 	0.065284 	4917 	0.064092
35.97 	0.059039 	4912 	0.057608
35.99 	0.060741 	4939 	0.059674
36.01 	0.059229 	4930 	0.058259
36.03 	0.059680 	4943 	0.058851
36.05 	0.064712 	4945 	0.063290
36.07 	0.061146 	4939 	0.060079
36.09 	0.055263 	4940 	0.054789
36.11 	0.060661 	4929 	0.059354
36.13 	0.063942 	4942 	0.062638
36.15 	0.060944 	4939 	0.059995
36.17 	0.058071 	4925 	0.057476
36.19 	0.061741 	4940 	0.060199
36.21 	0.064719 	4929 	0.063293
36.23 	0.064032 	4935 	0.063083
36.25 	0.060919 	4941 	0.060326
36.27 	0.064772 	4925 	0.063939
36.29 	0.061854 	4931 	0.061141
36.31 	0.061688 	4928 	0.060381
36.33 	0.069734 	4933 	0.068903
36.35 	0.060661 	4929 	0.059473
36.37 	0.061751 	4923 	0.060561
36.39 	0.057712 	4921 	0.056760
36.41 	0.062092 	4896 	0.060895
36.43 	0.061891 	4928 	0.061059
36.45 	0.065517 	4930 	0.064804
36.47 	0.065032 	4936 	0.064083
36.49 	0.059085 	4942 	0.057762
36.51 	0.058990 	4933 	0.058040
36.53 	0.060287 	4943 	0.059576
36.55 	0.059062 	4927 	0.058349
36.57 	0.058168 	4934 	0.057099
36.59 	0.057502 	4939 	0.056434
36.61 	0.065910 	4931 	0.065197
36.63 	0.058203 	4931 	0.057490
36.65 	0.060219 	4932 	0.059506
36.67 	0.058418 	4930 	0.057329
36.69 	0.069588 	4929 	0.068637
36.71 	0.053851 	4921 	0.053137
36.73 	0.058477 	4925 	0.057526
36.75 	0.056634 	4944 	0.055568
36.77 	0.062411 	4919 	0.061101
36.79 	0.065434 	4921 	0.064005
36.81 	0.063466 	4916 	0.062513
36.83 	0.059410 	4915 	0.058695
36.85 	0.058391 	4898 	0.057056
36.87 	0.064118 	4944 	0.062933
36.89 	0.062856 	4916 	0.061545
36.91 	0.068002 	4941 	0.067054
36.93 	0.058824 	4930 	0.057635
36.95 	0.063450 	4933 	0.062500
36.97 	0.063843 	4934 	0.063130
36.99 	0.061196 	4935 	0.059771
37.01 	0.068113 	4933 	0.067044
37.03 	0.064785 	4924 	0.063952
37.05 	0.054394 	4927 	0.053919
37.07 	0.063627 	4935 	0.062084
37.09 	0.064326 	4928 	0.063256
37.11 	0.058156 	4935 	0.057206
37.13 	0.058489 	4924 	0.057894
37.15 	0.065390 	4909 	0.064316
37.17 	0.060600 	4934 	0.059769
37.19 	0.056853 	4925 	0.055782
37.21 	0.064267 	4917 	0.062242
37.23 	0.066287 	4918 	0.064620
37.25 	0.068418 	4911 	0.067464
37.27 	0.055578 	4894 	0.054980
37.29 	0.067343 	4930 	0.065560
37.31 	0.062411 	4935 	0.061580
37.33 	0.063933 	4927 	0.062626
37.35 	0.062171 	4938 	0.060985
37.37 	0.058047 	4927 	0.056977
37.39 	0.056175 	4931 	0.055462
37.41 	0.065707 	4931 	0.065113
37.43 	0.064071 	4932 	0.062646
37.45 	0.059504 	4924 	0.059029
37.47 	0.061676 	4929 	0.060012
37.49 	0.063985 	4923 	0.061943
37.51 	0.058180 	4933 	0.057348
37.53 	0.056516 	4919 	0.055563
37.55 	0.058012 	4930 	0.056686
37.57 	0.056650 	4925 	0.055203
37.59 	0.062055 	4915 	0.060863
37.61 	0.053637 	4922 	0.052923
37.63 	0.059972 	4919 	0.058781
37.65 	0.056120 	4918 	0.054810
37.67 	0.060359 	4904 	0.059523
37.69 	0.069416 	4898 	0.068101
37.71 	0.061879 	4929 	0.061522
37.73 	0.054778 	4929 	0.054184
37.75 	0.051822 	4940 	0.051110
37.77 	0.061382 	4920 	0.060072
37.79 	0.059229 	4930 	0.058279
37.81 	0.060815 	4933 	0.059390
37.83 	0.056504 	4920 	0.055552
37.85 	0.058716 	4922 	0.058121
37.87 	0.055679 	4939 	0.055086
37.89 	0.061320 	4925 	0.060130
37.91 	0.058824 	4930 	0.057754
37.93 	0.061395 	4919 	0.059966
37.95 	0.059134 	4921 	0.058063
37.97 	0.055184 	4929 	0.054451
37.99 	0.056189 	4912 	0.055543
38.01 	0.058847 	4928 	0.057778
38.03 	0.056223 	4909 	0.055269
38.05 	0.058680 	4925 	0.057610
38.07 	0.051742 	4909 	0.051384
38.09 	0.055556 	4878 	0.054595
38.11 	0.053293 	4935 	0.052225
38.13 	0.056512 	4937 	0.055326
38.15 	0.054087 	4918 	0.053134
38.17 	0.056187 	4930 	0.054761
38.19 	0.060446 	4930 	0.059852
38.21 	0.054235 	4923 	0.053640
38.23 	0.062778 	4938 	0.061829
38.25 	0.053691 	4917 	0.052381
38.27 	0.051927 	4930 	0.051214
38.29 	0.059911 	4924 	0.059078
38.31 	0.053785 	4927 	0.053310
38.33 	0.055443 	4924 	0.054372
38.35 	0.057021 	4928 	0.056308
38.37 	0.059504 	4924 	0.058434
38.39 	0.063557 	4909 	0.063199
38.41 	0.066017 	4923 	0.064589
38.43 	0.064890 	4916 	0.063798
38.45 	0.061000 	4918 	0.060286
38.47 	0.066028 	4907 	0.065789
38.49 	0.066844 	4877 	0.065643
38.51 	0.069343 	4932 	0.068393
38.53 	0.076080 	4929 	0.074892
38.55 	0.068679 	4936 	0.067492
38.57 	0.070892 	4923 	0.068988
38.59 	0.075142 	4924 	0.073834
38.61 	0.076175 	4936 	0.074514
38.63 	0.088546 	4924 	0.087118
38.65 	0.072184 	4918 	0.070278
38.67 	0.084059 	4937 	0.082260
38.69 	0.086144 	4922 	0.084240
38.71 	0.083063 	4924 	0.080921
38.73 	0.079707 	4918 	0.078040
38.75 	0.086462 	4927 	0.083946
38.77 	0.080439 	4923 	0.078773
38.79 	0.083502 	4934 	0.081326
38.81 	0.083469 	4912 	0.081322
38.83 	0.075828 	4919 	0.072792
38.85 	0.080415 	4912 	0.078865
38.87 	0.074119 	4911 	0.071714
38.89 	0.078620 	4897 	0.077543
38.91 	0.067714 	4903 	0.066638
38.93 	0.066019 	4938 	0.064951
38.95 	0.060594 	4918 	0.059383
38.97 	0.064693 	4931 	0.063386
38.99 	0.060361 	4937 	0.059411
39.01 	0.061610 	4918 	0.060519
39.03 	0.056952 	4934 	0.055883
39.05 	0.051980 	4925 	0.050909
39.07 	0.054021 	4924 	0.052831
39.09 	0.051595 	4923 	0.051000
39.11 	0.045832 	4931 	0.045120
39.13 	0.048954 	4923 	0.048597
39.15 	0.050458 	4915 	0.049981
39.17 	0.050638 	4937 	0.049926
39.19 	0.045353 	4917 	0.044638
39.21 	0.044399 	4910 	0.043445
39.23 	0.052792 	4925 	0.051840
39.25 	0.053230 	4922 	0.052278
39.27 	0.051527 	4910 	0.050573
39.29 	0.053867 	4901 	0.053010
39.31 	0.048935 	4884 	0.048456
39.33 	0.047860 	4931 	0.046791
39.35 	0.048227 	4935 	0.047515
39.37 	0.048894 	4929 	0.048181
39.39 	0.044228 	4929 	0.043396
39.41 	0.044616 	4931 	0.044141
39.43 	0.041760 	4933 	0.041403
39.45 	0.044670 	4925 	0.044075
39.47 	0.045704 	4923 	0.045109
39.49 	0.049057 	4933 	0.048582
39.51 	0.048335 	4924 	0.047859
39.53 	0.046923 	4923 	0.046209
39.55 	0.045131 	4919 	0.044298
39.57 	0.052504 	4933 	0.051791
39.59 	0.045806 	4912 	0.045210
39.61 	0.047938 	4923 	0.047105
39.63 	0.050792 	4922 	0.050316
39.65 	0.044458 	4926 	0.043388
39.67 	0.047832 	4913 	0.047594
39.69 	0.042107 	4916 	0.041869
39.71 	0.045761 	4895 	0.045282
39.73 	0.043602 	4908 	0.042767
39.75 	0.045252 	4928 	0.044657
39.77 	0.044174 	4935 	0.043818
39.79 	0.050548 	4926 	0.049954
39.81 	0.047493 	4927 	0.046780
39.83 	0.043170 	4934 	0.042932
39.85 	0.044449 	4927 	0.043973
39.87 	0.044264 	4925 	0.043907
39.89 	0.046007 	4934 	0.045532
39.91 	0.049167 	4922 	0.048334
39.93 	0.048613 	4937 	0.048019
39.95 	0.045982 	4915 	0.045505
39.97 	0.044440 	4928 	0.043727
39.99 	0.048662 	4932 	0.047830
40.01 	0.051444 	4918 	0.050133
40.03 	0.043831 	4928 	0.042880
40.05 	0.045149 	4917 	0.044673
40.07 	0.047938 	4923 	0.046867
40.09 	0.046989 	4916 	0.046751
40.11 	0.043938 	4916 	0.043561
40.13 	0.044322 	4896 	0.043724
40.15 	0.049257 	4913 	0.048780
40.17 	0.047484 	4928 	0.047008
40.19 	0.044431 	4929 	0.043956
40.21 	0.042756 	4935 	0.041925
40.23 	0.050284 	4932 	0.049552
40.25 	0.043496 	4920 	0.043020
40.27 	0.045169 	4937 	0.044932
40.29 	0.043231 	4927 	0.042756
40.31 	0.046771 	4939 	0.046771
40.33 	0.043593 	4932 	0.043355
40.35 	0.048181 	4919 	0.047466
40.37 	0.044837 	4929 	0.044361
40.39 	0.044413 	4931 	0.043581
40.41 	0.049543 	4925 	0.048711
40.43 	0.046932 	4922 	0.045861
40.45 	0.043787 	4933 	0.043430
40.47 	0.047174 	4918 	0.045983
40.49 	0.041007 	4926 	0.040531
40.51 	0.045510 	4922 	0.045034
40.53 	0.040887 	4916 	0.040529
40.55 	0.041565 	4908 	0.040968
40.57 	0.041718 	4890 	0.041239
40.59 	0.041726 	4937 	0.041132
40.61 	0.045593 	4935 	0.044762
40.63 	0.043408 	4930 	0.042814
40.65 	0.043751 	4937 	0.043633
40.67 	0.041363 	4932 	0.040769
40.69 	0.041321 	4937 	0.040490
40.71 	0.043187 	4932 	0.042099
40.73 	0.043443 	4926 	0.042848
40.75 	0.043602 	4931 	0.043364
40.77 	0.045961 	4939 	0.045368
40.79 	0.045695 	4924 	0.045219
40.81 	0.045133 	4941 	0.044777
40.83 	0.045657 	4928 	0.044825
40.85 	0.043258 	4924 	0.042663
40.87 	0.045455 	4928 	0.044979
40.89 	0.049483 	4931 	0.048651
40.91 	0.046516 	4923 	0.045564
40.93 	0.046210 	4934 	0.045616
40.95 	0.042947 	4913 	0.042113
40.97 	0.041836 	4924 	0.041479
40.99 	0.049959 	4924 	0.049602
41.01 	0.047028 	4912 	0.046193
41.03 	0.041998 	4905 	0.041401
41.05 	0.041734 	4936 	0.041259
41.07 	0.044016 	4930 	0.043541
41.09 	0.037659 	4939 	0.037066
41.11 	0.045998 	4935 	0.045642
41.13 	0.046191 	4936 	0.045717
41.15 	0.040478 	4941 	0.039885
41.17 	0.040535 	4934 	0.040298
41.19 	0.044016 	4930 	0.043660
41.21 	0.050030 	4937 	0.049318
41.23 	0.041709 	4939 	0.041353
41.25 	0.047233 	4933 	0.046877
41.27 	0.040357 	4931 	0.039882
41.29 	0.039773 	4928 	0.039297
41.31 	0.042773 	4933 	0.041942
41.33 	0.041928 	4937 	0.041454
41.35 	0.038275 	4938 	0.037800
41.37 	0.049959 	4924 	0.049127
41.39 	0.042773 	4933 	0.041942
41.41 	0.045676 	4926 	0.045319
41.43 	0.044837 	4929 	0.043886
41.45 	0.041107 	4914 	0.040630
41.47 	0.039586 	4926 	0.038635
41.49 	0.044971 	4892 	0.044373
41.51 	0.041700 	4940 	0.041108
41.53 	0.045105 	4944 	0.044750
41.55 	0.045390 	4935 	0.045034
41.57 	0.041894 	4941 	0.041519
41.59 	0.040949 	4933 	0.040355
41.61 	0.045427 	4953 	0.044836
41.63 	0.040907 	4938 	0.040077
41.65 	0.039156 	4929 	0.038562
41.67 	0.044332 	4940 	0.043858
41.69 	0.043663 	4947 	0.043071
41.71 	0.037698 	4934 	0.036985
41.73 	0.043152 	4936 	0.042678
41.75 	0.045242 	4929 	0.044767
41.77 	0.044525 	4941 	0.044525
41.79 	0.042476 	4944 	0.041883
41.81 	0.041329 	4936 	0.040261
41.83 	0.038149 	4928 	0.037793
41.85 	0.043734 	4939 	0.043022
41.87 	0.042756 	4935 	0.041569
41.89 	0.041962 	4933 	0.041606
41.91 	0.041126 	4936 	0.040770
41.93 	0.035888 	4932 	0.035057
41.95 	0.045427 	4931 	0.044833
41.97 	0.039886 	4914 	0.039648
41.99 	0.038532 	4905 	0.038293
42.01 	0.046338 	4942 	0.045745
42.03 	0.041304 	4939 	0.040829
42.05 	0.039782 	4952 	0.039190
42.07 	0.043954 	4937 	0.043479
42.09 	0.041027 	4948 	0.040435
42.11 	0.041254 	4945 	0.040780
42.13 	0.037209 	4945 	0.036972
42.15 	0.038477 	4938 	0.037765
42.17 	0.037414 	4918 	0.036818
42.19 	0.040750 	4908 	0.040392
42.21 	0.037951 	4901 	0.037473
42.23 	0.038635 	4892 	0.037796
42.25 	0.044999 	4889 	0.044160
42.27 	0.044112 	4874 	0.043511
42.29 	0.043594 	4863 	0.043233
42.31 	0.042225 	4855 	0.041621
42.33 	0.043235 	4834 	0.042872
42.35 	0.039479 	4838 	0.039116
42.37 	0.040166 	4830 	0.039802
42.39 	0.043922 	4804 	0.043678
42.41 	0.039134 	4804 	0.038524
42.43 	0.037771 	4792 	0.037649
42.45 	0.043551 	4776 	0.042938
42.47 	0.043652 	4765 	0.042914
42.49 	0.038615 	4765 	0.038123
42.51 	0.041535 	4743 	0.041041
42.53 	0.038917 	4728 	0.038545
42.55 	0.041206 	4708 	0.040833
42.57 	0.043129 	4730 	0.042366
42.59 	0.041658 	4729 	0.041039
42.61 	0.041419 	4708 	0.041294
42.63 	0.039711 	4709 	0.039462
42.65 	0.041195 	4685 	0.040570
42.67 	0.039283 	4684 	0.038907
42.69 	0.039153 	4674 	0.038902
42.71 	0.040746 	4663 	0.039993
42.73 	0.035776 	4640 	0.035523
42.75 	0.033788 	4617 	0.033408
42.77 	0.038696 	4600 	0.038568
42.79 	0.034919 	4582 	0.034536
42.81 	0.033319 	4562 	0.033190
42.83 	0.034392 	4536 	0.033746
42.85 	0.042182 	4528 	0.042053
42.87 	0.039342 	4499 	0.039082
42.89 	0.045982 	4480 	0.045067
42.91 	0.039048 	4456 	0.038786
42.93 	0.036887 	4446 	0.036624
42.95 	0.043252 	4416 	0.042323
42.97 	0.040445 	4401 	0.040312
42.99 	0.041505 	4385 	0.041104
43.01 	0.040798 	4363 	0.040663
43.03 	0.043388 	4333 	0.042577
43.05 	0.044393 	4325 	0.043987
43.07 	0.038175 	4296 	0.038175
43.09 	0.037824 	4283 	0.037414
43.11 	0.039718 	4255 	0.039167
43.13 	0.034222 	4237 	0.033946
43.15 	0.040418 	4206 	0.039861
43.17 	0.039244 	4179 	0.038963
43.19 	0.047449 	4194 	0.046611
43.21 	0.036673 	4172 	0.036533
43.23 	0.037313 	4154 	0.036608
43.25 	0.039178 	4135 	0.037879
43.27 	0.037028 	4105 	0.036600
43.29 	0.040000 	4100 	0.039429
43.31 	0.044619 	4079 	0.044475
43.33 	0.037768 	4051 	0.036901
43.35 	0.033978 	4032 	0.033688
43.37 	0.041096 	4015 	0.040804
43.39 	0.035732 	4002 	0.035000
43.41 	0.033988 	3972 	0.033840
43.43 	0.040909 	3960 	0.040317
43.45 	0.036341 	3935 	0.035894
43.47 	0.039786 	3921 	0.039188
43.49 	0.043110 	3897 	0.042960
43.51 	0.041011 	3877 	0.041011
43.53 	0.040642 	3863 	0.040187
43.55 	0.037787 	2964 	0.037194
43.57 	0.036640 	2238 	0.036378
43.59 	0.035510 	1746 	0.035510
43.61 	0.031088 	1351 	0.030654
43.63 	0.029970 	1001 	0.029970
43.65 	0.040757 	687 	0.040757
43.67 	0.041833 	502 	0.041833
43.69 	0.035422 	367 	0.035422
43.71 	0.033473 	239 	0.031022
43.73 	0.041667 	120 	0.041667
43.75 	0.062500 	16 	0.062500