File: Example_Data/25SC_s1_0022.001.dat
#F C:\frames\spec\25SC_s1_0022.001
#C title =s:22 frm:1 25SC_s1
#C wavelength =0.15406

#S 1  fr_average C:\frames\spec\25SC_s1_0022.001 C:\win32app\speccom\mask.axs chi 0 180 0 360 0.02
#C 2 theta =0.000000 to 180 deg
#C   q   =0.000000 to 81.568 nm^-1
#C  chi  =0.000000 to 360 deg
#C collumns:
#C  1 position (2theta or chi in degrees)
#C  2 average intensity (sum of all counts in the region divided with number of pixels)
#C  3 Number of pixels in region)
#C  4 error (sum of sqrt(intensity) for all pixels divided by number)
#N 4
#L TTh  Int  N_pix  Err
32.99 	0.000000 	61 	0.000000
33.01 	0.061856 	873 	0.061185
33.03 	0.060388 	1391 	0.058283
33.05 	0.062607 	1757 	0.060885
33.07 	0.051220 	2050 	0.050362
33.09 	0.058372 	2347 	0.057624
33.11 	0.060876 	2579 	0.059968
33.13 	0.057644 	2793 	0.056805
33.15 	0.060687 	2999 	0.059124
33.17 	0.055920 	3201 	0.054975
33.19 	0.061939 	3342 	0.060887
33.21 	0.060827 	3436 	0.059804
33.23 	0.065285 	3523 	0.063456
33.25 	0.059524 	3612 	0.058226
33.27 	0.056749 	3630 	0.056588
33.29 	0.057840 	3648 	0.056716
33.31 	0.057650 	3660 	0.056530
33.33 	0.056158 	3686 	0.054887
33.35 	0.061451 	3694 	0.060341
33.37 	0.055735 	3714 	0.055104
33.39 	0.059533 	3729 	0.058434
33.41 	0.060160 	3740 	0.058751
33.43 	0.065940 	3761 	0.064850
33.45 	0.067851 	3773 	0.066453
33.47 	0.063191 	3798 	0.062266
33.49 	0.057758 	3809 	0.056195
33.51 	0.063696 	3815 	0.062928
33.53 	0.061703 	3841 	0.060788
33.55 	0.058808 	3843 	0.057741
33.57 	0.061904 	3877 	0.060695
33.59 	0.051804 	3880 	0.050747
33.61 	0.060629 	3909 	0.059706
33.63 	0.063281 	3919 	0.062833
33.65 	0.057492 	3931 	0.056896
33.67 	0.057663 	3954 	0.056626
33.69 	0.063496 	3953 	0.062311
33.71 	0.059371 	3975 	0.058487
33.73 	0.051449 	4004 	0.050571
33.75 	0.058265 	3999 	0.056800
33.77 	0.063106 	4025 	0.061214
33.79 	0.056174 	4041 	0.055739
33.81 	0.059931 	4038 	0.058335
33.83 	0.058765 	4050 	0.057874
33.85 	0.064406 	4099 	0.062834
33.87 	0.059596 	4111 	0.058290
33.89 	0.055084 	4121 	0.053781
33.91 	0.057122 	4149 	0.055993
33.93 	0.060467 	4151 	0.059197
33.95 	0.062904 	4181 	0.061503
33.97 	0.063723 	4190 	0.062045
33.99 	0.058571 	4200 	0.057154
34.01 	0.062901 	4213 	0.062622
34.03 	0.053723 	4244 	0.053033
34.05 	0.059501 	4252 	0.058377
34.07 	0.057170 	4268 	0.055660
34.09 	0.054363 	4286 	0.052996
34.11 	0.059042 	4302 	0.057931
34.13 	0.062210 	4308 	0.061122
34.15 	0.059801 	4331 	0.058427
34.17 	0.053103 	4350 	0.052161
34.19 	0.055479 	4362 	0.054136
34.21 	0.065202 	4371 	0.064532
34.23 	0.056681 	4393 	0.056014
34.25 	0.055858 	4404 	0.055171
34.27 	0.059701 	4422 	0.057979
34.29 	0.052762 	4435 	0.051838
34.31 	0.054284 	4458 	0.053627
34.33 	0.059047 	4471 	0.058654
34.35 	0.056646 	4484 	0.055339
34.37 	0.058339 	4491 	0.057948
34.39 	0.052643 	4502 	0.051732
34.41 	0.072912 	4526 	0.071230
34.43 	0.060145 	4539 	0.059500
34.45 	0.059096 	4535 	0.058170
34.47 	0.056620 	4592 	0.055727
34.49 	0.062214 	4597 	0.060558
34.51 	0.054928 	4606 	0.054038
34.53 	0.056644 	4643 	0.055383
34.55 	0.059444 	4643 	0.057930
34.57 	0.058369 	4660 	0.056986
34.59 	0.057968 	4675 	0.057216
34.61 	0.052374 	4697 	0.052000
34.63 	0.057749 	4710 	0.057003
34.65 	0.053379 	4721 	0.052882
34.67 	0.057794 	4741 	0.057052
34.69 	0.060160 	4754 	0.059297
34.71 	0.057491 	4766 	0.056384
34.73 	0.055567 	4787 	0.054833
34.75 	0.054700 	4808 	0.053604
34.77 	0.052511 	4818 	0.051276
34.79 	0.057629 	4824 	0.056414
34.81 	0.055934 	4845 	0.055329
34.83 	0.055738 	4862 	0.054413
34.85 	0.054221 	4869 	0.053378
34.87 	0.053410 	4868 	0.052568
34.89 	0.052233 	4882 	0.051633
34.91 	0.060016 	4882 	0.059296
34.93 	0.056950 	4899 	0.055874
34.95 	0.053988 	4890 	0.053149
34.97 	0.056712 	4902 	0.056114
34.99 	0.059016 	4897 	0.057939
35.01 	0.055454 	4923 	0.054383
35.03 	0.060287 	4943 	0.059102
35.05 	0.056802 	4947 	0.056092
35.07 	0.057692 	4940 	0.056744
35.09 	0.060367 	4953 	0.059185
35.11 	0.058217 	4947 	0.057033
35.13 	0.053852 	4958 	0.053498
35.15 	0.052056 	4937 	0.050988
35.17 	0.058229 	4946 	0.056926
35.19 	0.049170 	4942 	0.047985
35.21 	0.063498 	4945 	0.062195
35.23 	0.055612 	4945 	0.055019
35.25 	0.059073 	4943 	0.058718
35.27 	0.055376 	4948 	0.054666
35.29 	0.051972 	4945 	0.051379
35.31 	0.059599 	4933 	0.058035
35.33 	0.048958 	4943 	0.048010
35.35 	0.057669 	4942 	0.056839
35.37 	0.054464 	4939 	0.054227
35.39 	0.060870 	4945 	0.060277
35.41 	0.058059 	4926 	0.057108
35.43 	0.056963 	4933 	0.056350
35.45 	0.061981 	4937 	0.061269
35.47 	0.056581 	4931 	0.055987
35.49 	0.050916 	4910 	0.050300
35.51 	0.057653 	4926 	0.056464
35.53 	0.057587 	4949 	0.056877
35.55 	0.059454 	4945 	0.057875
35.57 	0.058180 	4933 	0.056755
35.59 	0.053387 	4945 	0.051847
35.61 	0.062525 	4942 	0.061202
35.63 	0.054420 	4943 	0.053472
35.65 	0.056623 	4945 	0.056031
35.67 	0.056050 	4942 	0.054746
35.69 	0.059846 	4946 	0.058544
35.71 	0.056512 	4937 	0.055425
35.73 	0.056321 	4936 	0.055253
35.75 	0.053539 	4931 	0.052707
35.77 	0.059382 	4951 	0.058554
35.79 	0.049676 	4932 	0.048725
35.81 	0.056963 	4933 	0.055538
35.83 	0.055600 	4946 	0.054397
35.85 	0.063830 	4935 	0.062880
35.87 	0.057079 	4923 	0.055889
35.89 	0.057154 	4934 	0.056680
35.91 	0.057845 	4927 	0.057131
35.93 	0.059874 	4927 	0.058923
35.95 	0.056539 	4917 	0.055943
35.97 	0.061686 	4912 	0.060493
35.99 	0.054869 	4939 	0.053782
36.01 	0.061866 	4930 	0.061391
36.03 	0.054825 	4943 	0.053758
36.05 	0.054398 	4945 	0.053214
36.07 	0.061348 	4939 	0.060044
36.09 	0.056883 	4940 	0.056171
36.11 	0.064313 	4929 	0.063244
36.13 	0.059085 	4942 	0.058374
36.15 	0.063576 	4939 	0.063220
36.17 	0.058477 	4925 	0.057526
36.19 	0.050405 	4940 	0.049575
36.21 	0.057415 	4929 	0.056108
36.23 	0.054509 	4935 	0.053322
36.25 	0.057276 	4941 	0.055972
36.27 	0.061726 	4925 	0.060536
36.29 	0.053944 	4931 	0.053687
36.31 	0.054992 	4928 	0.054398
36.33 	0.058990 	4933 	0.058397
36.35 	0.051938 	4929 	0.051343
36.37 	0.061142 	4923 	0.060666
36.39 	0.055477 	4921 	0.054148
36.41 	0.062500 	4896 	0.061782
36.43 	0.056615 	4928 	0.055427
36.45 	0.060041 	4930 	0.059446
36.47 	0.058347 	4936 	0.057378
36.49 	0.050992 	4942 	0.050517
36.51 	0.060409 	4933 	0.059934
36.53 	0.060287 	4943 	0.059576
36.55 	0.062107 	4927 	0.061136
36.57 	0.057154 	4934 	0.056205
36.59 	0.062563 	4939 	0.061614
36.61 	0.056581 	4931 	0.055630
36.63 	0.052930 	4931 	0.052574
36.65 	0.056569 	4932 	0.054867
36.67 	0.060446 	4930 	0.059496
36.69 	0.060053 	4929 	0.058350
36.71 	0.063808 	4921 	0.062618
36.73 	0.057056 	4925 	0.056461
36.75 	0.058455 	4944 	0.057744
36.77 	0.055092 	4919 	0.054616
36.79 	0.061370 	4921 	0.060774
36.81 	0.059805 	4916 	0.058613
36.83 	0.055748 	4915 	0.055152
36.85 	0.056554 	4898 	0.055079
36.87 	0.060073 	4944 	0.058651
36.89 	0.063263 	4916 	0.061595
36.91 	0.050395 	4941 	0.049328
36.93 	0.054767 	4930 	0.053697
36.95 	0.057166 	4933 	0.056335
36.97 	0.061005 	4934 	0.060174
36.99 	0.052482 	4935 	0.051177
37.01 	0.053923 	4933 	0.053091
37.03 	0.062145 	4924 	0.061669
37.05 	0.056018 	4927 	0.055067
37.07 	0.059980 	4935 	0.059386
37.09 	0.057427 	4928 	0.056575
37.11 	0.057548 	4935 	0.056717
37.13 	0.057474 	4924 	0.056760
37.15 	0.058668 	4909 	0.057336
37.17 	0.059384 	4934 	0.058197
37.19 	0.058071 	4925 	0.056724
37.21 	0.055318 	4917 	0.054723
37.23 	0.052664 	4918 	0.051711
37.25 	0.056811 	4911 	0.056334
37.27 	0.057009 	4894 	0.055931
37.29 	0.055578 	4930 	0.054984
37.31 	0.058156 	4935 	0.057325
37.33 	0.052567 	4927 	0.051735
37.35 	0.055691 	4938 	0.054504
37.37 	0.059265 	4927 	0.058433
37.39 	0.056784 	4931 	0.055596
37.41 	0.049888 	4931 	0.049176
37.43 	0.057989 	4932 	0.057157
37.45 	0.057677 	4924 	0.056467
37.47 	0.053763 	4929 	0.052555
37.49 	0.053626 	4923 	0.053150
37.51 	0.050882 	4933 	0.050526
37.53 	0.055296 	4919 	0.054224
37.55 	0.058215 	4930 	0.057621
37.57 	0.059898 	4925 	0.059304
37.59 	0.058393 	4915 	0.057201
37.61 	0.056481 	4922 	0.055886
37.63 	0.055702 	4919 	0.055107
37.65 	0.047377 	4918 	0.046662
37.67 	0.050979 	4904 	0.050023
37.69 	0.052879 	4898 	0.052281
37.71 	0.051329 	4929 	0.050972
37.73 	0.054981 	4929 	0.054387
37.75 	0.052834 	4940 	0.051885
37.77 	0.054878 	4920 	0.054045
37.79 	0.054970 	4930 	0.054019
37.81 	0.051895 	4933 	0.051302
37.83 	0.051016 	4920 	0.050778
37.85 	0.053027 	4922 	0.052551
37.87 	0.054060 	4939 	0.053467
37.89 	0.051371 	4925 	0.051014
37.91 	0.051724 	4930 	0.050992
37.93 	0.050823 	4919 	0.050228
37.95 	0.055477 	4921 	0.055000
37.97 	0.055995 	4929 	0.055401
37.99 	0.052932 	4912 	0.051739
38.01 	0.056209 	4928 	0.054664
38.03 	0.053982 	4909 	0.053505
38.05 	0.059492 	4925 	0.058898
38.07 	0.054594 	4909 	0.053878
38.09 	0.058631 	4878 	0.057550
38.11 	0.056130 	4935 	0.055299
38.13 	0.059145 	4937 	0.058552
38.15 	0.060594 	4918 	0.058688
38.17 	0.056389 	4930 	0.055201
38.19 	0.064300 	4930 	0.063350
38.21 	0.051595 	4923 	0.051000
38.23 	0.054273 	4938 	0.053186
38.25 	0.065284 	4917 	0.063854
38.27 	0.060243 	4930 	0.059530
38.29 	0.061129 	4924 	0.060296
38.31 	0.063325 	4927 	0.061779
38.33 	0.060723 	4924 	0.059533
38.35 	0.064529 	4928 	0.063697
38.37 	0.069253 	4924 	0.068182
38.39 	0.066816 	4909 	0.065265
38.41 	0.067032 	4923 	0.065842
38.43 	0.064280 	4916 	0.062969
38.45 	0.068320 	4918 	0.067010
38.47 	0.071938 	4907 	0.070744
38.49 	0.064999 	4877 	0.063798
38.51 	0.069749 	4932 	0.068561
38.53 	0.068777 	4929 	0.067687
38.55 	0.075770 	4936 	0.074227
38.57 	0.068454 	4923 	0.066611
38.59 	0.067831 	4924 	0.066403
38.61 	0.076175 	4936 	0.073683
38.63 	0.072705 	4924 	0.071396
38.65 	0.074217 	4918 	0.073026
38.67 	0.074134 	4937 	0.073304
38.69 	0.072125 	4922 	0.070816
38.71 	0.072705 	4924 	0.071278
38.73 	0.067100 	4918 	0.065790
38.75 	0.067993 	4927 	0.066566
38.77 	0.072314 	4923 	0.071005
38.79 	0.061208 	4934 	0.059427
38.81 	0.062093 	4912 	0.060900
38.83 	0.062004 	4919 	0.061052
38.85 	0.059039 	4912 	0.058443
38.87 	0.053757 	4911 	0.052564
38.89 	0.057178 	4897 	0.056580
38.91 	0.053029 	4903 	0.052312
38.93 	0.057513 	4938 	0.056090
38.95 	0.048800 	4918 	0.048205
38.97 	0.053742 	4931 	0.052316
38.99 	0.049220 	4937 	0.048627
39.01 	0.051037 	4918 	0.050799
39.03 	0.045197 	4934 	0.045078
39.05 	0.054010 	4925 	0.053415
39.07 	0.050772 	4924 	0.050534
39.09 	0.048548 	4923 	0.047953
39.11 	0.048874 	4931 	0.048280
39.13 	0.046923 	4923 	0.045971
39.15 	0.046592 	4915 	0.046115
39.17 	0.049625 	4937 	0.049269
39.19 	0.045760 	4917 	0.044906
39.21 	0.053768 	4910 	0.053291
39.23 	0.044873 	4925 	0.044397
39.25 	0.042869 	4922 	0.042155
39.27 	0.042770 	4910 	0.042054
39.29 	0.052234 	4901 	0.051278
39.31 	0.053849 	4884 	0.053250
39.33 	0.050700 	4931 	0.050224
39.35 	0.042351 	4935 	0.041757
39.37 	0.041793 	4929 	0.041080
39.39 	0.043822 	4929 	0.043109
39.41 	0.041371 	4931 	0.040658
39.43 	0.046017 	4933 	0.045542
39.45 	0.044467 	4925 	0.043753
39.47 	0.044079 	4923 	0.043960
39.49 	0.044395 	4933 	0.043801
39.51 	0.040008 	4924 	0.039294
39.53 	0.045501 	4923 	0.044787
39.55 	0.044521 	4919 	0.044045
39.57 	0.041760 	4933 	0.041403
39.59 	0.040513 	4912 	0.040275
39.61 	0.044688 	4923 	0.043617
39.63 	0.042869 	4922 	0.042750
39.65 	0.046691 	4926 	0.045978
39.67 	0.044779 	4913 	0.044302
39.69 	0.047803 	4916 	0.047088
39.71 	0.049234 	4895 	0.048755
39.73 	0.043399 	4908 	0.043040
39.75 	0.047078 	4928 	0.046107
39.77 	0.047416 	4935 	0.046586
39.79 	0.044864 	4926 	0.044269
39.81 	0.047696 	4927 	0.047102
39.83 	0.043373 	4934 	0.042779
39.85 	0.043840 	4927 	0.043246
39.87 	0.040406 	4925 	0.039692
39.89 	0.043373 	4934 	0.043135
39.91 	0.046119 	4922 	0.045048
39.93 	0.044156 	4937 	0.043563
39.95 	0.045371 	4915 	0.044418
39.97 	0.042614 	4928 	0.042138
39.99 	0.045823 	4932 	0.045111
40.01 	0.048597 	4918 	0.047525
40.03 	0.040381 	4928 	0.040144
40.05 	0.040268 	4917 	0.039554
40.07 	0.046313 	4923 	0.046194
40.09 	0.044345 	4916 	0.043511
40.11 	0.043328 	4916 	0.042593
40.13 	0.043913 	4896 	0.043435
40.15 	0.048646 	4913 	0.047573
40.17 	0.044846 	4928 	0.044251
40.19 	0.042402 	4929 	0.041808
40.21 	0.043364 	4935 	0.043126
40.23 	0.049878 	4932 	0.049166
40.25 	0.046138 	4920 	0.045662
40.27 	0.041523 	4937 	0.041167
40.29 	0.042216 	4927 	0.041622
40.31 	0.044948 	4939 	0.044118
40.33 	0.044404 	4932 	0.043810
40.35 	0.044521 	4919 	0.044045
40.37 	0.039562 	4929 	0.038968
40.39 	0.043196 	4931 	0.042721
40.41 	0.044467 	4925 	0.043872
40.43 	0.042056 	4922 	0.041580
40.45 	0.041151 	4933 	0.040558
40.47 	0.039854 	4918 	0.039615
40.49 	0.047097 	4926 	0.046621
40.51 	0.041447 	4922 	0.041090
40.53 	0.039666 	4916 	0.039309
40.55 	0.045232 	4908 	0.045113
40.57 	0.038650 	4890 	0.038411
40.59 	0.040308 	4937 	0.039715
40.61 	0.045187 	4935 	0.044831
40.63 	0.042191 	4930 	0.041478
40.65 	0.046384 	4937 	0.045435
40.67 	0.047648 	4932 	0.046817
40.69 	0.046587 	4937 	0.045875
40.71 	0.044404 	4932 	0.044166
40.73 	0.047503 	4926 	0.046790
40.75 	0.042791 	4931 	0.042553
40.77 	0.041506 	4939 	0.040676
40.79 	0.043664 	4924 	0.042950
40.81 	0.037644 	4941 	0.037289
40.83 	0.043425 	4928 	0.043188
40.85 	0.039602 	4924 	0.039007
40.87 	0.047484 	4928 	0.046176
40.89 	0.042791 	4931 	0.042672
40.91 	0.044891 	4923 	0.044296
40.93 	0.042562 	4934 	0.042206
40.95 	0.039487 	4913 	0.038772
40.97 	0.042242 	4924 	0.042123
40.99 	0.047725 	4924 	0.047131
41.01 	0.039902 	4912 	0.039425
41.03 	0.038328 	4905 	0.037970
41.05 	0.047002 	4936 	0.046290
41.07 	0.039148 	4930 	0.038910
41.09 	0.037255 	4939 	0.036780
41.11 	0.042553 	4935 	0.042078
41.13 	0.045178 	4936 	0.044229
41.15 	0.044728 	4941 	0.044135
41.17 	0.041751 	4934 	0.041276
41.19 	0.038742 	4930 	0.038148
41.21 	0.038687 	4937 	0.038332
41.23 	0.043936 	4939 	0.043580
41.25 	0.045814 	4933 	0.045339
41.27 	0.044210 	4931 	0.043616
41.29 	0.040179 	4928 	0.039465
41.31 	0.043787 	4933 	0.043312
41.33 	0.042333 	4937 	0.041384
41.35 	0.047995 	4938 	0.047283
41.37 	0.042039 	4924 	0.041801
41.39 	0.040543 	4933 	0.039950
41.41 	0.041413 	4926 	0.041056
41.43 	0.040576 	4929 	0.040220
41.45 	0.040700 	4914 	0.040223
41.47 	0.044255 	4926 	0.043660
41.49 	0.038021 	4892 	0.037423
41.51 	0.038462 	4940 	0.038224
41.53 	0.043487 	4944 	0.043250
41.55 	0.039716 	4935 	0.039242
41.57 	0.038859 	4941 	0.038621
41.59 	0.041354 	4933 	0.040879
41.61 	0.044216 	4953 	0.043861
41.63 	0.042932 	4938 	0.041983
41.65 	0.040170 	4929 	0.039319
41.67 	0.035830 	4940 	0.035356
41.69 	0.037194 	4947 	0.036839
41.71 	0.036076 	4934 	0.035839
41.73 	0.032010 	4936 	0.031416
41.75 	0.038547 	4929 	0.038072
41.77 	0.036025 	4941 	0.036025
41.79 	0.038026 	4944 	0.037414
41.81 	0.036872 	4936 	0.036635
41.83 	0.035308 	4928 	0.034952
41.85 	0.039077 	4939 	0.038128
41.87 	0.040527 	4935 	0.040408
41.89 	0.037705 	4933 	0.037468
41.91 	0.039708 	4936 	0.039115
41.93 	0.040957 	4932 	0.040601
41.95 	0.035084 	4931 	0.034490
41.97 	0.041514 	4914 	0.041137
41.99 	0.040571 	4905 	0.039854
42.01 	0.039660 	4942 	0.038949
42.03 	0.039077 	4939 	0.038721
42.05 	0.040388 	4952 	0.039540
42.07 	0.038687 	4937 	0.037976
42.09 	0.039006 	4948 	0.038887
42.11 	0.040647 	4945 	0.040292
42.13 	0.041860 	4945 	0.040676
42.15 	0.039490 	4938 	0.038778
42.17 	0.040870 	4918 	0.040374
42.19 	0.042787 	4908 	0.042310
42.21 	0.041012 	4901 	0.040295
42.23 	0.038430 	4892 	0.037831
42.25 	0.036817 	4889 	0.036458
42.27 	0.037751 	4874 	0.037751
42.29 	0.042566 	4863 	0.041362
42.31 	0.037693 	4855 	0.037452
42.33 	0.035374 	4834 	0.034991
42.35 	0.038652 	4838 	0.038410
42.37 	0.042650 	4830 	0.041195
42.39 	0.039967 	4804 	0.039601
42.41 	0.037052 	4804 	0.036687
42.43 	0.037563 	4792 	0.036951
42.45 	0.040201 	4776 	0.039956
42.47 	0.038615 	4765 	0.038123
42.49 	0.041133 	4765 	0.040642
42.51 	0.040481 	4743 	0.040234
42.53 	0.036168 	4728 	0.035920
42.55 	0.034622 	4708 	0.034249
42.57 	0.039323 	4730 	0.038952
42.59 	0.041869 	4729 	0.041374
42.61 	0.035896 	4708 	0.035896
42.63 	0.038012 	4709 	0.037764
42.65 	0.041409 	4685 	0.041159
42.67 	0.035867 	4684 	0.035367
42.69 	0.034874 	4674 	0.034748
42.71 	0.035599 	4663 	0.035348
42.73 	0.037500 	4640 	0.037121
42.75 	0.039420 	4617 	0.039039
42.77 	0.035652 	4600 	0.035525
42.79 	0.035574 	4582 	0.034914
42.81 	0.044498 	4562 	0.043471
42.83 	0.040344 	4536 	0.039956
42.85 	0.039973 	4528 	0.039197
42.87 	0.042232 	4499 	0.042101
42.89 	0.038170 	4480 	0.037647
42.91 	0.035682 	4456 	0.035288
42.93 	0.038012 	4446 	0.037880
42.95 	0.035326 	4416 	0.035061
42.97 	0.034992 	4401 	0.034593
42.99 	0.033751 	4385 	0.033351
43.01 	0.037589 	4363 	0.037320
43.03 	0.031156 	4333 	0.031156
43.05 	0.042775 	4325 	0.042639
43.07 	0.037709 	4296 	0.037164
43.09 	0.043428 	4283 	0.043017
43.11 	0.035018 	4255 	0.034467
43.13 	0.039651 	4237 	0.039374
43.15 	0.034950 	4206 	0.034509
43.17 	0.035894 	4179 	0.035613
43.19 	0.038150 	4194 	0.037870
43.21 	0.034756 	4172 	0.034334
43.23 	0.034425 	4154 	0.034143
43.25 	0.041354 	4135 	0.040504
43.27 	0.037759 	4105 	0.037331
43.29 	0.041463 	4100 	0.040892
43.31 	0.036529 	4079 	0.036241
43.33 	0.041965 	4051 	0.041242
43.35 	0.035714 	4032 	0.035569
43.37 	0.036115 	4015 	0.035823
43.39 	0.033233 	4002 	0.032648
43.41 	0.039778 	3972 	0.039483
43.43 	0.039646 	3960 	0.039203
43.45 	0.050318 	3935 	0.049871
43.47 	0.038766 	3921 	0.038317
43.49 	0.046446 	3897 	0.046145
43.51 	0.038174 	3877 	0.037872
43.53 	0.043748 	3863 	0.042990
43.55 	0.038799 	2964 	0.038206
43.57 	0.042002 	2238 	0.040650
43.59 	0.030928 	1746 	0.030592
43.61 	0.035529 	1351 	0.034662
43.63 	0.032967 	1001 	0.032382
43.65 	0.049491 	687 	0.048638
43.67 	0.021912 	502 	0.021912
43.69 	0.024523 	367 	0.024523
43.71 	0.020921 	239 	0.020921
43.73 	0.033333 	120 	0.033333
43.75 	0.000000 	16 	0.000000