File: Example_Data/25SC_s1_0025.003.dat
#F C:\frames\spec\25SC_s1_0025.003
#C title =s:25 frm:3 25SC_s1
#C wavelength =0.15406

#S 1  fr_average C:\frames\spec\25SC_s1_0025.003 C:\win32app\speccom\mask.axs chi 0 180 0 360 0.02
#C 2 theta =0.000000 to 180 deg
#C   q   =0.000000 to 81.568 nm^-1
#C  chi  =0.000000 to 360 deg
#C collumns:
#C  1 position (2theta or chi in degrees)
#C  2 average intensity (sum of all counts in the region divided with number of pixels)
#C  3 Number of pixels in region)
#C  4 error (sum of sqrt(intensity) for all pixels divided by number)
#N 4
#L TTh  Int  N_pix  Err
32.99 	0.065574 	61 	0.065574
33.01 	0.057274 	873 	0.057274
33.03 	0.058950 	1391 	0.056845
33.05 	0.070575 	1757 	0.069575
33.07 	0.060488 	2050 	0.059631
33.09 	0.064337 	2347 	0.062840
33.11 	0.057387 	2579 	0.056251
33.13 	0.060866 	2793 	0.060237
33.15 	0.065022 	2999 	0.063850
33.17 	0.058732 	3201 	0.057085
33.19 	0.061939 	3342 	0.060361
33.21 	0.055006 	3436 	0.054153
33.23 	0.055634 	3523 	0.054470
33.25 	0.060354 	3612 	0.058868
33.27 	0.055372 	3630 	0.054404
33.29 	0.060581 	3648 	0.059939
33.31 	0.059836 	3660 	0.058876
33.33 	0.062941 	3686 	0.062146
33.35 	0.057390 	3694 	0.056280
33.37 	0.055197 	3714 	0.054250
33.39 	0.065701 	3729 	0.063816
33.41 	0.059626 	3740 	0.058686
33.43 	0.060090 	3761 	0.059130
33.45 	0.059104 	3773 	0.058328
33.47 	0.061611 	3798 	0.061149
33.49 	0.061433 	3809 	0.060203
33.51 	0.059240 	3815 	0.058011
33.53 	0.063265 	3841 	0.062350
33.55 	0.058808 	3843 	0.058046
33.57 	0.054424 	3877 	0.052586
33.59 	0.057216 	3880 	0.055556
33.61 	0.059350 	3909 	0.058301
33.63 	0.056647 	3919 	0.055900
33.65 	0.053422 	3931 	0.052825
33.67 	0.067527 	3954 	0.065601
33.69 	0.062484 	3953 	0.061151
33.71 	0.059119 	3975 	0.057769
33.73 	0.061938 	4004 	0.061060
33.75 	0.060515 	3999 	0.059197
33.77 	0.056149 	4025 	0.054985
33.79 	0.063846 	4041 	0.062976
33.81 	0.055968 	4038 	0.055098
33.83 	0.060741 	4050 	0.059704
33.85 	0.056111 	4099 	0.054825
33.87 	0.057407 	4111 	0.056837
33.89 	0.064062 	4121 	0.063351
33.91 	0.056399 	4149 	0.055128
33.93 	0.066490 	4151 	0.064938
33.95 	0.067448 	4181 	0.066467
33.97 	0.052267 	4190 	0.051289
33.99 	0.060000 	4200 	0.058745
34.01 	0.054830 	4213 	0.053579
34.03 	0.061263 	4244 	0.060021
34.05 	0.061383 	4252 	0.059454
34.07 	0.062793 	4268 	0.061420
34.09 	0.050630 	4286 	0.049537
34.11 	0.058113 	4302 	0.057568
34.13 	0.057567 	4308 	0.056887
34.15 	0.058185 	4331 	0.057644
34.17 	0.056092 	4350 	0.055419
34.19 	0.063044 	4362 	0.062507
34.21 	0.067261 	4371 	0.065385
34.23 	0.056226 	4393 	0.055426
34.25 	0.057675 	4404 	0.056190
34.27 	0.059701 	4422 	0.059039
34.29 	0.058850 	4435 	0.057904
34.31 	0.055630 	4458 	0.055105
34.33 	0.058153 	4471 	0.057104
34.35 	0.060437 	4484 	0.059523
34.37 	0.052550 	4491 	0.051376
34.39 	0.057974 	4502 	0.057714
34.41 	0.056562 	4526 	0.055527
34.43 	0.059705 	4539 	0.058027
34.45 	0.052481 	4535 	0.052093
34.47 	0.062064 	4592 	0.061299
34.49 	0.066783 	4597 	0.065126
34.51 	0.059922 	4606 	0.059540
34.53 	0.055783 	4643 	0.054500
34.55 	0.074521 	4643 	0.073259
34.57 	0.063948 	4660 	0.063194
34.59 	0.056684 	4675 	0.055807
34.61 	0.060464 	4697 	0.059092
34.63 	0.059023 	4710 	0.058402
34.65 	0.056768 	4721 	0.055630
34.67 	0.058637 	4741 	0.057505
34.69 	0.055322 	4754 	0.054459
34.71 	0.061057 	4766 	0.059705
34.73 	0.050136 	4787 	0.049279
34.75 	0.059900 	4808 	0.058296
34.77 	0.064757 	4818 	0.063157
34.79 	0.054519 	4824 	0.053790
34.81 	0.058617 	4845 	0.057892
34.83 	0.062114 	4862 	0.060789
34.85 	0.062847 	4869 	0.061523
34.87 	0.059162 	4868 	0.058320
34.89 	0.057354 	4882 	0.056874
34.91 	0.063294 	4882 	0.062334
34.93 	0.058992 	4899 	0.058035
34.95 	0.058487 	4890 	0.057409
34.97 	0.055896 	4902 	0.055537
34.99 	0.053298 	4897 	0.052341
35.01 	0.058095 	4923 	0.056310
35.03 	0.059276 	4943 	0.057696
35.05 	0.061047 	4947 	0.060455
35.07 	0.057287 	4940 	0.055864
35.09 	0.057339 	4953 	0.055664
35.11 	0.062058 	4947 	0.061584
35.13 	0.057685 	4958 	0.056858
35.15 	0.056512 	4937 	0.055563
35.17 	0.057825 	4946 	0.057114
35.19 	0.062323 	4942 	0.061138
35.21 	0.046107 	4945 	0.045160
35.23 	0.059454 	4945 	0.058862
35.25 	0.055837 	4943 	0.054987
35.27 	0.059418 	4948 	0.058352
35.29 	0.058847 	4945 	0.058018
35.31 	0.061423 	4933 	0.060473
35.33 	0.056443 	4943 	0.055969
35.35 	0.057264 	4942 	0.056316
35.37 	0.060134 	4939 	0.059066
35.39 	0.060465 	4945 	0.059281
35.41 	0.061916 	4926 	0.060965
35.43 	0.059801 	4933 	0.058376
35.45 	0.054487 	4937 	0.054249
35.47 	0.060028 	4931 	0.059078
35.49 	0.064766 	4910 	0.064169
35.51 	0.056638 	4926 	0.055925
35.53 	0.057587 	4949 	0.056246
35.55 	0.057027 	4945 	0.055724
35.57 	0.062234 	4933 	0.061521
35.59 	0.059050 	4945 	0.057865
35.61 	0.058074 	4942 	0.057362
35.63 	0.058669 	4943 	0.057583
35.65 	0.057836 	4945 	0.057125
35.67 	0.058883 	4942 	0.057560
35.69 	0.059240 	4946 	0.058292
35.71 	0.054689 	4937 	0.054096
35.73 	0.067261 	4936 	0.065243
35.75 	0.060637 	4931 	0.059330
35.77 	0.059180 	4951 	0.057760
35.79 	0.054136 	4932 	0.053285
35.81 	0.052706 	4933 	0.052113
35.83 	0.058027 	4946 	0.057198
35.85 	0.053090 	4935 	0.052022
35.87 	0.059923 	4923 	0.059070
35.89 	0.060803 	4934 	0.059715
35.91 	0.061701 	4927 	0.060750
35.93 	0.056018 	4927 	0.055047
35.95 	0.055725 	4917 	0.055129
35.97 	0.059243 	4912 	0.058289
35.99 	0.053250 	4939 	0.052301
36.01 	0.056187 	4930 	0.055236
36.03 	0.062513 	4943 	0.061664
36.05 	0.054196 	4945 	0.053485
36.07 	0.053857 	4939 	0.053145
36.09 	0.060526 	4940 	0.059933
36.11 	0.057415 	4929 	0.056346
36.13 	0.059288 	4942 	0.057865
36.15 	0.056489 	4939 	0.055659
36.17 	0.059695 	4925 	0.058249
36.19 	0.057085 	4940 	0.056492
36.21 	0.054372 	4929 	0.053659
36.23 	0.060588 	4935 	0.059757
36.25 	0.058085 	4941 	0.056525
36.27 	0.062132 	4925 	0.060923
36.29 	0.056378 	4931 	0.055428
36.31 	0.056006 	4928 	0.055174
36.33 	0.058788 	4933 	0.058075
36.35 	0.057618 	4929 	0.056667
36.37 	0.053423 	4923 	0.052471
36.39 	0.063199 	4921 	0.061989
36.41 	0.057190 	4896 	0.056232
36.43 	0.054383 	4928 	0.053313
36.45 	0.054767 	4930 	0.054410
36.47 	0.052269 	4936 	0.051676
36.49 	0.055848 	4942 	0.054524
36.51 	0.051895 	4933 	0.051183
36.53 	0.054623 	4943 	0.053912
36.55 	0.058656 	4927 	0.058062
36.57 	0.051682 	4934 	0.051445
36.59 	0.054060 	4939 	0.053210
36.61 	0.054350 	4931 	0.053162
36.63 	0.049686 	4931 	0.049329
36.65 	0.057583 	4932 	0.056633
36.67 	0.056389 	4930 	0.056033
36.69 	0.055792 	4929 	0.054584
36.71 	0.056493 	4921 	0.055183
36.73 	0.054010 	4925 	0.053059
36.75 	0.054814 	4944 	0.053392
36.77 	0.051433 	4919 	0.051195
36.79 	0.055477 	4921 	0.054881
36.81 	0.054109 	4916 	0.053394
36.83 	0.057782 	4915 	0.056829
36.85 	0.057370 	4898 	0.056294
36.87 	0.055825 	4944 	0.054877
36.89 	0.050244 	4916 	0.049410
36.91 	0.057883 	4941 	0.056579
36.93 	0.051927 	4930 	0.050976
36.95 	0.052098 	4933 	0.051386
36.97 	0.049250 	4934 	0.048419
36.99 	0.058359 	4935 	0.057765
37.01 	0.046625 	4933 	0.046269
37.03 	0.051990 	4924 	0.051395
37.05 	0.054800 	4927 	0.054087
37.07 	0.049645 	4935 	0.048577
37.09 	0.049310 	4928 	0.048478
37.11 	0.058561 	4935 	0.057730
37.13 	0.048132 	4924 	0.047775
37.15 	0.050927 	4909 	0.050211
37.17 	0.050872 	4934 	0.050040
37.19 	0.048528 	4925 	0.047576
37.21 	0.055115 	4917 	0.054758
37.23 	0.053477 	4918 	0.052286
37.25 	0.050295 	4911 	0.049341
37.27 	0.047201 	4894 	0.046123
37.29 	0.051927 	4930 	0.051571
37.31 	0.051672 	4935 	0.051316
37.33 	0.049320 	4927 	0.048845
37.35 	0.057918 	4938 	0.056851
37.37 	0.056221 	4927 	0.054794
37.39 	0.050902 	4931 	0.050427
37.41 	0.051916 	4931 	0.051441
37.43 	0.057989 	4932 	0.057157
37.45 	0.058489 	4924 	0.055614
37.47 	0.050314 	4929 	0.049364
37.49 	0.047329 	4923 	0.046853
37.51 	0.054531 	4933 	0.053818
37.53 	0.056516 	4919 	0.055563
37.55 	0.054767 	4930 	0.053697
37.57 	0.046091 	4925 	0.045120
37.59 	0.051272 	4915 	0.050914
37.61 	0.046526 	4922 	0.046169
37.63 	0.046961 	4919 	0.046484
37.65 	0.051647 	4918 	0.050813
37.67 	0.055261 	4904 	0.054425
37.69 	0.052266 	4898 	0.051788
37.71 	0.046663 	4929 	0.046544
37.73 	0.051532 	4929 	0.051056
37.75 	0.045951 	4940 	0.045121
37.77 	0.047967 	4920 	0.047253
37.79 	0.046247 	4930 	0.045772
37.81 	0.054531 	4933 	0.053224
37.83 	0.053252 	4920 	0.052300
37.85 	0.051808 	4922 	0.050975
37.87 	0.056287 	4939 	0.055575
37.89 	0.052792 	4925 	0.050889
37.91 	0.056389 	4930 	0.055677
37.93 	0.051637 	4919 	0.050803
37.95 	0.057102 	4921 	0.056507
37.97 	0.052343 	4929 	0.051036
37.99 	0.046213 	4912 	0.045498
38.01 	0.057630 	4928 	0.056322
38.03 	0.055408 	4909 	0.053857
38.05 	0.050152 	4925 	0.049795
38.07 	0.058871 	4909 	0.057798
38.09 	0.046740 	4878 	0.045900
38.11 	0.047011 	4935 	0.046062
38.13 	0.055094 	4937 	0.054501
38.15 	0.051444 	4918 	0.050967
38.17 	0.059026 	4930 	0.057719
38.19 	0.057201 	4930 	0.056726
38.21 	0.051188 	4923 	0.050474
38.23 	0.057108 	4938 	0.056278
38.25 	0.053081 	4917 	0.052485
38.27 	0.052738 	4930 	0.052025
38.29 	0.054630 	4924 	0.053798
38.31 	0.059265 	4927 	0.058314
38.33 	0.056255 	4924 	0.055303
38.35 	0.056006 	4928 	0.055650
38.37 	0.055646 	4924 	0.054675
38.39 	0.059686 	4909 	0.058970
38.41 	0.056673 	4923 	0.055602
38.43 	0.064076 	4916 	0.062885
38.45 	0.065067 	4918 	0.063161
38.47 	0.060526 	4907 	0.059451
38.49 	0.056797 	4877 	0.055956
38.51 	0.061638 	4932 	0.060213
38.53 	0.056401 	4929 	0.055807
38.55 	0.054092 	4936 	0.053380
38.57 	0.058907 	4923 	0.057836
38.59 	0.056864 	4924 	0.055794
38.61 	0.052472 	4936 	0.051522
38.63 	0.057271 	4924 	0.056200
38.65 	0.058560 	4918 	0.057369
38.67 	0.054892 	4937 	0.053824
38.69 	0.059122 	4922 	0.058170
38.71 	0.051178 	4924 	0.050226
38.73 	0.053884 	4918 	0.052931
38.75 	0.050335 	4927 	0.049859
38.77 	0.057688 	4923 	0.056855
38.79 	0.053101 	4934 	0.052626
38.81 	0.051099 	4912 	0.050265
38.83 	0.058142 	4919 	0.057666
38.85 	0.055782 	4912 	0.055066
38.87 	0.052739 	4911 	0.052023
38.89 	0.055340 	4897 	0.054024
38.91 	0.056496 	4903 	0.055421
38.93 	0.051843 	4938 	0.050894
38.95 	0.049410 	4918 	0.048081
38.97 	0.047252 	4931 	0.046896
38.99 	0.050233 	4937 	0.049402
39.01 	0.049817 	4918 	0.049579
39.03 	0.051277 	4934 	0.050446
39.05 	0.046497 	4925 	0.046022
39.07 	0.049553 	4924 	0.049077
39.09 	0.048141 	4923 	0.047189
39.11 	0.051714 	4931 	0.050763
39.13 	0.050376 	4923 	0.049761
39.15 	0.052696 	4915 	0.051981
39.17 	0.041321 	4937 	0.040371
39.19 	0.050234 	4917 	0.049996
39.21 	0.047047 	4910 	0.045973
39.23 	0.047919 	4925 	0.047324
39.25 	0.046323 	4922 	0.045847
39.27 	0.046232 	4910 	0.045497
39.29 	0.041828 	4901 	0.041470
39.31 	0.048526 	4884 	0.048286
39.33 	0.049280 	4931 	0.048448
39.35 	0.048835 	4935 	0.048004
39.37 	0.047271 	4929 	0.046558
39.39 	0.045242 	4929 	0.044529
39.41 	0.039951 	4931 	0.039476
39.43 	0.047233 	4933 	0.046164
39.45 	0.047310 	4925 	0.046715
39.47 	0.047126 	4923 	0.046293
39.49 	0.041962 	4933 	0.041230
39.51 	0.053209 	4924 	0.052971
39.53 	0.048548 	4923 	0.048191
39.55 	0.051027 	4919 	0.049955
39.57 	0.044800 	4933 	0.043850
39.59 	0.050081 	4912 	0.049604
39.61 	0.047126 	4923 	0.046769
39.63 	0.047135 	4922 	0.046421
39.65 	0.048924 	4926 	0.047973
39.67 	0.043354 	4913 	0.043116
39.69 	0.046989 	4916 	0.045798
39.71 	0.050255 	4895 	0.049418
39.73 	0.056235 	4908 	0.055519
39.75 	0.048904 	4928 	0.048310
39.77 	0.049443 	4935 	0.048374
39.79 	0.049736 	4926 	0.048904
39.81 	0.045667 	4927 	0.045310
39.83 	0.048439 	4934 	0.047608
39.85 	0.047899 	4927 	0.047424
39.87 	0.052995 	4925 	0.051449
39.89 	0.053506 	4934 	0.052181
39.91 	0.050386 	4922 	0.050148
39.93 	0.051043 	4937 	0.050450
39.95 	0.046185 	4915 	0.045947
39.97 	0.050325 	4928 	0.049730
39.99 	0.055556 	4932 	0.054586
40.01 	0.040667 	4918 	0.040310
40.03 	0.045455 	4928 	0.044979
40.05 	0.044133 	4917 	0.043775
40.07 	0.049360 	4923 	0.048646
40.09 	0.049634 	4916 	0.048919
40.11 	0.044752 	4916 	0.044037
40.13 	0.043709 	4896 	0.043111
40.15 	0.045593 	4913 	0.044759
40.17 	0.048904 	4928 	0.048191
40.19 	0.042605 	4929 	0.041892
40.21 	0.045593 	4935 	0.045237
40.23 	0.045823 	4932 	0.045348
40.25 	0.045935 	4920 	0.045578
40.27 	0.047397 	4937 	0.046448
40.29 	0.045870 	4927 	0.045751
40.31 	0.050010 	4939 	0.049536
40.33 	0.049473 	4932 	0.048998
40.35 	0.043708 	4919 	0.043351
40.37 	0.040982 	4929 	0.040269
40.39 	0.049483 	4931 	0.049008
40.41 	0.045482 	4925 	0.045006
40.43 	0.043885 	4922 	0.043052
40.45 	0.046827 	4933 	0.046590
40.47 	0.051037 	4918 	0.050441
40.49 	0.048518 	4926 	0.048042
40.51 	0.044697 	4922 	0.044221
40.53 	0.043938 	4916 	0.043342
40.55 	0.042380 	4908 	0.041902
40.57 	0.043763 	4890 	0.042924
40.59 	0.048410 	4937 	0.047698
40.61 	0.042756 	4935 	0.042499
40.63 	0.043611 	4930 	0.042898
40.65 	0.040308 	4937 	0.039833
40.67 	0.046634 	4932 	0.045922
40.69 	0.046384 	4937 	0.045910
40.71 	0.045418 	4932 	0.045180
40.73 	0.044458 	4926 	0.044101
40.75 	0.043196 	4931 	0.043077
40.77 	0.046163 	4939 	0.045807
40.79 	0.039196 	4924 	0.038958
40.81 	0.050192 	4941 	0.049599
40.83 	0.050325 	4928 	0.049354
40.85 	0.043054 	4924 	0.042460
40.87 	0.047281 	4928 	0.045973
40.89 	0.047252 	4931 	0.046777
40.91 	0.045094 	4923 	0.043905
40.93 	0.048642 	4934 	0.048167
40.95 	0.048239 	4913 	0.047882
40.97 	0.043461 	4924 	0.043223
40.99 	0.045288 	4924 	0.044694
41.01 	0.043363 	4912 	0.042171
41.03 	0.043629 	4905 	0.043271
41.05 	0.048420 	4936 	0.047826
41.07 	0.046247 	4930 	0.045891
41.09 	0.040494 	4939 	0.040375
41.11 	0.044377 	4935 	0.043902
41.13 	0.044976 	4936 	0.044501
41.15 	0.044121 	4941 	0.043508
41.17 	0.046615 	4934 	0.045784
41.19 	0.042596 	4930 	0.041983
41.21 	0.042941 	4937 	0.042585
41.23 	0.042114 	4939 	0.041264
41.25 	0.051693 	4933 	0.051099
41.27 	0.044007 	4931 	0.043394
41.29 	0.043831 	4928 	0.043118
41.31 	0.044395 	4933 	0.044039
41.33 	0.045777 	4937 	0.045421
41.35 	0.041717 	4938 	0.041599
41.37 	0.043258 	4924 	0.042663
41.39 	0.045206 	4933 	0.044493
41.41 	0.053999 	4926 	0.053286
41.43 	0.045851 	4929 	0.045495
41.45 	0.044160 	4914 	0.043444
41.47 	0.042225 	4926 	0.041749
41.49 	0.048242 	4892 	0.047643
41.51 	0.045344 	4940 	0.045107
41.53 	0.045914 	4944 	0.045322
41.55 	0.040527 	4935 	0.040171
41.57 	0.042704 	4941 	0.042348
41.59 	0.039935 	4933 	0.039223
41.61 	0.041995 	4953 	0.040812
41.63 	0.042932 	4938 	0.042576
41.65 	0.044634 	4929 	0.043683
41.67 	0.040486 	4940 	0.040367
41.69 	0.040429 	4947 	0.039481
41.71 	0.043575 	4934 	0.042982
41.73 	0.042950 	4936 	0.042475
41.75 	0.043822 	4929 	0.042990
41.77 	0.044525 	4941 	0.044051
41.79 	0.043689 	4944 	0.043452
41.81 	0.041734 	4936 	0.041141
41.83 	0.044440 	4928 	0.043727
41.85 	0.039684 	4939 	0.039328
41.87 	0.042351 	4935 	0.041876
41.89 	0.047030 	4933 	0.046199
41.91 	0.041329 	4936 	0.040736
41.93 	0.047851 	4932 	0.047138
41.95 	0.042182 	4931 	0.041707
41.97 	0.044974 	4914 	0.044378
41.99 	0.040979 	4905 	0.040979
42.01 	0.040672 	4942 	0.040178
42.03 	0.043936 	4939 	0.043580
42.05 	0.045032 	4952 	0.044402
42.07 	0.039295 	4937 	0.038821
42.09 	0.050121 	4948 	0.049648
42.11 	0.040445 	4945 	0.039853
42.13 	0.041052 	4945 	0.040696
42.15 	0.038275 	4938 	0.038037
42.17 	0.035584 	4918 	0.035226
42.19 	0.040954 	4908 	0.040357
42.21 	0.043665 	4901 	0.043306
42.23 	0.042927 	4892 	0.042189
42.25 	0.041522 	4889 	0.040923
42.27 	0.044112 	4874 	0.043270
42.29 	0.044211 	4863 	0.043489
42.31 	0.044284 	4855 	0.043802
42.33 	0.041167 	4834 	0.040803
42.35 	0.040099 	4838 	0.039857
42.37 	0.039545 	4830 	0.039302
42.39 	0.040175 	4804 	0.039931
42.41 	0.037261 	4804 	0.036753
42.43 	0.045075 	4792 	0.044464
42.45 	0.038735 	4776 	0.037979
42.47 	0.040923 	4765 	0.040678
42.49 	0.041343 	4765 	0.040483
42.51 	0.043222 	4743 	0.042728
42.53 	0.036591 	4728 	0.035971
42.55 	0.044817 	4708 	0.043946
42.57 	0.043552 	4730 	0.043304
42.59 	0.045253 	4729 	0.044138
42.61 	0.039507 	4708 	0.039258
42.63 	0.035676 	4709 	0.035179
42.65 	0.039274 	4685 	0.039024
42.67 	0.040991 	4684 	0.040740
42.69 	0.037655 	4674 	0.037404
42.71 	0.043105 	4663 	0.042603
42.73 	0.041595 	4640 	0.041469
42.75 	0.042885 	4617 	0.042251
42.77 	0.041522 	4600 	0.041012
42.79 	0.043649 	4582 	0.043393
42.81 	0.039018 	4562 	0.038504
42.83 	0.043871 	4536 	0.043484
42.85 	0.042624 	4528 	0.041847
42.87 	0.043343 	4499 	0.042952
42.89 	0.035268 	4480 	0.035006
42.91 	0.039048 	4456 	0.038523
42.93 	0.043860 	4446 	0.043201
42.95 	0.039855 	4416 	0.039324
42.97 	0.043399 	4401 	0.042579
42.99 	0.045154 	4385 	0.044753
43.01 	0.040339 	4363 	0.040339
43.03 	0.039003 	4333 	0.038597
43.05 	0.047168 	4325 	0.046626
43.07 	0.040736 	4296 	0.040190
43.09 	0.043428 	4283 	0.043017
43.11 	0.039953 	4255 	0.039265
43.13 	0.046731 	4237 	0.046455
43.15 	0.038041 	4206 	0.037762
43.17 	0.034937 	4179 	0.034656
43.19 	0.039580 	4194 	0.039022
43.21 	0.040748 	4172 	0.040467
43.23 	0.042128 	4154 	0.041423
43.25 	0.040629 	4135 	0.039495
43.27 	0.041657 	4105 	0.041086
43.29 	0.041463 	4100 	0.041178
43.31 	0.038980 	4079 	0.038406
43.33 	0.038756 	4051 	0.038322
43.35 	0.040179 	4032 	0.039452
43.37 	0.041594 	4015 	0.040865
43.39 	0.044728 	4002 	0.043996
43.41 	0.041541 	3972 	0.040951
43.43 	0.040909 	3960 	0.040613
43.45 	0.038119 	3935 	0.037375
43.47 	0.043101 	3921 	0.042504
43.49 	0.045420 	3897 	0.044217
43.51 	0.040495 	3877 	0.040344
43.53 	0.036759 	3863 	0.035849
43.55 	0.041498 	2964 	0.041300
43.57 	0.032618 	2238 	0.032357
43.59 	0.041810 	1746 	0.041139
43.61 	0.049593 	1351 	0.049159
43.63 	0.038961 	1001 	0.037791
43.65 	0.039301 	687 	0.038449
43.67 	0.041833 	502 	0.041833
43.69 	0.059946 	367 	0.059946
43.71 	0.062762 	239 	0.062762
43.73 	0.058333 	120 	0.053452
43.75 	0.000000 	16 	0.000000