File: Example_Data/25SC_s1_0014.001.dat
#F C:\frames\spec\25SC_s1_0014.001
#C title =s:14 frm:1 25SC_s1
#C wavelength =0.15406

#S 1  fr_average C:\frames\spec\25SC_s1_0014.001 C:\win32app\speccom\mask.axs chi 0 180 0 360 0.02
#C 2 theta =0.000000 to 180 deg
#C   q   =0.000000 to 81.568 nm^-1
#C  chi  =0.000000 to 360 deg
#C collumns:
#C  1 position (2theta or chi in degrees)
#C  2 average intensity (sum of all counts in the region divided with number of pixels)
#C  3 Number of pixels in region)
#C  4 error (sum of sqrt(intensity) for all pixels divided by number)
#N 4
#L TTh  Int  N_pix  Err
32.99 	0.032787 	61 	0.032787
33.01 	0.081329 	873 	0.079987
33.03 	0.054637 	1391 	0.052531
33.05 	0.064883 	1757 	0.062216
33.07 	0.055610 	2050 	0.053895
33.09 	0.063059 	2347 	0.060772
33.11 	0.070182 	2579 	0.069501
33.13 	0.060150 	2793 	0.059731
33.15 	0.057686 	2999 	0.056709
33.17 	0.057170 	3201 	0.056255
33.19 	0.049671 	3342 	0.048619
33.21 	0.061409 	3436 	0.060556
33.23 	0.059041 	3523 	0.058043
33.25 	0.057309 	3612 	0.056336
33.27 	0.060882 	3630 	0.059752
33.29 	0.055647 	3648 	0.054657
33.31 	0.060656 	3660 	0.059375
33.33 	0.053174 	3686 	0.052856
33.35 	0.062805 	3694 	0.061536
33.37 	0.067582 	3714 	0.066794
33.39 	0.058461 	3729 	0.057518
33.41 	0.054545 	3740 	0.053919
33.43 	0.058495 	3761 	0.057093
33.45 	0.056454 	3773 	0.055833
33.47 	0.063718 	3798 	0.062792
33.49 	0.056183 	3809 	0.055568
33.51 	0.051638 	3815 	0.051331
33.53 	0.058578 	3841 	0.057968
33.55 	0.065574 	3843 	0.064507
33.57 	0.058808 	3877 	0.058355
33.59 	0.053093 	3880 	0.052338
33.61 	0.057815 	3909 	0.056616
33.63 	0.060475 	3919 	0.059279
33.65 	0.061816 	3931 	0.060773
33.67 	0.055640 	3954 	0.054751
33.69 	0.057678 	3953 	0.055603
33.71 	0.061887 	3975 	0.061003
33.73 	0.055445 	4004 	0.054713
33.75 	0.058015 	3999 	0.056989
33.77 	0.061366 	4025 	0.060057
33.79 	0.061371 	4041 	0.060211
33.81 	0.059435 	4038 	0.058420
33.83 	0.054321 	4050 	0.053309
33.85 	0.055379 	4099 	0.053950
33.87 	0.065434 	4111 	0.064128
33.89 	0.057996 	4121 	0.056574
33.91 	0.052543 	4149 	0.051249
33.93 	0.059022 	4151 	0.057187
33.95 	0.061947 	4181 	0.060826
33.97 	0.061814 	4190 	0.060253
33.99 	0.056905 	4200 	0.056068
34.01 	0.062901 	4213 	0.062205
34.03 	0.053487 	4244 	0.053073
34.05 	0.053387 	4252 	0.053111
34.07 	0.066542 	4268 	0.065855
34.09 	0.055530 	4286 	0.054983
34.11 	0.059740 	4302 	0.059059
34.13 	0.059656 	4308 	0.058138
34.15 	0.051720 	4331 	0.050751
34.17 	0.055862 	4350 	0.055054
34.19 	0.055021 	4362 	0.054752
34.21 	0.056738 	4371 	0.056470
34.23 	0.059640 	4393 	0.058707
34.25 	0.057448 	4404 	0.056517
34.27 	0.054953 	4422 	0.053363
34.29 	0.062683 	4435 	0.061187
34.31 	0.055855 	4458 	0.055329
34.33 	0.058600 	4471 	0.057945
34.35 	0.052186 	4484 	0.051250
34.37 	0.056780 	4491 	0.056258
34.39 	0.058418 	4502 	0.057247
34.41 	0.054795 	4526 	0.054277
34.43 	0.055519 	4539 	0.054745
34.45 	0.057332 	4535 	0.056557
34.47 	0.059016 	4592 	0.058123
34.49 	0.057211 	4597 	0.056702
34.51 	0.052323 	4606 	0.051687
34.53 	0.059444 	4643 	0.058435
34.55 	0.051260 	4643 	0.050629
34.57 	0.051073 	4660 	0.049942
34.59 	0.058396 	4675 	0.057749
34.61 	0.058548 	4697 	0.057301
34.63 	0.058811 	4710 	0.057940
34.65 	0.057191 	4721 	0.056075
34.67 	0.061169 	4741 	0.060304
34.69 	0.054901 	4754 	0.053669
34.71 	0.058959 	4766 	0.058345
34.73 	0.059954 	4787 	0.058608
34.75 	0.065516 	4808 	0.064541
34.77 	0.056663 	4818 	0.055427
34.79 	0.052239 	4824 	0.051146
34.81 	0.049329 	4845 	0.048725
34.83 	0.063348 	4862 	0.062866
34.85 	0.050934 	4869 	0.049852
34.87 	0.056697 	4868 	0.055614
34.89 	0.055100 	4882 	0.054380
34.91 	0.056125 	4882 	0.054905
34.93 	0.057767 	4899 	0.056691
34.95 	0.058896 	4890 	0.058536
34.97 	0.061404 	4902 	0.060089
34.99 	0.057995 	4897 	0.057038
35.01 	0.056470 	4923 	0.055994
35.03 	0.060287 	4943 	0.059102
35.05 	0.054781 	4947 	0.053695
35.07 	0.055870 	4940 	0.055040
35.09 	0.057339 	4953 	0.056255
35.11 	0.056802 	4947 	0.055954
35.13 	0.056474 	4958 	0.055746
35.15 	0.057727 	4937 	0.057134
35.17 	0.058431 	4946 	0.057839
35.19 	0.046540 	4942 	0.046184
35.21 	0.052578 	4945 	0.051749
35.23 	0.060465 	4945 	0.059873
35.25 	0.050981 	4943 	0.050389
35.27 	0.060428 	4948 	0.059955
35.29 	0.058443 	4945 	0.057377
35.31 	0.058585 	4933 	0.057279
35.33 	0.057050 	4943 	0.056695
35.35 	0.061109 	4942 	0.060023
35.37 	0.053250 	4939 	0.052182
35.39 	0.053387 	4945 	0.051966
35.41 	0.056029 	4926 	0.055197
35.43 	0.062639 	4933 	0.061571
35.45 	0.063196 	4937 	0.061891
35.47 	0.055972 	4931 	0.055022
35.49 	0.054175 	4910 	0.052982
35.51 	0.057856 	4926 	0.056905
35.53 	0.060618 	4949 	0.059671
35.55 	0.055814 	4945 	0.054629
35.57 	0.057166 	4933 	0.056197
35.59 	0.053387 	4945 	0.052558
35.61 	0.050384 	4942 	0.049654
35.63 	0.056848 	4943 	0.055900
35.65 	0.061678 	4945 	0.059290
35.67 	0.056455 	4942 	0.055862
35.69 	0.054792 	4946 	0.053726
35.71 	0.058740 	4937 	0.057791
35.73 	0.054092 	4936 	0.053143
35.75 	0.055364 	4931 	0.055245
35.77 	0.063220 	4951 	0.061090
35.79 	0.053122 	4932 	0.052766
35.81 	0.061423 	4933 	0.059761
35.83 	0.063890 	4946 	0.063179
35.85 	0.056940 	4935 	0.056208
35.87 	0.057688 	4923 	0.056360
35.89 	0.056546 	4934 	0.055478
35.91 	0.058047 	4927 	0.057215
35.93 	0.062107 	4927 	0.061037
35.95 	0.054301 	4917 	0.053467
35.97 	0.052728 	4912 	0.052370
35.99 	0.056287 	4939 	0.055200
36.01 	0.053347 	4930 	0.052159
36.03 	0.055837 	4943 	0.054987
36.05 	0.059252 	4945 	0.058541
36.07 	0.055882 	4939 	0.054933
36.09 	0.052227 	4940 	0.051871
36.11 	0.056807 	4929 	0.055737
36.13 	0.054027 	4942 	0.053908
36.15 	0.062563 	4939 	0.061614
36.17 	0.056650 	4925 	0.055817
36.19 	0.054858 	4940 	0.054265
36.21 	0.063299 	4929 	0.062348
36.23 	0.060182 	4935 	0.059351
36.25 	0.059705 	4941 	0.058144
36.27 	0.063959 	4925 	0.063365
36.29 	0.055972 	4931 	0.053953
36.31 	0.062094 	4928 	0.061143
36.33 	0.062437 	4933 	0.060774
36.35 	0.060053 	4929 	0.059577
36.37 	0.059110 	4923 	0.057801
36.39 	0.065434 	4921 	0.064601
36.41 	0.063317 	4896 	0.062121
36.43 	0.060268 	4928 	0.059198
36.45 	0.060041 	4930 	0.058595
36.47 	0.056726 	4936 	0.056607
36.49 	0.062323 	4942 	0.060763
36.51 	0.066491 	4933 	0.065165
36.53 	0.060085 	4943 	0.058900
36.55 	0.053785 	4927 	0.052359
36.57 	0.056952 	4934 	0.056121
36.59 	0.059121 	4939 	0.058172
36.61 	0.055161 	4931 	0.054448
36.63 	0.061651 	4931 	0.061156
36.65 	0.067113 	4932 	0.065094
36.67 	0.061460 	4930 	0.060153
36.69 	0.063705 	4929 	0.062497
36.71 	0.062589 	4921 	0.061399
36.73 	0.059898 	4925 	0.059423
36.75 	0.065332 	4944 	0.063791
36.77 	0.062614 	4919 	0.061066
36.79 	0.059947 	4921 	0.058638
36.81 	0.062246 	4916 	0.061412
36.83 	0.052696 	4915 	0.051862
36.85 	0.061658 	4898 	0.060701
36.87 	0.048746 	4944 	0.047561
36.89 	0.061839 	4916 	0.060886
36.91 	0.061121 	4941 	0.060054
36.93 	0.056187 	4930 	0.055593
36.95 	0.054733 	4933 	0.053902
36.97 	0.059992 	4934 	0.059517
36.99 	0.062614 	4935 	0.062139
37.01 	0.061626 	4933 	0.061032
37.03 	0.056255 	4924 	0.054946
37.05 	0.058656 	4927 	0.057824
37.07 	0.062411 	4935 	0.061224
37.09 	0.056412 	4928 	0.055699
37.11 	0.059777 	4935 	0.058590
37.13 	0.050772 	4924 	0.049939
37.15 	0.056223 	4909 	0.055865
37.17 	0.056749 	4934 	0.055780
37.19 	0.059086 	4925 	0.058492
37.21 	0.059589 	4917 	0.059232
37.23 	0.062424 	4918 	0.060994
37.25 	0.052739 	4911 	0.051904
37.27 	0.055578 	4894 	0.054860
37.29 	0.052738 	4930 	0.051531
37.31 	0.063627 	4935 	0.062203
37.33 	0.056830 	4927 	0.055760
37.35 	0.056501 	4938 	0.055196
37.37 	0.063528 	4927 	0.062101
37.39 	0.063679 	4931 	0.062372
37.41 	0.061245 	4931 	0.060532
37.43 	0.053325 	4932 	0.052613
37.45 	0.060520 	4924 	0.059330
37.47 	0.052343 	4929 	0.051511
37.49 	0.064392 	4923 	0.063797
37.51 	0.057774 	4933 	0.056587
37.53 	0.060378 	4919 	0.058949
37.55 	0.053955 	4930 	0.053104
37.57 	0.062538 	4925 	0.060853
37.59 	0.057172 	4915 	0.056695
37.61 	0.052824 	4922 	0.051733
37.63 	0.059362 	4919 	0.058647
37.65 	0.049410 	4918 	0.048696
37.67 	0.056077 	4904 	0.055479
37.69 	0.054104 	4898 	0.053506
37.71 	0.053155 	4929 	0.051590
37.73 	0.055589 	4929 	0.054500
37.75 	0.056275 	4940 	0.055327
37.77 	0.057927 	4920 	0.057212
37.79 	0.056187 	4930 	0.054860
37.81 	0.053720 	4933 	0.053126
37.83 	0.056911 	4920 	0.055958
37.85 	0.058513 	4922 	0.057561
37.87 	0.046163 	4939 	0.045333
37.89 	0.053604 	4925 	0.052058
37.91 	0.058621 	4930 	0.057195
37.93 	0.056109 	4919 	0.054680
37.95 	0.062589 	4921 	0.061518
37.97 	0.054575 	4929 	0.053624
37.99 	0.053135 	4912 	0.052658
38.01 	0.053166 	4928 	0.052096
38.03 	0.056427 	4909 	0.055711
38.05 	0.056041 	4925 	0.055327
38.07 	0.052353 	4909 	0.051398
38.09 	0.054121 	4878 	0.053640
38.11 	0.052077 	4935 	0.051721
38.13 	0.051043 	4937 	0.050094
38.15 	0.059170 	4918 	0.058218
38.17 	0.055375 	4930 	0.054900
38.19 	0.058012 	4930 	0.057062
38.21 	0.057079 	4923 	0.056603
38.23 	0.055488 	4938 	0.054420
38.25 	0.053488 	4917 	0.052654
38.27 	0.052333 	4930 	0.051481
38.29 	0.055646 	4924 	0.054694
38.31 	0.056830 	4927 	0.055641
38.33 	0.062754 	4924 	0.061802
38.35 	0.059050 	4928 	0.058099
38.37 	0.060520 	4924 	0.059449
38.39 	0.064575 	4909 	0.062885
38.41 	0.054235 	4923 	0.053145
38.43 	0.062246 	4916 	0.061511
38.45 	0.062627 	4918 	0.061436
38.47 	0.056246 	4907 	0.055052
38.49 	0.058438 	4877 	0.057357
38.51 	0.060422 	4932 	0.059828
38.53 	0.071211 	4929 	0.069785
38.55 	0.071110 	4936 	0.069211
38.57 	0.072517 	4923 	0.070712
38.59 	0.068846 	4924 	0.066467
38.61 	0.065235 	4936 	0.064286
38.63 	0.069456 	4924 	0.068147
38.65 	0.071574 	4918 	0.069787
38.67 	0.072919 	4937 	0.070902
38.69 	0.075173 	4922 	0.073487
38.71 	0.073517 	4924 	0.072209
38.73 	0.071370 	4918 	0.069584
38.75 	0.076517 	4927 	0.075447
38.77 	0.074548 	4923 	0.073120
38.79 	0.071747 	4934 	0.070797
38.81 	0.063518 	4912 	0.062564
38.83 	0.066680 	4919 	0.064993
38.85 	0.070643 	4912 	0.069670
38.87 	0.063124 	4911 	0.062408
38.89 	0.061670 	4897 	0.060594
38.91 	0.064858 	4903 	0.064261
38.93 	0.061968 	4938 	0.060901
38.95 	0.055510 	4918 	0.054319
38.97 	0.063476 	4931 	0.062288
38.99 	0.062184 	4937 	0.060740
39.01 	0.055307 	4918 	0.054235
39.03 	0.052696 	4934 	0.052102
39.05 	0.061117 	4925 	0.059670
39.07 	0.052193 	4924 	0.052074
39.09 	0.050782 	4923 	0.050306
39.11 	0.051105 	4931 	0.050155
39.13 	0.050173 	4923 	0.049578
39.15 	0.044761 	4915 	0.044284
39.17 	0.047802 	4937 	0.046715
39.19 	0.048200 	4917 	0.047585
39.21 	0.047862 	4910 	0.047504
39.23 	0.049340 	4925 	0.048864
39.25 	0.043885 	4922 	0.043290
39.27 	0.049695 	4910 	0.049098
39.29 	0.049990 	4901 	0.049392
39.31 	0.041974 	4884 	0.040995
39.33 	0.046441 	4931 	0.046084
39.35 	0.044782 	4935 	0.044189
39.37 	0.040373 	4929 	0.040136
39.39 	0.051532 	4929 	0.050819
39.41 	0.046441 	4931 	0.046084
39.43 	0.047638 	4933 	0.046194
39.45 	0.053198 	4925 	0.052127
39.47 	0.041844 	4923 	0.041725
39.49 	0.052098 	4933 	0.051267
39.51 	0.046507 	4924 	0.046150
39.53 	0.043673 	4923 	0.042939
39.55 	0.043708 	4919 	0.042636
39.57 	0.043787 	4933 	0.042956
39.59 	0.042956 	4912 	0.042598
39.61 	0.047532 	4923 	0.046937
39.63 	0.045307 	4922 	0.044950
39.65 	0.041210 	4926 	0.040259
39.67 	0.045390 	4913 	0.044913
39.69 	0.043938 	4916 	0.043700
39.71 	0.046987 	4895 	0.046388
39.73 	0.044621 	4908 	0.044024
39.75 	0.048701 	4928 	0.048345
39.77 	0.044580 	4935 	0.044342
39.79 	0.045676 	4926 	0.045081
39.81 	0.045667 	4927 	0.045310
39.83 	0.046818 	4934 	0.045730
39.85 	0.041202 	4927 	0.040369
39.87 	0.046701 	4925 	0.046106
39.89 	0.049047 	4934 	0.048691
39.91 	0.042666 	4922 	0.042071
39.93 	0.044156 	4937 	0.043563
39.95 	0.044964 	4915 	0.044249
39.97 	0.048295 	4928 	0.047701
39.99 	0.043187 	4932 	0.042712
40.01 	0.044530 	4918 	0.044292
40.03 	0.045049 	4928 	0.044098
40.05 	0.045760 	4917 	0.045283
40.07 	0.040829 	4923 	0.040353
40.09 	0.048820 	4916 	0.047867
40.11 	0.048007 	4916 	0.047292
40.13 	0.047386 	4896 	0.047027
40.15 	0.044779 	4913 	0.044183
40.17 	0.044237 	4928 	0.043999
40.19 	0.046663 	4929 	0.046425
40.21 	0.045795 	4935 	0.045558
40.23 	0.046634 	4932 	0.046040
40.25 	0.041260 	4920 	0.041141
40.27 	0.045574 	4937 	0.045218
40.29 	0.039781 	4927 	0.039781
40.31 	0.042114 	4939 	0.041758
40.33 	0.039943 	4932 	0.039706
40.35 	0.040659 	4919 	0.039944
40.37 	0.042605 	4929 	0.041654
40.39 	0.041371 	4931 	0.041252
40.41 	0.041015 	4925 	0.040539
40.43 	0.045713 	4922 	0.044999
40.45 	0.041962 	4933 	0.041606
40.47 	0.042904 	4918 	0.042189
40.49 	0.038571 	4926 	0.038095
40.51 	0.042259 	4922 	0.041902
40.53 	0.039870 	4916 	0.039512
40.55 	0.039120 	4908 	0.039000
40.57 	0.042740 	4890 	0.042381
40.59 	0.041321 	4937 	0.040965
40.61 	0.047619 	4935 	0.046669
40.63 	0.049290 	4930 	0.048696
40.65 	0.043549 	4937 	0.042955
40.67 	0.042782 	4932 	0.042307
40.69 	0.041928 	4937 	0.040979
40.71 	0.041160 	4932 	0.040803
40.73 	0.039992 	4926 	0.039992
40.75 	0.047252 	4931 	0.047014
40.77 	0.042316 	4939 	0.041605
40.79 	0.046507 	4924 	0.045912
40.81 	0.045740 	4941 	0.045384
40.83 	0.043628 	4928 	0.042440
40.85 	0.043664 	4924 	0.042425
40.87 	0.045860 	4928 	0.045504
40.89 	0.042588 	4931 	0.042113
40.91 	0.040829 	4923 	0.039758
40.93 	0.042967 	4934 	0.041899
40.95 	0.047832 	4913 	0.046382
40.97 	0.044882 	4924 	0.044030
40.99 	0.048944 	4924 	0.048349
41.01 	0.044788 	4912 	0.044073
41.03 	0.043017 	4905 	0.042540
41.05 	0.046191 	4936 	0.045717
41.07 	0.040974 	4930 	0.040380
41.09 	0.040292 	4939 	0.040173
41.11 	0.038298 	4935 	0.037942
41.13 	0.044165 	4936 	0.043691
41.15 	0.037644 	4941 	0.037289
41.17 	0.034860 	4934 	0.034267
41.19 	0.037931 	4930 	0.037218
41.21 	0.040916 	4937 	0.040560
41.23 	0.039077 	4939 	0.038721
41.25 	0.043584 	4933 	0.042634
41.27 	0.047860 	4931 	0.047385
41.29 	0.045455 	4928 	0.044622
41.31 	0.040949 	4933 	0.040117
41.33 	0.043751 	4937 	0.042921
41.35 	0.037060 	4938 	0.036941
41.37 	0.044476 	4924 	0.043643
41.39 	0.036894 	4933 	0.036419
41.41 	0.039383 	4926 	0.039145
41.43 	0.040576 	4929 	0.040101
41.45 	0.045584 	4914 	0.044511
41.47 	0.038774 	4926 	0.038655
41.49 	0.039043 	4892 	0.038564
41.51 	0.038664 	4940 	0.038427
41.53 	0.043083 	4944 	0.042490
41.55 	0.037893 	4935 	0.037537
41.57 	0.044121 	4941 	0.043528
41.59 	0.038516 	4933 	0.037922
41.61 	0.043610 	4953 	0.043373
41.63 	0.038072 	4938 	0.037835
41.65 	0.036721 	4929 	0.036603
41.67 	0.047166 	4940 	0.046455
41.69 	0.041641 	4947 	0.040911
41.71 	0.041548 	4934 	0.040955
41.73 	0.042747 	4936 	0.042391
41.75 	0.040576 	4929 	0.040457
41.77 	0.044930 	4941 	0.044219
41.79 	0.040858 	4944 	0.040265
41.81 	0.038088 	4936 	0.037731
41.83 	0.041193 	4928 	0.040837
41.85 	0.040899 	4939 	0.040662
41.87 	0.041540 	4935 	0.041184
41.89 	0.037705 	4933 	0.037112
41.91 	0.041532 	4936 	0.041294
41.93 	0.043390 	4932 	0.042796
41.95 	0.041168 	4931 	0.040574
41.97 	0.036223 	4914 	0.035985
41.99 	0.037513 	4905 	0.037274
42.01 	0.041886 	4942 	0.041412
42.03 	0.034015 	4939 	0.033541
42.05 	0.034935 	4952 	0.034581
42.07 	0.038890 	4937 	0.038415
42.09 	0.041835 	4948 	0.041362
42.11 	0.039434 	4945 	0.039059
42.13 	0.049141 	4945 	0.047956
42.15 	0.039085 	4938 	0.038492
42.17 	0.046360 	4918 	0.046003
42.19 	0.044621 	4908 	0.044144
42.21 	0.037951 	4901 	0.037354
42.23 	0.044154 	4892 	0.043416
42.25 	0.037840 	4889 	0.037481
42.27 	0.040419 	4874 	0.040178
42.29 	0.039893 	4863 	0.039532
42.31 	0.037487 	4855 	0.036884
42.33 	0.038684 	4834 	0.038442
42.35 	0.047540 	4838 	0.046208
42.37 	0.044513 	4830 	0.044028
42.39 	0.040591 	4804 	0.040225
42.41 	0.039550 	4804 	0.038819
42.43 	0.040275 	4792 	0.039909
42.45 	0.038526 	4776 	0.038035
42.47 	0.036516 	4765 	0.036270
42.49 	0.045960 	4765 	0.045468
42.51 	0.039216 	4743 	0.038845
42.53 	0.041455 	4728 	0.040960
42.55 	0.038233 	4708 	0.037611
42.57 	0.038689 	4730 	0.038318
42.59 	0.036160 	4729 	0.035912
42.61 	0.040994 	4708 	0.040496
42.63 	0.042472 	4709 	0.042099
42.65 	0.046958 	4685 	0.046333
42.67 	0.040564 	4684 	0.040439
42.69 	0.037869 	4674 	0.037869
42.71 	0.042676 	4663 	0.042048
42.73 	0.039440 	4640 	0.038808
42.75 	0.038553 	4617 	0.038299
42.77 	0.039348 	4600 	0.038711
42.79 	0.040594 	4582 	0.039827
42.81 	0.037922 	4562 	0.037537
42.83 	0.043871 	4536 	0.042967
42.85 	0.035998 	4528 	0.035481
42.87 	0.036230 	4499 	0.035579
42.89 	0.042634 	4480 	0.042503
42.91 	0.043088 	4456 	0.042299
42.93 	0.038012 	4446 	0.037221
42.95 	0.034647 	4416 	0.033851
42.97 	0.040445 	4401 	0.039514
42.99 	0.036944 	4385 	0.036543
43.01 	0.036214 	4363 	0.035677
43.03 	0.039695 	4333 	0.039155
43.05 	0.039538 	4325 	0.038454
43.07 	0.040736 	4296 	0.040736
43.09 	0.040159 	4283 	0.039748
43.11 	0.039953 	4255 	0.039678
43.13 	0.036582 	4237 	0.036306
43.15 	0.042083 	4206 	0.041943
43.17 	0.040919 	4179 	0.040639
43.19 	0.039580 	4194 	0.039301
43.21 	0.039789 	4172 	0.038947
43.23 	0.037795 	4154 	0.037795
43.25 	0.039178 	4135 	0.038469
43.27 	0.036541 	4105 	0.036398
43.29 	0.036829 	4100 	0.036544
43.31 	0.034812 	4079 	0.034238
43.33 	0.038015 	4051 	0.037581
43.35 	0.037698 	4032 	0.037263
43.37 	0.036862 	4015 	0.035986
43.39 	0.043228 	4002 	0.042497
43.41 	0.038520 	3972 	0.038077
43.43 	0.038131 	3960 	0.038131
43.45 	0.032020 	3935 	0.032020
43.47 	0.040551 	3921 	0.040401
43.49 	0.039261 	3897 	0.038635
43.51 	0.036368 	3877 	0.035915
43.53 	0.037536 	3863 	0.037384
43.55 	0.033063 	2964 	0.032668
43.57 	0.039768 	2238 	0.039506
43.59 	0.035510 	1746 	0.034839
43.61 	0.037750 	1351 	0.037750
43.63 	0.034965 	1001 	0.034965
43.65 	0.026201 	687 	0.026201
43.67 	0.033865 	502 	0.033865
43.69 	0.035422 	367 	0.035422
43.71 	0.046025 	239 	0.046025
43.73 	0.041667 	120 	0.041667
43.75 	0.000000 	16 	0.000000