File: Example_Data/25SC_s1_0014.004.dat
#F C:\frames\spec\25SC_s1_0014.004
#C title =s:14 frm:4 25SC_s1
#C wavelength =0.15406

#S 1  fr_average C:\frames\spec\25SC_s1_0014.004 C:\win32app\speccom\mask.axs chi 0 180 0 360 0.02
#C 2 theta =0.000000 to 180 deg
#C   q   =0.000000 to 81.568 nm^-1
#C  chi  =0.000000 to 360 deg
#C collumns:
#C  1 position (2theta or chi in degrees)
#C  2 average intensity (sum of all counts in the region divided with number of pixels)
#C  3 Number of pixels in region)
#C  4 error (sum of sqrt(intensity) for all pixels divided by number)
#N 4
#L TTh  Int  N_pix  Err
32.99 	0.032787 	61 	0.032787
33.01 	0.059565 	873 	0.058223
33.03 	0.078361 	1391 	0.077519
33.05 	0.055208 	1757 	0.054208
33.07 	0.065366 	2050 	0.064176
33.09 	0.063485 	2347 	0.062737
33.11 	0.061652 	2579 	0.061198
33.13 	0.065163 	2793 	0.063660
33.15 	0.062354 	2999 	0.061377
33.17 	0.058107 	3201 	0.057741
33.19 	0.054458 	3342 	0.053757
33.21 	0.055006 	3436 	0.054494
33.23 	0.060176 	3523 	0.059012
33.25 	0.056202 	3612 	0.055066
33.27 	0.052342 	3630 	0.052019
33.29 	0.054276 	3648 	0.053313
33.31 	0.058197 	3660 	0.057396
33.33 	0.061042 	3686 	0.060247
33.35 	0.059285 	3694 	0.058492
33.37 	0.058697 	3714 	0.058381
33.39 	0.060070 	3729 	0.059284
33.41 	0.063636 	3740 	0.062540
33.43 	0.060090 	3761 	0.059467
33.45 	0.054068 	3773 	0.053137
33.47 	0.047920 	3798 	0.047611
33.49 	0.059858 	3809 	0.058782
33.51 	0.057667 	3815 	0.057206
33.53 	0.067951 	3841 	0.067341
33.55 	0.063752 	3843 	0.062355
33.57 	0.059582 	3877 	0.058373
33.59 	0.061598 	3880 	0.060692
33.61 	0.065234 	3909 	0.063885
33.63 	0.062516 	3919 	0.061918
33.65 	0.056220 	3931 	0.055326
33.67 	0.067527 	3954 	0.066193
33.69 	0.059954 	3953 	0.059065
33.71 	0.061635 	3975 	0.060309
33.73 	0.061688 	4004 	0.060225
33.75 	0.060765 	3999 	0.059423
33.77 	0.061615 	4025 	0.060160
33.79 	0.060381 	4041 	0.059656
33.81 	0.068351 	4038 	0.066900
33.83 	0.058025 	4050 	0.057301
33.85 	0.059039 	4099 	0.057586
33.87 	0.063002 	4111 	0.062147
33.89 	0.060665 	4121 	0.059528
33.91 	0.068932 	4149 	0.067944
33.93 	0.059986 	4151 	0.058857
33.95 	0.049749 	4181 	0.048628
33.97 	0.062768 	4190 	0.061790
33.99 	0.059762 	4200 	0.058367
34.01 	0.061476 	4213 	0.060781
34.03 	0.057964 	4244 	0.056561
34.05 	0.063735 	4252 	0.062495
34.07 	0.062559 	4268 	0.061186
34.09 	0.058563 	4286 	0.057469
34.11 	0.060205 	4302 	0.059660
34.13 	0.065460 	4308 	0.064508
34.15 	0.058185 	4331 	0.057103
34.17 	0.062759 	4350 	0.062085
34.19 	0.067859 	4362 	0.065710
34.21 	0.057653 	4371 	0.055642
34.23 	0.058730 	4393 	0.058063
34.25 	0.062897 	4404 	0.061700
34.27 	0.059928 	4422 	0.058735
34.29 	0.056821 	4435 	0.055896
34.31 	0.060341 	4458 	0.059268
34.33 	0.054127 	4471 	0.053078
34.35 	0.061106 	4484 	0.060192
34.37 	0.063460 	4491 	0.062417
34.39 	0.057086 	4502 	0.056435
34.41 	0.066947 	4526 	0.065351
34.43 	0.061908 	4539 	0.060746
34.45 	0.052260 	4535 	0.051485
34.47 	0.066855 	4592 	0.065835
34.49 	0.065477 	4597 	0.064713
34.51 	0.058402 	4606 	0.057766
34.53 	0.056429 	4643 	0.055294
34.55 	0.063752 	4643 	0.062364
34.57 	0.063305 	4660 	0.062550
34.59 	0.064599 	4675 	0.063722
34.61 	0.058548 	4697 	0.057156
34.63 	0.059023 	4710 	0.057904
34.65 	0.059309 	4721 	0.058937
34.67 	0.056106 	4741 	0.054747
34.69 	0.063315 	4754 	0.062453
34.71 	0.054133 	4766 	0.053150
34.73 	0.054314 	4787 	0.053702
34.75 	0.056364 	4808 	0.055268
34.77 	0.058531 	4818 	0.057193
34.79 	0.061982 	4824 	0.060869
34.81 	0.054902 	4845 	0.054056
34.83 	0.060469 	4862 	0.059264
34.85 	0.061820 	4869 	0.060978
34.87 	0.056697 	4868 	0.055975
34.89 	0.059197 	4882 	0.058237
34.91 	0.055715 	4882 	0.054995
34.93 	0.062462 	4899 	0.060788
34.95 	0.056851 	4890 	0.056012
34.97 	0.060180 	4902 	0.058487
34.99 	0.057178 	4897 	0.056341
35.01 	0.061751 	4923 	0.060561
35.03 	0.060085 	4943 	0.059255
35.05 	0.060643 	4947 	0.059814
35.07 	0.059919 	4940 	0.058615
35.09 	0.055320 	4953 	0.054729
35.11 	0.057813 	4947 	0.056984
35.13 	0.069383 	4958 	0.068300
35.15 	0.062791 	4937 	0.060537
35.17 	0.058229 	4946 	0.057755
35.19 	0.065358 	4942 	0.064035
35.21 	0.057634 	4945 	0.056282
35.23 	0.061678 	4945 	0.061442
35.25 	0.061906 	4943 	0.060958
35.27 	0.061843 	4948 	0.061133
35.29 	0.061881 	4945 	0.060815
35.31 	0.055342 	4933 	0.054867
35.33 	0.062310 	4943 	0.061086
35.35 	0.061918 	4942 	0.060377
35.37 	0.060539 	4939 	0.059333
35.39 	0.064914 	4945 	0.063710
35.41 	0.057044 	4926 	0.055974
35.43 	0.059599 	4933 	0.057679
35.45 	0.060158 	4937 	0.058497
35.47 	0.056581 	4931 	0.055512
35.49 	0.058656 	4910 	0.057343
35.51 	0.053187 	4926 	0.052712
35.53 	0.060416 	4949 	0.059824
35.55 	0.063296 	4945 	0.062585
35.57 	0.059396 	4933 	0.058446
35.59 	0.057027 	4945 	0.056317
35.61 	0.060704 	4942 	0.059637
35.63 	0.060894 	4943 	0.059591
35.65 	0.063094 	4945 	0.061909
35.67 	0.058883 	4942 	0.058172
35.69 	0.054792 	4946 	0.053607
35.71 	0.060361 	4937 	0.059174
35.73 	0.058347 	4936 	0.057022
35.75 	0.067329 	4931 	0.065884
35.77 	0.061200 	4951 	0.059425
35.79 	0.060624 	4932 	0.059674
35.81 	0.067099 	4933 	0.066030
35.83 	0.062879 	4946 	0.061794
35.85 	0.064843 	4935 	0.062706
35.87 	0.060532 	4923 	0.059342
35.89 	0.056344 	4934 	0.054919
35.91 	0.054597 	4927 	0.053884
35.93 	0.061092 	4927 	0.060141
35.95 	0.059589 	4917 	0.058755
35.97 	0.061889 	4912 	0.060816
35.99 	0.064993 	4939 	0.063451
36.01 	0.061866 	4930 	0.061034
36.03 	0.064940 	4943 	0.064111
36.05 	0.060667 	4945 	0.060194
36.07 	0.065600 	4939 	0.064770
36.09 	0.063158 	4940 	0.062684
36.11 	0.059647 	4929 	0.058815
36.13 	0.059085 	4942 	0.058137
36.15 	0.058311 	4939 	0.057125
36.17 	0.059695 	4925 	0.058982
36.19 	0.058300 	4940 	0.057114
36.21 	0.060864 	4929 	0.059775
36.23 	0.056940 	4935 	0.055753
36.25 	0.063348 	4941 	0.062380
36.27 	0.060508 	4925 	0.059556
36.29 	0.053133 	4931 	0.051451
36.31 	0.058442 	4928 	0.057609
36.33 	0.060409 	4933 	0.059202
36.35 	0.057821 	4929 	0.056989
36.37 	0.062767 	4923 	0.061220
36.39 	0.060557 	4921 	0.059843
36.41 	0.061683 	4896 	0.060367
36.43 	0.060268 	4928 	0.059079
36.45 	0.061663 	4930 	0.060237
36.47 	0.063412 	4936 	0.062581
36.49 	0.059085 	4942 	0.057544
36.51 	0.057977 	4933 	0.056671
36.53 	0.054420 	4943 	0.053117
36.55 	0.059265 	4927 	0.058076
36.57 	0.058370 	4934 	0.057421
36.59 	0.059729 	4939 	0.058661
36.61 	0.060028 	4931 	0.059316
36.63 	0.055567 	4931 	0.054022
36.65 	0.062652 	4932 	0.061702
36.67 	0.058418 	4930 	0.057824
36.69 	0.060864 	4929 	0.060151
36.71 	0.059947 	4921 	0.058281
36.73 	0.057462 	4925 	0.056391
36.75 	0.059668 	4944 	0.058957
36.77 	0.055296 	4919 	0.054819
36.79 	0.062589 	4921 	0.061756
36.81 	0.059398 	4916 	0.058921
36.83 	0.057579 	4915 	0.056129
36.85 	0.055329 	4898 	0.054252
36.87 	0.057039 	4944 	0.056328
36.89 	0.056957 	4916 	0.056123
36.91 	0.053026 	4941 	0.051840
36.93 	0.054970 	4930 	0.053524
36.95 	0.057166 	4933 	0.056216
36.97 	0.055330 	4934 	0.054618
36.99 	0.056738 	4935 	0.055551
37.01 	0.056761 	4933 	0.055454
37.03 	0.055849 	4924 	0.054283
37.05 	0.055206 	4927 	0.053898
37.07 	0.058156 	4935 	0.057325
37.09 	0.048904 	4928 	0.048072
37.11 	0.057143 	4935 	0.056193
37.13 	0.057880 	4924 	0.056433
37.15 	0.057038 	4909 	0.055129
37.17 	0.054722 	4934 	0.053773
37.19 	0.046497 	4925 	0.046141
37.21 	0.055115 	4917 	0.054400
37.23 	0.053884 	4918 	0.052673
37.25 	0.051721 	4911 	0.050647
37.27 	0.052309 	4894 	0.051471
37.29 	0.061460 	4930 	0.060866
37.31 	0.049037 	4935 	0.048088
37.33 	0.054191 	4927 	0.053478
37.35 	0.057716 	4938 	0.056984
37.37 	0.057033 	4927 	0.056200
37.39 	0.051511 	4931 	0.050779
37.41 	0.055770 	4931 	0.055176
37.43 	0.049270 	4932 	0.049033
37.45 	0.057067 	4924 	0.056235
37.47 	0.053966 	4929 	0.053134
37.49 	0.059517 	4923 	0.058565
37.51 	0.059193 	4933 	0.058243
37.53 	0.053669 	4919 	0.052479
37.55 	0.047059 	4930 	0.046683
37.57 	0.057056 	4925 	0.055985
37.59 	0.063072 	4915 	0.062238
37.61 	0.055262 	4922 	0.053596
37.63 	0.055092 	4919 	0.054378
37.65 	0.050020 	4918 	0.049425
37.67 	0.057912 	4904 	0.057315
37.69 	0.057370 	4898 	0.056174
37.71 	0.063502 	4929 	0.061957
37.73 	0.054372 	4929 	0.053540
37.75 	0.058097 	4940 	0.056793
37.77 	0.052642 	4920 	0.051928
37.79 	0.067140 	4930 	0.066071
37.81 	0.053314 	4933 	0.051414
37.83 	0.058740 	4920 	0.057192
37.85 	0.062576 	4922 	0.061862
37.87 	0.059729 	4939 	0.059136
37.89 	0.056447 	4925 	0.056090
37.91 	0.053550 	4930 	0.052718
37.93 	0.060378 	4919 	0.058830
37.95 	0.056493 	4921 	0.055778
37.97 	0.059647 	4929 	0.058696
37.99 	0.052728 	4912 	0.052370
38.01 	0.061485 	4928 	0.060277
38.03 	0.058871 	4909 	0.057798
38.05 	0.056447 	4925 	0.055495
38.07 	0.059483 	4909 	0.058647
38.09 	0.059041 	4878 	0.058080
38.11 	0.061398 	4935 	0.060449
38.13 	0.056917 	4937 	0.056087
38.15 	0.055104 	4918 	0.054151
38.17 	0.058824 	4930 	0.057992
38.19 	0.050304 	4930 	0.049453
38.21 	0.064189 	4923 	0.062880
38.23 	0.063994 	4938 	0.063044
38.25 	0.063657 	4917 	0.062227
38.27 	0.055578 	4930 	0.054628
38.29 	0.066003 	4924 	0.064457
38.31 	0.068399 	4927 	0.066972
38.33 	0.062754 	4924 	0.061921
38.35 	0.066964 	4928 	0.065043
38.37 	0.068034 	4924 	0.066131
38.39 	0.069057 	4909 	0.067386
38.41 	0.070282 	4923 	0.068597
38.43 	0.065094 	4916 	0.064498
38.45 	0.065067 	4918 	0.063638
38.47 	0.064398 	4907 	0.063682
38.49 	0.062538 	4877 	0.061457
38.51 	0.063463 	4932 	0.062157
38.53 	0.068980 	4929 	0.067910
38.55 	0.064222 	4936 	0.063273
38.57 	0.069064 	4923 	0.067140
38.59 	0.063769 	4924 	0.061965
38.61 	0.064222 	4936 	0.063035
38.63 	0.061129 	4924 	0.060177
38.65 	0.059170 	4918 	0.057464
38.67 	0.056715 	4937 	0.055865
38.69 	0.059122 	4922 	0.058408
38.71 	0.059911 	4924 	0.059078
38.73 	0.061814 	4918 	0.060146
38.75 	0.051350 	4927 	0.050636
38.77 	0.062970 	4923 	0.061899
38.79 	0.051682 	4934 	0.051326
38.81 	0.058836 	4912 	0.058120
38.83 	0.058548 	4919 	0.057953
38.85 	0.053542 	4912 	0.053065
38.87 	0.057829 	4911 	0.056517
38.89 	0.063508 	4897 	0.062192
38.91 	0.052009 	4903 	0.051412
38.93 	0.052653 	4938 	0.051585
38.95 	0.047580 	4918 	0.047104
38.97 	0.058812 	4931 	0.057267
38.99 	0.051448 	4937 	0.050855
39.01 	0.057544 	4918 	0.056214
39.03 	0.052493 	4934 	0.051662
39.05 	0.060305 	4925 	0.059353
39.07 	0.059708 	4924 	0.058875
39.09 	0.051391 	4923 	0.050677
39.11 	0.054553 	4931 	0.054196
39.13 	0.053016 	4923 	0.052422
39.15 	0.052696 	4915 	0.052100
39.17 	0.060968 	4937 	0.059900
39.19 	0.060199 	4917 	0.059365
39.21 	0.057230 	4910 	0.056276
39.23 	0.050761 	4925 	0.049691
39.25 	0.052215 	4922 	0.051381
39.27 	0.050509 	4910 	0.050032
39.29 	0.056519 	4901 	0.055802
39.31 	0.051597 	4884 	0.050638
39.33 	0.049483 	4931 	0.049008
39.35 	0.055724 	4935 	0.054537
39.37 	0.055386 	4929 	0.054178
39.39 	0.055589 	4929 	0.054876
39.41 	0.058203 	4931 	0.057253
39.43 	0.059396 	4933 	0.058921
39.45 	0.046294 	4925 	0.046057
39.47 	0.062970 	4923 	0.061899
39.49 	0.052098 	4933 	0.051148
39.51 	0.051584 	4924 	0.050751
39.53 	0.059720 	4923 	0.058768
39.55 	0.054686 	4919 	0.053733
39.57 	0.056558 	4933 	0.055608
39.59 	0.052117 	4912 	0.050686
39.61 	0.055657 	4923 	0.054824
39.63 	0.057700 	4922 	0.056629
39.65 	0.057450 	4926 	0.056499
39.67 	0.054956 	4913 	0.053883
39.69 	0.057160 	4916 	0.056207
39.71 	0.054545 	4895 	0.053708
39.73 	0.057865 	4908 	0.057029
39.75 	0.055398 	4928 	0.054328
39.77 	0.058967 	4935 	0.057542
39.79 	0.056435 	4926 	0.056197
39.81 	0.055003 	4927 	0.054052
39.83 	0.056141 	4934 	0.054816
39.85 	0.059874 	4927 	0.058329
39.87 	0.056447 	4925 	0.055119
39.89 	0.056344 	4934 	0.055869
39.91 	0.056481 	4922 	0.055291
39.93 	0.051448 	4937 	0.050262
39.95 	0.056155 	4915 	0.054963
39.97 	0.060065 	4928 	0.059471
39.99 	0.052109 	4932 	0.051990
40.01 	0.052257 	4918 	0.051900
40.03 	0.056412 	4928 	0.055818
40.05 	0.055522 	4917 	0.054906
40.07 	0.057892 	4923 	0.056940
40.09 	0.055126 	4916 	0.054292
40.11 	0.052278 	4916 	0.051186
40.13 	0.055556 	4896 	0.054120
40.15 	0.055160 	4913 	0.054325
40.17 	0.053369 	4928 	0.052299
40.19 	0.054981 	4929 	0.054010
40.21 	0.054103 	4935 	0.053510
40.23 	0.054745 	4932 	0.054151
40.25 	0.052236 	4920 	0.051640
40.27 	0.056715 	4937 	0.055291
40.29 	0.055409 	4927 	0.054815
40.31 	0.048390 	4939 	0.047560
40.33 	0.055150 	4932 	0.054794
40.35 	0.054483 	4919 	0.053054
40.37 	0.052546 	4929 	0.051595
40.39 	0.060434 	4931 	0.059484
40.41 	0.056650 	4925 	0.056174
40.43 	0.053027 	4922 	0.052075
40.45 	0.053720 	4933 	0.052414
40.47 	0.055307 	4918 	0.054573
40.49 	0.054405 	4926 	0.053454
40.51 	0.057497 	4922 	0.056783
40.53 	0.048007 	4916 	0.047530
40.55 	0.047881 	4908 	0.047165
40.57 	0.051534 	4890 	0.051174
40.59 	0.049625 	4937 	0.049269
40.61 	0.050659 	4935 	0.049927
40.63 	0.045639 	4930 	0.044926
40.65 	0.053474 	4937 	0.052287
40.67 	0.058394 	4932 	0.057325
40.69 	0.055297 	4937 	0.054229
40.71 	0.057583 	4932 	0.056138
40.73 	0.050142 	4926 	0.049666
40.75 	0.049888 	4931 	0.049057
40.77 	0.053047 	4939 	0.051861
40.79 	0.056052 	4924 	0.054981
40.81 	0.053835 	4941 	0.052512
40.83 	0.052963 	4928 	0.052606
40.85 	0.053209 	4924 	0.052257
40.87 	0.050122 	4928 	0.049290
40.89 	0.051308 	4931 	0.050714
40.91 	0.049360 	4923 	0.048389
40.93 	0.053709 	4934 	0.052997
40.95 	0.054753 	4913 	0.053560
40.97 	0.051381 	4924 	0.050905
40.99 	0.050569 	4924 	0.049855
41.01 	0.056393 	4912 	0.055319
41.03 	0.053211 	4905 	0.052833
41.05 	0.055105 	4936 	0.054512
41.07 	0.055375 	4930 	0.054544
41.09 	0.051427 	4939 	0.050834
41.11 	0.054509 	4935 	0.053915
41.13 	0.049028 	4936 	0.048790
41.15 	0.046549 	4941 	0.045818
41.17 	0.050263 	4934 	0.049670
41.19 	0.045030 	4930 	0.044674
41.21 	0.046790 	4937 	0.045840
41.23 	0.050820 	4939 	0.049515
41.25 	0.051895 	4933 	0.051064
41.27 	0.054350 	4931 	0.053756
41.29 	0.050731 	4928 	0.049780
41.31 	0.052098 	4933 	0.051129
41.33 	0.045979 	4937 	0.045149
41.35 	0.048603 	4938 	0.047891
41.37 	0.053006 	4924 	0.052411
41.39 	0.052706 	4933 	0.051994
41.41 	0.052578 	4926 	0.052578
41.43 	0.046460 	4929 	0.045747
41.45 	0.059015 	4914 	0.056989
41.47 	0.053796 	4926 	0.053439
41.49 	0.049264 	4892 	0.048905
41.51 	0.054049 	4940 	0.052507
41.53 	0.047937 	4944 	0.047344
41.55 	0.056535 	4935 	0.055585
41.57 	0.053026 	4941 	0.051959
41.59 	0.046422 	4933 	0.044997
41.61 	0.051080 	4953 	0.050134
41.63 	0.050223 	4938 	0.049630
41.65 	0.053155 	4929 	0.051709
41.67 	0.050202 	4940 	0.049254
41.69 	0.054781 	4947 	0.053202
41.71 	0.045399 	4934 	0.045043
41.73 	0.051661 	4936 	0.050712
41.75 	0.047474 	4929 	0.046523
41.77 	0.051609 	4941 	0.050542
41.79 	0.049555 	4944 	0.048844
41.81 	0.054498 	4936 	0.053904
41.83 	0.048295 	4928 	0.047939
41.85 	0.044138 	4939 	0.043664
41.87 	0.050456 	4935 	0.049744
41.89 	0.044800 	4933 	0.044088
41.91 	0.050243 	4936 	0.049531
41.93 	0.047040 	4932 	0.046327
41.95 	0.049077 	4931 	0.048483
41.97 	0.044974 	4914 	0.044378
41.99 	0.050357 	4905 	0.049401
42.01 	0.051396 	4942 	0.051041
42.03 	0.049605 	4939 	0.048775
42.05 	0.048869 	4952 	0.047805
42.07 	0.049220 	4937 	0.049102
42.09 	0.052749 	4948 	0.052512
42.11 	0.048129 	4945 	0.047063
42.13 	0.053994 	4945 	0.053046
42.15 	0.044552 	4938 	0.043841
42.17 	0.048394 	4918 	0.048036
42.19 	0.042787 	4908 	0.042549
42.21 	0.043461 	4901 	0.042982
42.23 	0.048242 	4892 	0.046805
42.25 	0.047453 	4889 	0.046495
42.27 	0.051087 	4874 	0.050366
42.29 	0.050175 	4863 	0.049693
42.31 	0.048404 	4855 	0.047680
42.33 	0.050269 	4834 	0.049905
42.35 	0.050021 	4838 	0.049415
42.37 	0.046584 	4830 	0.045594
42.39 	0.050375 	4804 	0.049643
42.41 	0.048709 	4804 	0.047734
42.43 	0.043197 	4792 	0.042586
42.45 	0.047111 	4776 	0.046743
42.47 	0.047849 	4765 	0.047111
42.49 	0.048269 	4765 	0.047531
42.51 	0.049968 	4743 	0.049845
42.53 	0.046954 	4728 	0.046459
42.55 	0.048216 	4708 	0.047843
42.57 	0.043340 	4730 	0.042845
42.59 	0.043138 	4729 	0.041899
42.61 	0.046092 	4708 	0.045449
42.63 	0.043534 	4709 	0.043160
42.65 	0.046318 	4685 	0.045818
42.67 	0.051452 	4684 	0.050952
42.69 	0.044288 	4674 	0.043786
42.71 	0.050611 	4663 	0.050109
42.73 	0.048922 	4640 	0.048544
42.75 	0.052848 	4617 	0.052193
42.77 	0.047826 	4600 	0.047317
42.79 	0.046923 	4582 	0.046411
42.81 	0.046909 	4562 	0.046267
42.83 	0.048280 	4536 	0.047506
42.85 	0.048807 	4528 	0.048031
42.87 	0.050678 	4499 	0.049767
42.89 	0.047991 	4480 	0.047337
42.91 	0.052513 	4456 	0.051462
42.93 	0.050607 	4446 	0.050212
42.95 	0.050951 	4416 	0.050288
42.97 	0.045217 	4401 	0.044685
42.99 	0.049715 	4385 	0.048913
43.01 	0.050195 	4363 	0.049658
43.03 	0.053773 	4333 	0.053233
43.05 	0.049249 	4325 	0.048685
43.07 	0.049348 	4296 	0.048666
43.09 	0.049731 	4283 	0.049048
43.11 	0.050764 	4255 	0.049800
43.13 	0.042011 	4237 	0.041320
43.15 	0.048264 	4206 	0.047707
43.17 	0.045465 	4179 	0.044905
43.19 	0.048164 	4194 	0.047466
43.21 	0.040508 	4172 	0.039525
43.23 	0.050554 	4154 	0.049708
43.25 	0.054414 	4135 	0.054130
43.27 	0.038246 	4105 	0.037675
43.29 	0.047561 	4100 	0.047132
43.31 	0.050503 	4079 	0.049497
43.33 	0.047396 	4051 	0.046817
43.35 	0.044395 	4032 	0.043645
43.37 	0.044583 	4015 	0.044291
43.39 	0.048226 	4002 	0.047640
43.41 	0.042800 	3972 	0.042505
43.43 	0.050758 	3960 	0.050018
43.45 	0.046760 	3935 	0.046462
43.47 	0.045907 	3921 	0.045608
43.49 	0.044906 	3897 	0.044606
43.51 	0.045396 	3877 	0.044489
43.53 	0.044784 	3863 	0.044177
43.55 	0.054993 	2964 	0.053215
43.57 	0.054513 	2238 	0.052942
43.59 	0.055556 	1746 	0.054885
43.61 	0.058475 	1351 	0.057174
43.63 	0.047952 	1001 	0.044441
43.65 	0.033479 	687 	0.031774
43.67 	0.055777 	502 	0.053443
43.69 	0.046322 	367 	0.046322
43.71 	0.029289 	239 	0.029289
43.73 	0.091667 	120 	0.086785
43.75 	0.000000 	16 	0.000000