File: Example_Data/25SC_s1_0038.001.dat
#F C:\frames\spec\25SC_s1_0038.001
#C title =s:38 frm:1 25SC_s1
#C wavelength =0.15406

#S 1  fr_average C:\frames\spec\25SC_s1_0038.001 C:\win32app\speccom\mask.axs chi 0 180 0 360 0.02
#C 2 theta =0.000000 to 180 deg
#C   q   =0.000000 to 81.568 nm^-1
#C  chi  =0.000000 to 360 deg
#C collumns:
#C  1 position (2theta or chi in degrees)
#C  2 average intensity (sum of all counts in the region divided with number of pixels)
#C  3 Number of pixels in region)
#C  4 error (sum of sqrt(intensity) for all pixels divided by number)
#N 4
#L TTh  Int  N_pix  Err
32.99 	0.098361 	61 	0.098361
33.01 	0.048110 	873 	0.046768
33.03 	0.069015 	1391 	0.066840
33.05 	0.064314 	1757 	0.062981
33.07 	0.070244 	2050 	0.068529
33.09 	0.062207 	2347 	0.061458
33.11 	0.053509 	2579 	0.052336
33.13 	0.061583 	2793 	0.060744
33.15 	0.057352 	2999 	0.056571
33.17 	0.059044 	3201 	0.058312
33.19 	0.059246 	3342 	0.058370
33.21 	0.060244 	3436 	0.059051
33.23 	0.057337 	3523 	0.056340
33.25 	0.061739 	3612 	0.060441
33.27 	0.060606 	3630 	0.059799
33.29 	0.058662 	3648 	0.057217
33.31 	0.058743 	3660 	0.057783
33.33 	0.054259 	3686 	0.053465
33.35 	0.054413 	3694 	0.053461
33.37 	0.061659 	3714 	0.059924
33.39 	0.063824 	3729 	0.063353
33.41 	0.062032 	3740 	0.061249
33.43 	0.065408 	3761 	0.064162
33.45 	0.053538 	3773 	0.052607
33.47 	0.066087 	3798 	0.065162
33.49 	0.054870 	3809 	0.053332
33.51 	0.051900 	3815 	0.050979
33.53 	0.058058 	3841 	0.056470
33.55 	0.060370 	3843 	0.059150
33.57 	0.064225 	3877 	0.062412
33.59 	0.059278 	3880 	0.058674
33.61 	0.057048 	3909 	0.056124
33.63 	0.064302 	3919 	0.063704
33.65 	0.063851 	3931 	0.062957
33.67 	0.057410 	3954 	0.056521
33.69 	0.053883 	3953 	0.053290
33.71 	0.060126 	3975 	0.059242
33.73 	0.061688 	4004 	0.060201
33.75 	0.058015 	3999 	0.057429
33.77 	0.053665 	4025 	0.053228
33.79 	0.061618 	4041 	0.060604
33.81 	0.058940 	4038 	0.057780
33.83 	0.058272 	4050 	0.057115
33.85 	0.060015 	4099 	0.058871
33.87 	0.056434 	4111 	0.055009
33.89 	0.059937 	4121 	0.058515
33.91 	0.058086 	4149 	0.057216
33.93 	0.058299 	4151 	0.057452
33.95 	0.059316 	4181 	0.058195
33.97 	0.062053 	4190 	0.060794
33.99 	0.054762 	4200 	0.054204
34.01 	0.055068 	4213 	0.054211
34.03 	0.062205 	4244 	0.061377
34.05 	0.067027 	4252 	0.065787
34.07 	0.053421 	4268 	0.052460
34.09 	0.056930 	4286 	0.056383
34.11 	0.063226 	4302 	0.062409
34.13 	0.058728 	4308 	0.057776
34.15 	0.059109 	4331 	0.058410
34.17 	0.058851 	4350 	0.057639
34.19 	0.055708 	4362 	0.055037
34.21 	0.058110 	4371 	0.057574
34.23 	0.057592 	4393 	0.056392
34.25 	0.054042 	4404 	0.053111
34.27 	0.049751 	4422 	0.049221
34.29 	0.061330 	4435 	0.060274
34.31 	0.058098 	4458 	0.057047
34.33 	0.060389 	4471 	0.059210
34.35 	0.056646 	4484 	0.055731
34.37 	0.057003 	4491 	0.055307
34.39 	0.056197 	4502 	0.055547
34.41 	0.058551 	4526 	0.057774
34.43 	0.054197 	4539 	0.053294
34.45 	0.052481 	4535 	0.051943
34.47 	0.056620 	4592 	0.055089
34.49 	0.057864 	4597 	0.056972
34.51 	0.054711 	4606 	0.053948
34.53 	0.056214 	4643 	0.054574
34.55 	0.056214 	4643 	0.055457
34.57 	0.052790 	4660 	0.052413
34.59 	0.054118 	4675 	0.053115
34.61 	0.053651 	4697 	0.052778
34.63 	0.060297 	4710 	0.059551
34.65 	0.050625 	4721 	0.049756
34.67 	0.058426 	4741 	0.057438
34.69 	0.053849 	4754 	0.053357
34.71 	0.054343 	4766 	0.053606
34.73 	0.053896 	4787 	0.053039
34.75 	0.052205 	4808 	0.051352
34.77 	0.057078 	4818 	0.056348
34.79 	0.056385 	4824 	0.055272
34.81 	0.050980 	4845 	0.050255
34.83 	0.057384 	4862 	0.056299
34.85 	0.048881 	4869 	0.048159
34.87 	0.054232 	4868 	0.053630
34.89 	0.059402 	4882 	0.058422
34.91 	0.052642 	4882 	0.052042
34.93 	0.058175 	4899 	0.056023
34.95 	0.060941 	4890 	0.059863
34.97 	0.057528 	4902 	0.056691
34.99 	0.051256 	4897 	0.050179
35.01 	0.058298 	4923 	0.057564
35.03 	0.056241 	4943 	0.054681
35.05 	0.053770 	4947 	0.052704
35.07 	0.043117 	4940 	0.042999
35.09 	0.060569 	4953 	0.059387
35.11 	0.052153 	4947 	0.051442
35.13 	0.056676 	4958 	0.055258
35.15 	0.053676 	4937 	0.051996
35.17 	0.050344 	4946 	0.049515
35.19 	0.063537 	4942 	0.062707
35.21 	0.054601 	4945 	0.053653
35.23 	0.056825 	4945 	0.055996
35.25 	0.058062 	4943 	0.056758
35.27 	0.049515 	4948 	0.049041
35.29 	0.052578 	4945 	0.051986
35.31 	0.055139 	4933 	0.054545
35.33 	0.057455 	4943 	0.056862
35.35 	0.058681 	4942 	0.056903
35.37 	0.057502 	4939 	0.057027
35.39 	0.059858 	4945 	0.059029
35.41 	0.059074 	4926 	0.058480
35.43 	0.059193 	4933 	0.058006
35.45 	0.052866 	4937 	0.052392
35.47 	0.054958 	4931 	0.053889
35.49 	0.053971 	4910 	0.052182
35.51 	0.060495 	4926 	0.059168
35.53 	0.054152 	4949 	0.053679
35.55 	0.054803 	4945 	0.053855
35.57 	0.057774 	4933 	0.057062
35.59 	0.049747 	4945 	0.048800
35.61 	0.051396 	4942 	0.051159
35.63 	0.062917 	4943 	0.061851
35.65 	0.051769 	4945 	0.050822
35.67 	0.059288 	4942 	0.058221
35.69 	0.055803 	4946 	0.054855
35.71 	0.057727 	4937 	0.057015
35.73 	0.054498 	4936 	0.054023
35.75 	0.055770 	4931 	0.055176
35.77 	0.054938 	4951 	0.054347
35.79 	0.056772 	4932 	0.056059
35.81 	0.055544 	4933 	0.054594
35.83 	0.052972 	4946 	0.052380
35.85 	0.052077 	4935 	0.051009
35.87 	0.053626 	4923 	0.053388
35.89 	0.057154 	4934 	0.055611
35.91 	0.052973 	4927 	0.051547
35.93 	0.058250 	4927 	0.057418
35.95 	0.060809 	4917 	0.060095
35.97 	0.052932 	4912 	0.051739
35.99 	0.054667 	4939 	0.053699
36.01 	0.059635 	4930 	0.058684
36.03 	0.055634 	4943 	0.054568
36.05 	0.058443 	4945 	0.056646
36.07 	0.057704 	4939 	0.056518
36.09 	0.054858 	4940 	0.054384
36.11 	0.052749 	4929 	0.052155
36.13 	0.052408 	4942 	0.051460
36.15 	0.053857 	4939 	0.052908
36.17 	0.050152 	4925 	0.049419
36.19 	0.051215 	4940 	0.049673
36.21 	0.056807 	4929 	0.056094
36.23 	0.052888 	4935 	0.051938
36.25 	0.051002 	4941 	0.050172
36.27 	0.054213 	4925 	0.052905
36.29 	0.054756 	4931 	0.053449
36.31 	0.055804 	4928 	0.055328
36.33 	0.057166 	4933 	0.056078
36.35 	0.049706 	4929 	0.049468
36.37 	0.051188 	4923 	0.050336
36.39 	0.054664 	4921 	0.053592
36.41 	0.055147 	4896 	0.054549
36.43 	0.059456 	4928 	0.058267
36.45 	0.054158 	4930 	0.053921
36.47 	0.051256 	4936 	0.049951
36.49 	0.062323 	4942 	0.061375
36.51 	0.057369 	4933 	0.056538
36.53 	0.053813 	4943 	0.052865
36.55 	0.055003 	4927 	0.054646
36.57 	0.056344 	4934 	0.055513
36.59 	0.054262 	4939 	0.053550
36.61 	0.053944 	4931 	0.053232
36.63 	0.054553 	4931 	0.053959
36.65 	0.056772 	4932 	0.055684
36.67 	0.055984 	4930 	0.055251
36.69 	0.052952 	4929 	0.051882
36.71 	0.050599 	4921 	0.050361
36.73 	0.056244 	4925 	0.055411
36.75 	0.057646 	4944 	0.056224
36.77 	0.059158 	4919 	0.058305
36.79 	0.052022 	4921 	0.051189
36.81 	0.055736 	4916 	0.054545
36.83 	0.054527 	4915 	0.053931
36.85 	0.054104 	4898 	0.053147
36.87 	0.046926 	4944 	0.046452
36.89 	0.050244 	4916 	0.049291
36.91 	0.050799 	4941 	0.049495
36.93 	0.048276 	4930 	0.046949
36.95 	0.055544 	4933 	0.054931
36.97 	0.055330 	4934 	0.054005
36.99 	0.057953 	4935 	0.057004
37.01 	0.052706 	4933 	0.052113
37.03 	0.054427 	4924 	0.054070
37.05 	0.054597 	4927 	0.053527
37.07 	0.052077 	4935 	0.051246
37.09 	0.052557 	4928 	0.052200
37.11 	0.053293 	4935 	0.052225
37.13 	0.054224 	4924 	0.053629
37.15 	0.053982 	4909 	0.053147
37.17 	0.065261 	4934 	0.063718
37.19 	0.050964 	4925 	0.050132
37.21 	0.054098 	4917 	0.052907
37.23 	0.058560 	4918 	0.057727
37.25 	0.055997 	4911 	0.054923
37.27 	0.055170 	4894 	0.054571
37.29 	0.059432 	4930 	0.058719
37.31 	0.055117 	4935 	0.053692
37.33 	0.055206 	4927 	0.054849
37.35 	0.054475 	4938 	0.053764
37.37 	0.049320 	4927 	0.048845
37.39 	0.055567 	4931 	0.054854
37.41 	0.059217 	4931 	0.058623
37.43 	0.051500 	4932 	0.051025
37.45 	0.056052 	4924 	0.055100
37.47 	0.054372 	4929 	0.053421
37.49 	0.057688 	4923 	0.056855
37.51 	0.055747 	4933 	0.054916
37.53 	0.056516 	4919 	0.056158
37.55 	0.055781 	4930 	0.054830
37.57 	0.054010 	4925 	0.053415
37.59 	0.052696 	4915 	0.051504
37.61 	0.049573 	4922 	0.048740
37.63 	0.048790 	4919 	0.048314
37.65 	0.055510 	4918 	0.055153
37.67 	0.053834 	4904 	0.052281
37.69 	0.055125 	4898 	0.054168
37.71 	0.056401 	4929 	0.055688
37.73 	0.049706 	4929 	0.049112
37.75 	0.054049 	4940 	0.053811
37.77 	0.055894 	4920 	0.055041
37.79 	0.051724 	4930 	0.051130
37.81 	0.050071 	4933 	0.049833
37.83 	0.058130 	4920 	0.056682
37.85 	0.055668 	4922 	0.054716
37.87 	0.054060 	4939 	0.053348
37.89 	0.052589 	4925 	0.051399
37.91 	0.047465 	4930 	0.047108
37.93 	0.049400 	4919 	0.048686
37.95 	0.053648 	4921 	0.053171
37.97 	0.052140 	4929 	0.052022
37.99 	0.059039 	4912 	0.058304
38.01 	0.052760 	4928 	0.052403
38.03 	0.056223 	4909 	0.055388
38.05 	0.055838 	4925 	0.055124
38.07 	0.052760 	4909 	0.052164
38.09 	0.057811 	4878 	0.057330
38.11 	0.054509 	4935 	0.053915
38.13 	0.053271 	4937 	0.052322
38.15 	0.055104 	4918 	0.054151
38.17 	0.056592 	4930 	0.055642
38.19 	0.056795 	4930 	0.055845
38.21 	0.058704 	4923 	0.057514
38.23 	0.065006 	4938 	0.063820
38.25 	0.061623 	4917 	0.060432
38.27 	0.067748 	4930 	0.066917
38.29 	0.059098 	4924 	0.058385
38.31 	0.064948 	4927 	0.064235
38.33 	0.058692 	4924 	0.057502
38.35 	0.070617 	4928 	0.068834
38.37 	0.067222 	4924 	0.065437
38.39 	0.065798 	4909 	0.064843
38.41 	0.071501 	4923 	0.069835
38.43 	0.067941 	4916 	0.066750
38.45 	0.072794 	4918 	0.070273
38.47 	0.070512 	4907 	0.069676
38.49 	0.078122 	4877 	0.077041
38.51 	0.082928 	4932 	0.080671
38.53 	0.077906 	4929 	0.075886
38.55 	0.073136 	4936 	0.072068
38.57 	0.066220 	4923 	0.064911
38.59 	0.066003 	4924 	0.064695
38.61 	0.070908 	4936 	0.069127
38.63 	0.069862 	4924 	0.067681
38.65 	0.065880 	4918 	0.064928
38.67 	0.064614 	4937 	0.064021
38.69 	0.062373 	4922 	0.060687
38.71 	0.061738 	4924 	0.060311
38.73 	0.063034 	4918 	0.061962
38.75 	0.063933 	4927 	0.062626
38.77 	0.058095 	4923 	0.056905
38.79 	0.057357 	4934 	0.056882
38.81 	0.056393 	4912 	0.055558
38.83 	0.051027 	4919 	0.049459
38.85 	0.047842 	4912 	0.047484
38.87 	0.050092 	4911 	0.049137
38.89 	0.052890 	4897 	0.052531
38.91 	0.053437 	4903 	0.052720
38.93 	0.044755 	4938 	0.044518
38.95 	0.050224 	4918 	0.049509
38.97 	0.049280 	4931 	0.049042
38.99 	0.046384 	4937 	0.045554
39.01 	0.045750 	4918 	0.044917
39.03 	0.046210 	4934 	0.045359
39.05 	0.048528 	4925 	0.047933
39.07 	0.043664 	4924 	0.043188
39.09 	0.048751 	4923 	0.048156
39.11 	0.044413 	4931 	0.043463
39.13 	0.047532 	4923 	0.046818
39.15 	0.043133 	4915 	0.042657
39.17 	0.042131 	4937 	0.041656
39.19 	0.048810 	4917 	0.048334
39.21 	0.046029 	4910 	0.045671
39.23 	0.042843 	4925 	0.042367
39.25 	0.043885 	4922 	0.043528
39.27 	0.040530 	4910 	0.040172
39.29 	0.048970 	4901 	0.048372
39.31 	0.047297 	4884 	0.046698
39.33 	0.051511 	4931 	0.051036
39.35 	0.047214 	4935 	0.046739
39.37 	0.044228 	4929 	0.043515
39.39 	0.045445 	4929 	0.044732
39.41 	0.044818 	4931 	0.044225
39.43 	0.044800 	4933 	0.044325
39.45 	0.052183 	4925 	0.051588
39.47 	0.050376 	4923 	0.049543
39.49 	0.043179 	4933 	0.042347
39.51 	0.046304 	4924 	0.045352
39.53 	0.042860 	4923 	0.042384
39.55 	0.043708 	4919 	0.043113
39.57 	0.046625 	4933 	0.045912
39.59 	0.042142 	4912 	0.041903
39.61 	0.050985 	4923 	0.050509
39.63 	0.050386 	4922 	0.049791
39.65 	0.043646 	4926 	0.043527
39.67 	0.045593 	4913 	0.044759
39.69 	0.044548 	4916 	0.044429
39.71 	0.049847 	4895 	0.048889
39.73 	0.051956 	4908 	0.051359
39.75 	0.045657 	4928 	0.045301
39.77 	0.040324 	4935 	0.039731
39.79 	0.041210 	4926 	0.040140
39.81 	0.046073 	4927 	0.045102
39.83 	0.043981 	4934 	0.043268
39.85 	0.042825 	4927 	0.041755
39.87 	0.040406 	4925 	0.039811
39.89 	0.042764 	4934 	0.042290
39.91 	0.039415 	4922 	0.039177
39.93 	0.042941 	4937 	0.042704
39.95 	0.051272 	4915 	0.050914
39.97 	0.045049 	4928 	0.044692
39.99 	0.041363 	4932 	0.040887
40.01 	0.044124 	4918 	0.043885
40.03 	0.042817 	4928 	0.042460
40.05 	0.038438 	4917 	0.037684
40.07 	0.045704 	4923 	0.045228
40.09 	0.046786 	4916 	0.046786
40.11 	0.039666 	4916 	0.039309
40.13 	0.042892 	4896 	0.041915
40.15 	0.046611 	4913 	0.046134
40.17 	0.040381 	4928 	0.039906
40.19 	0.037939 	4929 	0.037345
40.21 	0.042756 	4935 	0.042281
40.23 	0.040552 	4932 	0.040195
40.25 	0.042073 	4920 	0.041835
40.27 	0.045777 	4937 	0.045184
40.29 	0.039375 	4927 	0.038780
40.31 	0.047985 	4939 	0.047274
40.33 	0.039538 	4932 	0.039181
40.35 	0.045741 	4919 	0.045146
40.37 	0.042402 	4929 	0.042046
40.39 	0.038532 	4931 	0.037819
40.41 	0.043452 	4925 	0.042857
40.43 	0.043072 	4922 	0.042358
40.45 	0.039327 	4933 	0.038971
40.47 	0.038227 	4918 	0.037512
40.49 	0.044864 	4926 	0.044507
40.51 	0.040634 	4922 	0.039920
40.53 	0.039666 	4916 	0.039428
40.55 	0.045232 	4908 	0.044874
40.57 	0.044376 	4890 	0.044017
40.59 	0.042333 	4937 	0.041977
40.61 	0.040324 	4935 	0.039711
40.63 	0.044422 	4930 	0.043471
40.65 	0.041928 	4937 	0.041335
40.67 	0.043390 	4932 	0.042796
40.69 	0.038080 	4937 	0.037605
40.71 	0.036496 	4932 	0.036378
40.73 	0.044864 	4926 	0.043675
40.75 	0.035693 	4931 	0.035455
40.77 	0.043531 	4939 	0.043057
40.79 	0.043258 	4924 	0.042901
40.81 	0.042502 	4941 	0.041553
40.83 	0.041396 	4928 	0.041277
40.85 	0.041836 	4924 	0.041479
40.87 	0.042005 	4928 	0.041767
40.89 	0.040763 	4931 	0.040169
40.91 	0.039610 	4923 	0.039372
40.93 	0.039116 	4934 	0.038760
40.95 	0.044372 	4913 	0.044014
40.97 	0.045085 	4924 	0.044609
40.99 	0.037165 	4924 	0.036927
41.01 	0.043363 	4912 	0.042012
41.03 	0.036290 	4905 	0.035454
41.05 	0.040924 	4936 	0.040212
41.07 	0.039554 	4930 	0.039078
41.09 	0.038672 	4939 	0.038079
41.11 	0.037893 	4935 	0.037774
41.13 	0.041532 	4936 	0.040701
41.15 	0.039466 	4941 	0.038991
41.17 	0.036279 	4934 	0.036160
41.19 	0.041379 	4930 	0.041023
41.21 	0.034231 	4937 	0.033875
41.23 	0.042924 	4939 	0.042449
41.25 	0.040746 	4933 	0.040271
41.27 	0.047049 	4931 	0.046693
41.29 	0.040381 	4928 	0.040025
41.31 	0.041557 	4933 	0.041082
41.33 	0.034029 	4937 	0.033554
41.35 	0.040705 	4938 	0.039993
41.37 	0.040211 	4924 	0.039616
41.39 	0.035070 	4933 	0.034595
41.41 	0.036947 	4926 	0.036471
41.43 	0.036721 	4929 	0.036365
41.45 	0.035002 	4914 	0.034525
41.47 	0.037962 	4926 	0.037367
41.49 	0.038226 	4892 	0.038106
41.51 	0.040891 	4940 	0.040061
41.53 	0.040251 	4944 	0.039658
41.55 	0.043566 	4935 	0.043210
41.57 	0.038251 	4941 	0.037421
41.59 	0.039327 	4933 	0.039089
41.61 	0.036947 	4953 	0.036829
41.63 	0.039287 	4938 	0.039050
41.65 	0.048286 	4929 	0.047454
41.67 	0.035020 	4940 	0.034783
41.69 	0.040429 	4947 	0.040310
41.71 	0.038508 	4934 	0.037915
41.73 	0.040316 	4936 	0.039248
41.75 	0.038344 	4929 	0.037374
41.77 	0.039870 	4941 	0.039752
41.79 	0.040655 	4944 	0.040300
41.81 	0.038493 	4936 	0.038137
41.83 	0.036729 	4928 	0.035897
41.85 	0.042519 	4939 	0.041926
41.87 	0.035664 	4935 	0.034932
41.89 	0.038516 	4933 	0.038279
41.91 	0.041937 	4936 	0.041581
41.93 	0.038321 	4932 	0.038202
41.95 	0.041574 	4931 	0.041455
41.97 	0.038869 	4914 	0.038749
41.99 	0.039348 	4905 	0.038870
42.01 	0.033590 	4942 	0.033234
42.03 	0.039887 	4939 	0.039294
42.05 	0.036349 	4952 	0.035876
42.07 	0.036864 	4937 	0.036153
42.09 	0.038399 	4948 	0.038163
42.11 	0.042872 	4945 	0.042279
42.13 	0.038827 	4945 	0.038590
42.15 	0.042730 	4938 	0.042493
42.17 	0.034770 	4918 	0.034413
42.19 	0.035249 	4908 	0.035129
42.21 	0.035707 	4901 	0.035587
42.23 	0.037204 	4892 	0.036964
42.25 	0.038863 	4889 	0.038383
42.27 	0.034263 	4874 	0.034023
42.29 	0.037631 	4863 	0.037631
42.31 	0.036457 	4855 	0.035975
42.33 	0.041374 	4834 	0.040889
42.35 	0.035552 	4838 	0.035310
42.37 	0.036646 	4830 	0.036040
42.39 	0.034971 	4804 	0.034483
42.41 	0.041007 	4804 	0.040886
42.43 	0.037563 	4792 	0.037318
42.45 	0.036223 	4776 	0.035855
42.47 	0.037775 	4765 	0.037284
42.49 	0.035257 	4765 	0.035134
42.51 	0.037951 	4743 	0.037951
42.53 	0.039340 	4728 	0.038845
42.55 	0.035684 	4708 	0.035435
42.57 	0.032770 	4730 	0.032522
42.59 	0.036160 	4729 	0.035788
42.61 	0.041844 	4708 	0.041346
42.63 	0.034402 	4709 	0.034402
42.65 	0.035219 	4685 	0.034969
42.67 	0.036934 	4684 	0.036059
42.69 	0.039367 	4674 	0.038865
42.71 	0.039460 	4663 	0.039334
42.73 	0.040086 	4640 	0.039960
42.75 	0.036820 	4617 	0.036440
42.77 	0.038261 	4600 	0.037879
42.79 	0.037102 	4582 	0.036207
42.81 	0.037484 	4562 	0.037484
42.83 	0.040564 	4536 	0.039919
42.85 	0.031581 	4528 	0.031581
42.87 	0.040676 	4499 	0.040546
42.89 	0.038170 	4480 	0.037908
42.91 	0.038824 	4456 	0.038035
42.93 	0.033738 	4446 	0.033211
42.95 	0.040082 	4416 	0.040082
42.97 	0.037037 	4401 	0.036904
42.99 	0.034664 	4385 	0.034263
43.01 	0.035755 	4363 	0.035352
43.03 	0.033926 	4333 	0.033790
43.05 	0.045087 	4325 	0.044545
43.07 	0.036080 	4296 	0.035535
43.09 	0.038524 	4283 	0.038251
43.11 	0.039953 	4255 	0.039815
43.13 	0.035638 	4237 	0.035224
43.15 	0.035663 	4206 	0.035385
43.17 	0.040680 	4179 	0.040119
43.19 	0.036719 	4194 	0.036440
43.21 	0.039549 	4172 	0.039409
43.23 	0.038036 	4154 	0.037472
43.25 	0.039903 	4135 	0.039620
43.27 	0.033618 	4105 	0.033189
43.29 	0.037073 	4100 	0.036645
43.31 	0.039470 	4079 	0.038442
43.33 	0.036781 	4051 	0.036636
43.35 	0.038938 	4032 	0.038357
43.37 	0.041843 	4015 	0.041405
43.39 	0.042729 	4002 	0.042143
43.41 	0.032729 	3972 	0.032287
43.43 	0.037121 	3960 	0.036530
43.45 	0.039644 	3935 	0.039198
43.47 	0.034430 	3921 	0.033957
43.49 	0.035412 	3897 	0.034811
43.51 	0.038432 	3877 	0.038130
43.53 	0.038571 	3863 	0.037965
43.55 	0.033738 	2964 	0.033145
43.57 	0.034853 	2238 	0.034329
43.59 	0.034937 	1746 	0.033930
43.61 	0.036269 	1351 	0.036269
43.63 	0.027972 	1001 	0.027972
43.65 	0.032023 	687 	0.031171
43.67 	0.037849 	502 	0.037849
43.69 	0.032698 	367 	0.032698
43.71 	0.025105 	239 	0.025105
43.73 	0.016667 	120 	0.016667
43.75 	0.125000 	16 	0.125000