File: Example_Data/25SC_s1_0052.000.dat
#F C:\frames\spec\25SC_s1_0052.000
#C title =s:52 frm:0 25SC_s1
#C wavelength =0.15406

#S 1  fr_average C:\frames\spec\25SC_s1_0052.000 C:\win32app\speccom\mask.axs chi 0 180 0 360 0.02
#C 2 theta =0.000000 to 180 deg
#C   q   =0.000000 to 81.568 nm^-1
#C  chi  =0.000000 to 360 deg
#C collumns:
#C  1 position (2theta or chi in degrees)
#C  2 average intensity (sum of all counts in the region divided with number of pixels)
#C  3 Number of pixels in region)
#C  4 error (sum of sqrt(intensity) for all pixels divided by number)
#N 4
#L TTh  Int  N_pix  Err
32.99 	0.081967 	61 	0.081967
33.01 	0.079038 	873 	0.077025
33.03 	0.066858 	1391 	0.066437
33.05 	0.067160 	1757 	0.065826
33.07 	0.063415 	2050 	0.063129
33.09 	0.066468 	2347 	0.065969
33.11 	0.066693 	2579 	0.065519
33.13 	0.071966 	2793 	0.069868
33.15 	0.064021 	2999 	0.063045
33.17 	0.063730 	3201 	0.062815
33.19 	0.072711 	3342 	0.071835
33.21 	0.066938 	3436 	0.066256
33.23 	0.064718 	3523 	0.063554
33.25 	0.066168 	3612 	0.065195
33.27 	0.070523 	3630 	0.069394
33.29 	0.062500 	3648 	0.061537
33.31 	0.062295 	3660 	0.061335
33.33 	0.063212 	3686 	0.062259
33.35 	0.067407 	3694 	0.066614
33.37 	0.065159 	3714 	0.063897
33.39 	0.069724 	3729 	0.068624
33.41 	0.064973 	3740 	0.063407
33.43 	0.066206 	3761 	0.064025
33.45 	0.067851 	3773 	0.067229
33.47 	0.066877 	3798 	0.064410
33.49 	0.060383 	3809 	0.059768
33.51 	0.061861 	3815 	0.060761
33.53 	0.064306 	3841 	0.063086
33.55 	0.073901 	3843 	0.072071
33.57 	0.068094 	3877 	0.066432
33.59 	0.067268 	3880 	0.066362
33.61 	0.067025 	3909 	0.065227
33.63 	0.066599 	3919 	0.065552
33.65 	0.064869 	3931 	0.063503
33.67 	0.061204 	3954 	0.059722
33.69 	0.060207 	3953 	0.058874
33.71 	0.070440 	3975 	0.069114
33.73 	0.059690 	4004 	0.058813
33.75 	0.061265 	3999 	0.060240
33.77 	0.061615 	4025 	0.060596
33.79 	0.068052 	4041 	0.066748
33.81 	0.064636 	4038 	0.063620
33.83 	0.066667 	4050 	0.065943
33.85 	0.062210 	4099 	0.060638
33.87 	0.072732 	4111 	0.071734
33.89 	0.067945 	4121 	0.066239
33.91 	0.056158 	4149 	0.055029
33.93 	0.063117 	4151 	0.061847
33.95 	0.067926 	4181 	0.066105
33.97 	0.066587 	4190 	0.065329
33.99 	0.060000 	4200 	0.059442
34.01 	0.063613 	4213 	0.062361
34.03 	0.068332 	4244 	0.067090
34.05 	0.069614 	4252 	0.067525
34.07 	0.069353 	4268 	0.068233
34.09 	0.060196 	4286 	0.059376
34.11 	0.057880 	4302 	0.056360
34.13 	0.062210 	4308 	0.061394
34.15 	0.062803 	4331 	0.061992
34.17 	0.072414 	4350 	0.070933
34.19 	0.066483 	4362 	0.065678
34.21 	0.070007 	4371 	0.068243
34.23 	0.058730 	4393 	0.057663
34.25 	0.056540 	4404 	0.055475
34.27 	0.072365 	4422 	0.070853
34.29 	0.064938 	4435 	0.064013
34.31 	0.057649 	4458 	0.056467
34.33 	0.060389 	4471 	0.059603
34.35 	0.070250 	4484 	0.068922
34.37 	0.058116 	4491 	0.057203
34.39 	0.060195 	4502 	0.059024
34.41 	0.060097 	4526 	0.059062
34.43 	0.059044 	4539 	0.058140
34.45 	0.069901 	4535 	0.068717
34.47 	0.066202 	4592 	0.064799
34.49 	0.065695 	4597 	0.064655
34.51 	0.063830 	4606 	0.062304
34.53 	0.062029 	4643 	0.060767
34.55 	0.062029 	4643 	0.060368
34.57 	0.064592 	4660 	0.063063
34.59 	0.057754 	4675 	0.057128
34.61 	0.071109 	4697 	0.070111
34.63 	0.054989 	4710 	0.054119
34.65 	0.059733 	4721 	0.058368
34.67 	0.061801 	4741 	0.060298
34.69 	0.062474 	4754 	0.061488
34.71 	0.069031 	4766 	0.067433
34.73 	0.064132 	4787 	0.062908
34.75 	0.063852 	4808 	0.062390
34.77 	0.064134 	4818 	0.062554
34.79 	0.063847 	4824 	0.063119
34.81 	0.061713 	4845 	0.061109
34.83 	0.060675 	4862 	0.059952
34.85 	0.066954 	4869 	0.065972
34.87 	0.062654 	4868 	0.061090
34.89 	0.062679 	4882 	0.061359
34.91 	0.065137 	4882 	0.064057
34.93 	0.058379 	4899 	0.057542
34.95 	0.064622 	4890 	0.064262
34.97 	0.060792 	4902 	0.059358
34.99 	0.066367 	4897 	0.065530
35.01 	0.065001 	4923 	0.063811
35.03 	0.063120 	4943 	0.062053
35.05 	0.063271 	4947 	0.061850
35.07 	0.060121 	4940 	0.058461
35.09 	0.068645 	4953 	0.067699
35.11 	0.062462 	4947 	0.061614
35.13 	0.062324 	4958 	0.061615
35.15 	0.064006 	4937 	0.062345
35.17 	0.064092 	4946 	0.062533
35.19 	0.056455 	4942 	0.055744
35.21 	0.058443 	4945 	0.057021
35.23 	0.071587 	4945 	0.069692
35.25 	0.060085 	4943 	0.059354
35.27 	0.060631 	4948 	0.059920
35.29 	0.055612 	4945 	0.054901
35.31 	0.059193 	4933 	0.058461
35.33 	0.061097 	4943 	0.060267
35.35 	0.060097 	4942 	0.058793
35.37 	0.066005 	4939 	0.064108
35.39 	0.058038 	4945 	0.057209
35.41 	0.063134 	4926 	0.062302
35.43 	0.058788 	4933 	0.058194
35.45 	0.057525 	4937 	0.056457
35.47 	0.064896 	4931 	0.062876
35.49 	0.066599 	4910 	0.065028
35.51 	0.062119 	4926 	0.060930
35.53 	0.062841 	4949 	0.061894
35.55 	0.061274 	4945 	0.060682
35.57 	0.061220 	4933 	0.060745
35.59 	0.066734 	4945 	0.065549
35.61 	0.064549 	4942 	0.062889
35.63 	0.056241 	4943 	0.055412
35.65 	0.058645 	4945 	0.057460
35.67 	0.059895 	4942 	0.059302
35.69 	0.064294 	4946 	0.063347
35.71 	0.061981 	4937 	0.061032
35.73 	0.055308 	4936 	0.054715
35.75 	0.068952 	4931 	0.067526
35.77 	0.071299 	4951 	0.069761
35.79 	0.058597 	4932 	0.057409
35.81 	0.058180 	4933 	0.056873
35.83 	0.062879 	4946 	0.061932
35.85 	0.059980 	4935 	0.059030
35.87 	0.064189 	4923 	0.063098
35.89 	0.062019 	4934 	0.061188
35.91 	0.058250 	4927 	0.057180
35.93 	0.059671 	4927 	0.058007
35.95 	0.063657 	4917 	0.062584
35.97 	0.068811 	4912 	0.067619
35.99 	0.059729 	4939 	0.058780
36.01 	0.061055 	4930 	0.059491
36.03 	0.067975 	4943 	0.067264
36.05 	0.063903 	4945 	0.062955
36.07 	0.065600 	4939 	0.064414
36.09 	0.059109 	4940 	0.058279
36.11 	0.062690 	4929 	0.061621
36.13 	0.062728 	4942 	0.061187
36.15 	0.065803 	4939 	0.064261
36.17 	0.063756 	4925 	0.062686
36.19 	0.064372 	4940 	0.062831
36.21 	0.068371 	4929 	0.067777
36.23 	0.059169 	4935 	0.058338
36.25 	0.064764 	4941 	0.063697
36.27 	0.060914 	4925 	0.059943
36.29 	0.064693 	4931 	0.063624
36.31 	0.062703 	4928 	0.061395
36.33 	0.056963 	4933 	0.056132
36.35 	0.061879 	4929 	0.060809
36.37 	0.060126 	4923 	0.058698
36.39 	0.064215 	4921 	0.062905
36.41 	0.073121 	4896 	0.072024
36.43 	0.063718 	4928 	0.062767
36.45 	0.066329 	4930 	0.065259
36.47 	0.064830 	4936 	0.063999
36.49 	0.065965 	4942 	0.064543
36.51 	0.069734 	4933 	0.068309
36.53 	0.065345 	4943 	0.063903
36.55 	0.069616 	4927 	0.068309
36.57 	0.073571 	4934 	0.072384
36.59 	0.060134 	4939 	0.059185
36.61 	0.061854 	4931 	0.061022
36.63 	0.064287 	4931 	0.063099
36.65 	0.067315 	4932 	0.066465
36.67 	0.062272 	4930 	0.061678
36.69 	0.061067 	4929 	0.060453
36.71 	0.063402 	4921 	0.062449
36.73 	0.066802 	4925 	0.065375
36.75 	0.064725 	4944 	0.063639
36.77 	0.066070 	4919 	0.064165
36.79 	0.066653 	4921 	0.064987
36.81 	0.060008 	4916 	0.058439
36.83 	0.063886 	4915 	0.062675
36.85 	0.062474 	4898 	0.061279
36.87 	0.063714 	4944 	0.062884
36.89 	0.059601 	4916 	0.058271
36.91 	0.071443 	4941 	0.070495
36.93 	0.066531 	4930 	0.064630
36.95 	0.062031 	4933 	0.060587
36.97 	0.062221 	4934 	0.061034
36.99 	0.066059 	4935 	0.063685
37.01 	0.061829 	4933 	0.060879
37.03 	0.071893 	4924 	0.070346
37.05 	0.059671 	4927 	0.058482
37.07 	0.063830 	4935 	0.062623
37.09 	0.059659 	4928 	0.058926
37.11 	0.068288 	4935 	0.067219
37.13 	0.068846 	4924 	0.067538
37.15 	0.055408 	4909 	0.053976
37.17 	0.065667 	4934 	0.065311
37.19 	0.073909 	4925 	0.072838
37.21 	0.067724 	4917 	0.066136
37.23 	0.063034 	4918 	0.061704
37.25 	0.062513 	4911 	0.061042
37.27 	0.065386 	4894 	0.063930
37.29 	0.065720 	4930 	0.064175
37.31 	0.057751 	4935 	0.057276
37.33 	0.061701 	4927 	0.060869
37.35 	0.062778 	4938 	0.061592
37.37 	0.061092 	4927 	0.059903
37.39 	0.064287 	4931 	0.062862
37.41 	0.057189 	4931 	0.055288
37.43 	0.058597 	4932 	0.057746
37.45 	0.061942 	4924 	0.060395
37.47 	0.062284 	4929 	0.060739
37.49 	0.068048 	4923 	0.066244
37.51 	0.064667 	4933 	0.062767
37.53 	0.062411 	4919 	0.061697
37.55 	0.059432 	4930 	0.058125
37.57 	0.060508 	4925 	0.058961
37.59 	0.061851 	4915 	0.060660
37.61 	0.056481 	4922 	0.055529
37.63 	0.055702 	4919 	0.054988
37.65 	0.062017 	4918 	0.061064
37.67 	0.060563 	4904 	0.060085
37.69 	0.057370 	4898 	0.056414
37.71 	0.063502 	4929 	0.061957
37.73 	0.062284 	4929 	0.061928
37.75 	0.058502 	4940 	0.057079
37.77 	0.052642 	4920 	0.051571
37.79 	0.058621 	4930 	0.057789
37.81 	0.062437 	4933 	0.061249
37.83 	0.056098 	4920 	0.055621
37.85 	0.059935 	4922 	0.058983
37.87 	0.067827 	4939 	0.066879
37.89 	0.058274 	4925 	0.056847
37.91 	0.063692 	4930 	0.062147
37.93 	0.063021 	4919 	0.061354
37.95 	0.058728 	4921 	0.057657
37.97 	0.060053 	4929 	0.058488
37.99 	0.057410 	4912 	0.056218
38.01 	0.064732 	4928 	0.063762
38.03 	0.063353 	4909 	0.062160
38.05 	0.061117 	4925 	0.060165
38.07 	0.059483 	4909 	0.058886
38.09 	0.058836 	4878 	0.058235
38.11 	0.068490 	4935 	0.067303
38.13 	0.069273 	4937 	0.068086
38.15 	0.068727 	4918 	0.067536
38.17 	0.064300 	4930 	0.063587
38.19 	0.071805 	4930 	0.070617
38.21 	0.073532 	4923 	0.071034
38.23 	0.063589 	4938 	0.062877
38.25 	0.067724 	4917 	0.066056
38.27 	0.070588 	4930 	0.069638
38.29 	0.077782 	4924 	0.075522
38.31 	0.081794 	4927 	0.080249
38.33 	0.081438 	4924 	0.079891
38.35 	0.090097 	4928 	0.087482
38.37 	0.077579 	4924 	0.076152
38.39 	0.085557 	4909 	0.083032
38.41 	0.086533 	4923 	0.084867
38.43 	0.092352 	4916 	0.090525
38.45 	0.081334 	4918 	0.079666
38.47 	0.079071 	4907 	0.077380
38.49 	0.086939 	4877 	0.083936
38.51 	0.081914 	4932 	0.080350
38.53 	0.081152 	4929 	0.078637
38.55 	0.085089 	4936 	0.082459
38.57 	0.081658 	4923 	0.080329
38.59 	0.076158 	4924 	0.074730
38.61 	0.083266 	4936 	0.081347
38.63 	0.083063 	4924 	0.082230
38.65 	0.080317 	4918 	0.077558
38.67 	0.070893 	4937 	0.069588
38.69 	0.072125 	4922 	0.071530
38.71 	0.066409 	4924 	0.064804
38.73 	0.067100 	4918 	0.065671
38.75 	0.060077 	4927 	0.059106
38.77 	0.063173 	4923 	0.062340
38.79 	0.064653 	4934 	0.063822
38.81 	0.062907 	4912 	0.062192
38.83 	0.052856 	4919 	0.052023
38.85 	0.053542 	4912 	0.053065
38.87 	0.058237 	4911 	0.057163
38.89 	0.053094 	4897 	0.052376
38.91 	0.056088 	4903 	0.054893
38.93 	0.052045 	4938 	0.050978
38.95 	0.054697 	4918 	0.053625
38.97 	0.054553 	4931 	0.053721
38.99 	0.050233 	4937 	0.049521
39.01 	0.057137 	4918 	0.056403
39.03 	0.055938 	4934 	0.055345
39.05 	0.043046 	4925 	0.042689
39.07 	0.051381 	4924 	0.050429
39.09 	0.052204 	4923 	0.051609
39.11 	0.051714 	4931 	0.051001
39.13 	0.046923 	4923 	0.046804
39.15 	0.049847 	4915 	0.049013
39.17 	0.049423 	4937 	0.049067
39.19 	0.049420 	4917 	0.048706
39.21 	0.049695 	4910 	0.049098
39.23 	0.052386 	4925 	0.051434
39.25 	0.046729 	4922 	0.046134
39.27 	0.043992 	4910 	0.043037
39.29 	0.048562 	4901 	0.047844
39.31 	0.047502 	4884 	0.047262
39.33 	0.043805 	4931 	0.043567
39.35 	0.046403 	4935 	0.045691
39.37 	0.049097 	4929 	0.048741
39.39 	0.051329 	4929 	0.050259
39.41 	0.050700 	4931 	0.050343
39.43 	0.054125 	4933 	0.053532
39.45 	0.047716 	4925 	0.047240
39.47 	0.047329 	4923 	0.046377
39.49 	0.050679 	4933 	0.049967
39.51 	0.054427 	4924 	0.053714
39.53 	0.046110 	4923 	0.045753
39.55 	0.043098 	4919 	0.042384
39.57 	0.047030 	4933 	0.046436
39.59 	0.049674 	4912 	0.048959
39.61 	0.051188 	4923 	0.050355
39.63 	0.050183 	4922 	0.048993
39.65 	0.047503 	4926 	0.047265
39.67 	0.045593 	4913 	0.044997
39.69 	0.045566 	4916 	0.045208
39.71 	0.051073 	4895 	0.050335
39.73 	0.050733 	4908 	0.049659
39.75 	0.046063 	4928 	0.045469
39.77 	0.052482 	4935 	0.051533
39.79 	0.049127 	4926 	0.047661
39.81 	0.049726 	4927 	0.048894
39.83 	0.048439 	4934 	0.048064
39.85 	0.053582 	4927 	0.052631
39.87 	0.047513 	4925 	0.046799
39.89 	0.052493 	4934 	0.051899
39.91 	0.049777 	4922 	0.049538
39.93 	0.049220 	4937 	0.048390
39.95 	0.047609 	4915 	0.047133
39.97 	0.046266 	4928 	0.045910
39.99 	0.050892 	4932 	0.050417
40.01 	0.047174 	4918 	0.046340
40.03 	0.048295 	4928 	0.047820
40.05 	0.046573 	4917 	0.045501
40.07 	0.048548 	4923 	0.047933
40.09 	0.045159 	4916 	0.044563
40.11 	0.048007 	4916 	0.047649
40.13 	0.052083 	4896 	0.051605
40.15 	0.049257 	4913 	0.048780
40.17 	0.045049 	4928 	0.044454
40.19 	0.039359 	4929 	0.039359
40.21 	0.041135 	4935 	0.041016
40.23 	0.042579 	4932 	0.041629
40.25 	0.041870 	4920 	0.041632
40.27 	0.043346 	4937 	0.042872
40.29 	0.048914 	4927 	0.048795
40.31 	0.044746 	4939 	0.044271
40.33 	0.046634 	4932 	0.046159
40.35 	0.052246 	4919 	0.051651
40.37 	0.045648 	4929 	0.045173
40.39 	0.048874 	4931 	0.048280
40.41 	0.046701 	4925 	0.046106
40.43 	0.048761 	4922 	0.048404
40.45 	0.044395 	4933 	0.043801
40.47 	0.049410 	4918 	0.048815
40.49 	0.042225 	4926 	0.042106
40.51 	0.048964 	4922 	0.048488
40.53 	0.043531 	4916 	0.042816
40.55 	0.045232 	4908 	0.043919
40.57 	0.047035 	4890 	0.046436
40.59 	0.040510 	4937 	0.040016
40.61 	0.045593 	4935 	0.044881
40.63 	0.049290 	4930 	0.048458
40.65 	0.043346 	4937 	0.042753
40.67 	0.047242 	4932 	0.046510
40.69 	0.046790 	4937 	0.045959
40.71 	0.047445 	4932 	0.046376
40.73 	0.045473 	4926 	0.045235
40.75 	0.049280 	4931 	0.048211
40.77 	0.043734 	4939 	0.043378
40.79 	0.050772 	4924 	0.049701
40.81 	0.044930 	4941 	0.044219
40.83 	0.050122 	4928 	0.049052
40.85 	0.046710 	4924 	0.045877
40.87 	0.044440 	4928 	0.043964
40.89 	0.041168 	4931 	0.040931
40.91 	0.042454 	4923 	0.041859
40.93 	0.048439 	4934 	0.047846
40.95 	0.049054 	4913 	0.048577
40.97 	0.045695 	4924 	0.044624
40.99 	0.043461 	4924 	0.043104
41.01 	0.043770 	4912 	0.043174
41.03 	0.045464 	4905 	0.044489
41.05 	0.050243 	4936 	0.049156
41.07 	0.048682 	4930 	0.048325
41.09 	0.047580 	4939 	0.046138
41.11 	0.051266 	4935 	0.050910
41.13 	0.047204 	4936 	0.046492
41.15 	0.048776 	4941 	0.048064
41.17 	0.040332 	4934 	0.040095
41.19 	0.045030 	4930 	0.044555
41.21 	0.048613 	4937 	0.048494
41.23 	0.045961 	4939 	0.045486
41.25 	0.046827 	4933 	0.045640
41.27 	0.048266 	4931 	0.047534
41.29 	0.045860 	4928 	0.044751
41.31 	0.042773 	4933 	0.042130
41.33 	0.043751 	4937 	0.043514
41.35 	0.044147 	4938 	0.043792
41.37 	0.045898 	4924 	0.045303
41.39 	0.041760 	4933 	0.040928
41.41 	0.041819 	4926 	0.041224
41.43 	0.045040 	4929 	0.043970
41.45 	0.048840 	4914 	0.048363
41.47 	0.039789 	4926 	0.039670
41.49 	0.043745 	4892 	0.043146
41.51 	0.043927 	4940 	0.043334
41.53 	0.047532 	4944 	0.046348
41.55 	0.042351 	4935 	0.042351
41.57 	0.045740 	4941 	0.045266
41.59 	0.048855 	4933 	0.048261
41.61 	0.044216 	4953 	0.043743
41.63 	0.039692 	4938 	0.039692
41.65 	0.044228 	4929 	0.043396
41.67 	0.038664 	4940 	0.038427
41.69 	0.043259 	4947 	0.043022
41.71 	0.045805 	4934 	0.045092
41.73 	0.042545 	4936 	0.042189
41.75 	0.048691 	4929 	0.047978
41.77 	0.039466 	4941 	0.039110
41.79 	0.042678 	4944 	0.042678
41.81 	0.045989 	4936 	0.045277
41.83 	0.041396 	4928 	0.040921
41.85 	0.039482 	4939 	0.039363
41.87 	0.039514 	4935 	0.038920
41.89 	0.039935 	4933 	0.039223
41.91 	0.043355 	4936 	0.042643
41.93 	0.040146 	4932 	0.039671
41.95 	0.045630 	4931 	0.044897
41.97 	0.041311 	4914 	0.040834
41.99 	0.045056 	4905 	0.044578
42.01 	0.044516 	4942 	0.044516
42.03 	0.047985 	4939 	0.047392
42.05 	0.043821 	4952 	0.043229
42.07 	0.046182 	4937 	0.045826
42.09 	0.040218 	4948 	0.039626
42.11 	0.046512 	4945 	0.045919
42.13 	0.043478 	4945 	0.042886
42.15 	0.043337 	4938 	0.042981
42.17 	0.045344 	4918 	0.044748
42.19 	0.042584 	4908 	0.041987
42.21 	0.043256 	4901 	0.042898
42.23 	0.040474 	4892 	0.039856
42.25 	0.040295 	4889 	0.039815
42.27 	0.039598 	4874 	0.038757
42.29 	0.039071 	4863 	0.038227
42.31 	0.044078 	4855 	0.043475
42.33 	0.042201 	4834 	0.041232
42.35 	0.041133 	4838 	0.040648
42.37 	0.037474 	4830 	0.036868
42.39 	0.041424 	4804 	0.041038
42.41 	0.041007 	4804 	0.040276
42.43 	0.044449 	4792 	0.043960
42.45 	0.034966 	4776 	0.034476
42.47 	0.044701 	4765 	0.043349
42.49 	0.041133 	4765 	0.040396
42.51 	0.038162 	4743 	0.037914
42.53 	0.037648 	4728 	0.037152
42.55 	0.036321 	4708 	0.035575
42.57 	0.041649 	4730 	0.041030
42.59 	0.045676 	4729 	0.045180
42.61 	0.038870 	4708 	0.038497
42.63 	0.037800 	4709 	0.037302
42.65 	0.041622 	4685 	0.041122
42.67 	0.040350 	4684 	0.039579
42.69 	0.041720 	4674 	0.041344
42.71 	0.042676 	4663 	0.041797
42.73 	0.041379 	4640 	0.040874
42.75 	0.039636 	4617 	0.039382
42.77 	0.042391 	4600 	0.042009
42.79 	0.044522 	4582 	0.043627
42.81 	0.041429 	4562 	0.041172
42.83 	0.038801 	4536 	0.038542
42.85 	0.035336 	4528 	0.034948
42.87 	0.041120 	4499 	0.040599
42.89 	0.039286 	4480 	0.039024
42.91 	0.039946 	4456 	0.039815
42.93 	0.046334 	4446 	0.045411
42.95 	0.038949 	4416 	0.038551
42.97 	0.039991 	4401 	0.039437
42.99 	0.040593 	4385 	0.040192
43.01 	0.040798 	4363 	0.040395
43.03 	0.042234 	4333 	0.041828
43.05 	0.039538 	4325 	0.038996
43.07 	0.035847 	4296 	0.035575
43.09 	0.034789 	4283 	0.034652
43.11 	0.043713 	4255 	0.043025
43.13 	0.043427 	4237 	0.042874
43.15 	0.041132 	4206 	0.040853
43.17 	0.037569 	4179 	0.037008
43.19 	0.038388 	4194 	0.037969
43.21 	0.037392 	4172 	0.036971
43.23 	0.041647 	4154 	0.040801
43.25 	0.044740 	4135 	0.044598
43.27 	0.038490 	4105 	0.038204
43.29 	0.039268 	4100 	0.039125
43.31 	0.038245 	4079 	0.037527
43.33 	0.038509 	4051 	0.038220
43.35 	0.043155 	4032 	0.042695
43.37 	0.040847 	4015 	0.040409
43.39 	0.045227 	4002 	0.044788
43.41 	0.041037 	3972 	0.040447
43.43 	0.043687 	3960 	0.043391
43.45 	0.044727 	3935 	0.044429
43.47 	0.038256 	3921 	0.037658
43.49 	0.044137 	3897 	0.043986
43.51 	0.039721 	3877 	0.038941
43.53 	0.038571 	3863 	0.038419
43.55 	0.042848 	2964 	0.042452
43.57 	0.035746 	2238 	0.035484
43.59 	0.039519 	1746 	0.039183
43.61 	0.034049 	1351 	0.034049
43.63 	0.041958 	1001 	0.041373
43.65 	0.045124 	687 	0.042566
43.67 	0.051793 	502 	0.051793
43.69 	0.027248 	367 	0.027248
43.71 	0.020921 	239 	0.020921
43.73 	0.033333 	120 	0.033333
43.75 	0.000000 	16 	0.000000