File: Example_Data/25SC_s1_0021.003.dat
#F C:\frames\spec\25SC_s1_0021.003
#C title =s:21 frm:3 25SC_s1
#C wavelength =0.15406

#S 1  fr_average C:\frames\spec\25SC_s1_0021.003 C:\win32app\speccom\mask.axs chi 0 180 0 360 0.02
#C 2 theta =0.000000 to 180 deg
#C   q   =0.000000 to 81.568 nm^-1
#C  chi  =0.000000 to 360 deg
#C collumns:
#C  1 position (2theta or chi in degrees)
#C  2 average intensity (sum of all counts in the region divided with number of pixels)
#C  3 Number of pixels in region)
#C  4 error (sum of sqrt(intensity) for all pixels divided by number)
#N 4
#L TTh  Int  N_pix  Err
32.99 	0.098361 	61 	0.098361
33.01 	0.087056 	873 	0.085714
33.03 	0.048167 	1391 	0.047746
33.05 	0.062607 	1757 	0.061607
33.07 	0.063415 	2050 	0.061986
33.09 	0.055816 	2347 	0.055566
33.11 	0.062815 	2579 	0.060998
33.13 	0.058002 	2793 	0.057373
33.15 	0.057019 	2999 	0.056238
33.17 	0.061543 	3201 	0.061177
33.19 	0.060443 	3342 	0.059216
33.21 	0.066356 	3436 	0.065333
33.23 	0.059324 	3523 	0.057828
33.25 	0.056478 	3612 	0.055668
33.27 	0.056749 	3630 	0.055714
33.29 	0.058936 	3648 	0.057170
33.31 	0.063661 	3660 	0.062701
33.33 	0.065111 	3686 	0.063973
33.35 	0.060368 	3694 	0.059258
33.37 	0.065967 	3714 	0.064232
33.39 	0.063288 	3729 	0.062659
33.41 	0.061765 	3740 	0.061295
33.43 	0.067003 	3761 	0.066225
33.45 	0.054864 	3773 	0.053932
33.47 	0.061348 	3798 	0.059806
33.49 	0.068522 	3809 	0.067292
33.51 	0.059502 	3815 	0.058427
33.53 	0.063265 	3841 	0.061740
33.55 	0.054905 	3843 	0.054448
33.57 	0.058292 	3877 	0.057084
33.59 	0.064691 	3880 	0.063483
33.61 	0.065234 	3909 	0.063736
33.63 	0.064812 	3919 	0.063467
33.65 	0.056983 	3931 	0.055940
33.67 	0.061710 	3954 	0.060673
33.69 	0.053630 	3953 	0.053186
33.71 	0.067170 	3975 	0.065401
33.73 	0.065435 	4004 	0.064118
33.75 	0.061765 	3999 	0.060154
33.77 	0.064845 	4025 	0.063971
33.79 	0.060134 	4041 	0.058660
33.81 	0.060178 	4038 	0.059163
33.83 	0.056543 	4050 	0.055820
33.85 	0.062698 	4099 	0.061817
33.87 	0.062272 	4111 	0.060990
33.89 	0.057996 	4121 	0.057143
33.91 	0.057363 	4149 	0.056798
33.93 	0.061190 	4151 	0.060343
33.95 	0.061947 	4181 	0.060686
33.97 	0.060382 	4190 	0.059124
33.99 	0.069524 	4200 	0.068129
34.01 	0.053406 	4213 	0.052572
34.03 	0.065269 	4244 	0.064302
34.05 	0.062324 	4252 	0.060946
34.07 	0.053655 	4268 	0.052557
34.09 	0.055996 	4286 	0.055450
34.11 	0.055788 	4302 	0.054971
34.13 	0.059192 	4308 	0.057017
34.15 	0.064188 	4331 	0.063106
34.17 	0.062069 	4350 	0.061126
34.19 	0.058918 	4362 	0.058649
34.21 	0.060169 	4371 	0.059097
34.23 	0.061006 	4393 	0.059939
34.25 	0.056540 	4404 	0.055608
34.27 	0.058118 	4422 	0.056926
34.29 	0.055017 	4435 	0.054357
34.31 	0.058098 	4458 	0.057047
34.33 	0.062626 	4471 	0.061185
34.35 	0.057092 	4484 	0.055764
34.37 	0.057226 	4491 	0.056313
34.39 	0.061528 	4502 	0.059186
34.41 	0.059213 	4526 	0.058307
34.43 	0.061027 	4539 	0.060381
34.45 	0.056009 	4535 	0.055105
34.47 	0.057056 	4592 	0.056163
34.49 	0.061779 	4597 	0.061142
34.51 	0.056665 	4606 	0.055902
34.53 	0.055568 	4643 	0.054306
34.55 	0.062460 	4643 	0.061703
34.57 	0.058155 	4660 	0.057275
34.59 	0.057754 	4675 	0.056752
34.61 	0.055567 	4697 	0.054445
34.63 	0.058811 	4710 	0.058065
34.65 	0.064605 	4721 	0.062868
34.67 	0.062645 	4741 	0.061904
34.69 	0.055322 	4754 	0.054459
34.71 	0.056651 	4766 	0.055791
34.73 	0.055149 	4787 	0.054538
34.75 	0.060524 	4808 	0.060159
34.77 	0.069116 	4818 	0.067778
34.79 	0.056592 	4824 	0.055621
34.81 	0.067905 	4845 	0.066575
34.83 	0.056767 	4862 	0.055803
34.85 	0.057712 	4869 	0.056730
34.87 	0.064297 	4868 	0.062974
34.89 	0.058992 	4882 	0.057792
34.91 	0.057558 	4882 	0.056838
34.93 	0.060012 	4899 	0.058936
34.95 	0.056646 	4890 	0.056028
34.97 	0.057528 	4902 	0.056074
34.99 	0.066367 	4897 	0.065530
35.01 	0.056267 	4923 	0.055077
35.03 	0.061097 	4943 	0.059437
35.05 	0.056196 	4947 	0.055604
35.07 	0.062551 	4940 	0.061721
35.09 	0.065819 	4953 	0.064873
35.11 	0.057004 	4947 	0.055939
35.13 	0.058290 	4958 	0.057817
35.15 	0.059753 	4937 	0.058665
35.17 	0.061464 	4946 	0.060398
35.19 	0.056657 	4942 	0.055946
35.21 	0.057027 	4945 	0.055942
35.23 	0.065723 	4945 	0.064400
35.25 	0.056848 	4943 	0.055544
35.27 	0.061035 	4948 	0.059141
35.29 	0.052781 	4945 	0.051833
35.31 	0.054733 	4933 	0.054021
35.33 	0.061501 	4943 	0.060672
35.35 	0.061109 	4942 	0.059805
35.37 	0.057502 	4939 	0.056671
35.39 	0.058847 	4945 	0.058373
35.41 	0.062119 	4926 	0.061049
35.43 	0.059599 	4933 	0.058649
35.45 	0.062184 	4937 	0.061116
35.47 	0.054756 	4931 	0.054162
35.49 	0.061303 	4910 	0.060707
35.51 	0.058465 	4926 	0.056523
35.53 	0.060214 	4949 	0.059622
35.55 	0.059050 	4945 	0.058339
35.57 	0.057166 	4933 	0.056454
35.59 	0.054601 	4945 	0.054364
35.61 	0.059085 	4942 	0.057900
35.63 	0.057253 	4943 	0.056305
35.65 	0.062892 	4945 	0.061470
35.67 	0.060299 	4942 	0.059470
35.69 	0.060655 	4946 	0.058760
35.71 	0.056107 	4937 	0.055039
35.73 	0.064222 	4936 	0.062778
35.75 	0.059623 	4931 	0.058316
35.77 	0.055746 	4951 	0.055273
35.79 	0.058191 	4932 	0.057716
35.81 	0.054531 	4933 	0.053581
35.83 	0.055196 	4946 	0.054249
35.85 	0.057953 	4935 	0.057122
35.87 	0.061345 	4923 	0.060373
35.89 	0.055736 	4934 	0.054905
35.91 	0.053785 	4927 	0.052834
35.93 	0.053379 	4927 	0.052666
35.95 	0.052268 	4917 	0.052029
35.97 	0.064332 	4912 	0.062901
35.99 	0.058109 	4939 	0.057022
36.01 	0.060649 	4930 	0.059580
36.03 	0.054623 	4943 	0.053912
36.05 	0.062285 	4945 	0.061219
36.07 	0.058514 	4939 	0.057684
36.09 	0.056478 	4940 	0.055648
36.11 	0.060053 	4929 	0.059201
36.13 	0.061716 	4942 	0.060511
36.15 	0.053857 	4939 	0.053620
36.17 	0.061726 	4925 	0.060774
36.19 	0.062753 	4940 	0.062042
36.21 	0.066342 	4929 	0.064916
36.23 	0.063830 	4935 	0.062604
36.25 	0.062740 	4941 	0.062029
36.27 	0.060102 	4925 	0.059031
36.29 	0.058203 	4931 	0.056896
36.31 	0.055601 	4928 	0.054769
36.33 	0.052504 	4933 	0.051435
36.35 	0.061067 	4929 	0.060354
36.37 	0.054032 	4923 	0.053556
36.39 	0.059541 	4921 	0.058588
36.41 	0.059232 	4896 	0.058634
36.43 	0.062703 	4928 	0.061752
36.45 	0.055781 	4930 	0.054712
36.47 	0.058752 	4936 	0.057635
36.49 	0.057669 	4942 	0.055891
36.51 	0.053720 	4933 	0.053126
36.53 	0.055837 	4943 	0.054987
36.55 	0.050944 	4927 	0.050112
36.57 	0.056141 	4934 	0.054222
36.59 	0.057704 	4939 	0.056261
36.61 	0.048266 	4931 	0.048147
36.63 	0.053336 	4931 	0.051891
36.65 	0.058597 	4932 	0.057766
36.67 	0.055375 	4930 	0.054187
36.69 	0.052546 	4929 	0.051833
36.71 	0.059338 	4921 	0.058028
36.73 	0.051980 	4925 	0.051147
36.75 	0.057443 	4944 	0.056358
36.77 	0.054686 	4919 	0.054090
36.79 	0.054460 	4921 	0.054222
36.81 	0.056550 	4916 	0.055339
36.83 	0.053917 	4915 	0.053082
36.85 	0.055329 	4898 	0.054013
36.87 	0.055623 	4944 	0.054794
36.89 	0.053499 	4916 	0.052903
36.91 	0.057276 	4941 	0.056802
36.93 	0.055984 	4930 	0.055271
36.95 	0.057166 	4933 	0.055979
36.97 	0.055533 	4934 	0.054702
36.99 	0.053698 	4935 	0.052392
37.01 	0.050679 	4933 	0.050085
37.03 	0.053818 	4924 	0.053104
37.05 	0.051350 	4927 	0.050636
37.07 	0.056130 	4935 	0.054824
37.09 	0.051745 	4928 	0.051151
37.11 	0.054509 	4935 	0.054271
37.13 	0.054224 	4924 	0.053391
37.15 	0.056834 	4909 	0.055760
37.17 	0.054317 	4934 	0.053723
37.19 	0.050761 	4925 	0.049691
37.21 	0.058166 	4917 	0.057212
37.23 	0.056934 	4918 	0.055862
37.25 	0.057829 	4911 	0.056517
37.27 	0.053739 	4894 	0.052901
37.29 	0.051521 	4930 	0.050571
37.31 	0.054914 	4935 	0.053846
37.33 	0.050132 	4927 	0.049775
37.35 	0.053868 	4938 	0.053393
37.37 	0.053582 	4927 	0.052869
37.39 	0.052728 	4931 	0.052371
37.41 	0.053133 	4931 	0.052420
37.43 	0.050487 	4932 	0.049418
37.45 	0.053209 	4924 	0.052614
37.47 	0.053966 	4929 	0.053016
37.49 	0.056267 	4923 	0.055315
37.51 	0.053112 	4933 	0.052162
37.53 	0.050417 	4919 	0.049702
37.55 	0.056389 	4930 	0.055320
37.57 	0.050964 	4925 	0.050370
37.59 	0.055951 	4915 	0.054482
37.61 	0.056887 	4922 	0.056292
37.63 	0.052856 	4919 	0.051904
37.65 	0.056120 	4918 	0.055167
37.67 	0.045269 	4904 	0.044911
37.69 	0.053287 	4898 	0.052450
37.71 	0.056604 	4929 	0.055772
37.73 	0.050517 	4929 	0.049685
37.75 	0.048381 	4940 	0.047195
37.77 	0.047358 	4920 	0.046405
37.79 	0.057404 	4930 	0.056572
37.81 	0.052909 	4933 	0.052790
37.83 	0.054065 	4920 	0.053470
37.85 	0.052621 	4922 	0.051907
37.87 	0.052845 	4939 	0.051777
37.89 	0.051168 	4925 	0.050811
37.91 	0.051116 	4930 	0.050284
37.93 	0.054686 	4919 	0.053614
37.95 	0.052225 	4921 	0.051511
37.97 	0.046865 	4929 	0.046152
37.99 	0.046417 	4912 	0.045701
38.01 	0.049513 	4928 	0.049156
38.03 	0.051945 	4909 	0.051349
38.05 	0.051371 	4925 	0.050181
38.07 	0.050723 	4909 	0.049888
38.09 	0.052071 	4878 	0.051470
38.11 	0.054509 	4935 	0.053559
38.13 	0.057322 	4937 	0.056136
38.15 	0.051647 	4918 	0.050456
38.17 	0.051116 	4930 	0.050997
38.19 	0.053550 	4930 	0.052837
38.21 	0.052610 	4923 	0.051896
38.23 	0.054273 	4938 	0.053680
38.25 	0.049217 	4917 	0.048502
38.27 	0.051318 	4930 	0.051200
38.29 	0.059301 	4924 	0.058469
38.31 	0.051756 	4927 	0.051280
38.33 	0.059911 	4924 	0.058959
38.35 	0.064123 	4928 	0.063529
38.37 	0.056661 	4924 	0.055710
38.39 	0.060705 	4909 	0.059392
38.41 	0.063376 	4923 	0.062424
38.43 	0.061229 	4916 	0.060156
38.45 	0.067100 	4918 	0.065671
38.47 	0.060526 	4907 	0.059332
38.49 	0.065614 	4877 	0.064173
38.51 	0.057989 	4932 	0.057395
38.53 	0.066139 	4929 	0.065188
38.55 	0.061386 	4936 	0.060792
38.57 	0.057079 	4923 	0.056484
38.59 	0.050975 	4924 	0.050142
38.61 	0.061588 	4936 	0.060382
38.63 	0.061535 	4924 	0.060941
38.65 	0.057137 	4918 	0.056661
38.67 	0.054892 	4937 	0.053824
38.69 	0.057903 	4922 	0.057070
38.71 	0.062754 	4924 	0.061426
38.73 	0.054697 	4918 	0.053625
38.75 	0.057033 	4927 	0.055368
38.77 	0.048751 	4923 	0.047799
38.79 	0.051074 	4934 	0.050698
38.81 	0.054764 	4912 	0.053452
38.83 	0.049400 	4919 	0.048686
38.85 	0.050896 	4912 	0.049942
38.87 	0.047852 	4911 	0.046878
38.89 	0.054115 	4897 	0.052919
38.91 	0.046910 	4903 	0.046671
38.93 	0.047995 	4938 	0.047758
38.95 	0.051647 	4918 	0.051409
38.97 	0.048266 	4931 	0.047434
38.99 	0.052258 	4937 	0.051784
39.01 	0.046564 	4918 	0.046445
39.03 	0.044183 	4934 	0.043233
39.05 	0.051980 	4925 	0.051385
39.07 	0.047319 	4924 	0.046724
39.09 	0.044891 	4923 	0.044058
39.11 	0.049077 	4931 	0.048246
39.13 	0.054235 	4923 	0.053283
39.15 	0.046389 	4915 	0.045793
39.17 	0.047802 	4937 	0.047328
39.19 	0.048200 	4917 	0.046771
39.21 	0.047658 	4910 	0.046823
39.23 	0.037563 	4925 	0.037445
39.25 	0.041040 	4922 	0.040683
39.27 	0.048676 	4910 	0.048438
39.29 	0.052234 	4901 	0.051278
39.31 	0.044840 	4884 	0.044001
39.33 	0.046644 	4931 	0.046050
39.35 	0.054711 	4935 	0.054236
39.37 	0.049706 	4929 	0.049112
39.39 	0.049503 	4929 	0.048889
39.41 	0.045021 	4931 	0.044427
39.43 	0.043787 	4933 	0.042956
39.45 	0.047107 	4925 	0.046393
39.47 	0.043063 	4923 	0.041992
39.49 	0.046625 	4933 	0.044962
39.51 	0.045288 	4924 	0.044813
39.53 	0.043266 	4923 	0.042790
39.55 	0.042692 	4919 	0.042453
39.57 	0.052909 	4933 	0.052315
39.59 	0.052524 	4912 	0.051093
39.61 	0.052813 	4923 	0.052218
39.63 	0.055465 	4922 	0.054037
39.65 	0.043646 	4926 	0.043408
39.67 	0.050885 	4913 	0.050170
39.69 	0.049024 	4916 	0.048547
39.71 	0.047804 	4895 	0.046847
39.73 	0.048900 	4908 	0.048422
39.75 	0.047078 	4928 	0.046840
39.77 	0.049443 	4935 	0.048731
39.79 	0.055217 	4926 	0.054147
39.81 	0.045261 	4927 	0.044904
39.83 	0.049858 	4934 	0.049146
39.85 	0.050132 	4927 	0.049419
39.87 	0.051168 	4925 	0.049978
39.89 	0.046615 	4934 	0.046140
39.91 	0.049980 	4922 	0.049246
39.93 	0.046384 	4937 	0.045435
39.95 	0.048016 	4915 	0.046705
39.97 	0.048498 	4928 	0.047310
39.99 	0.047040 	4932 	0.046327
40.01 	0.044124 	4918 	0.043528
40.03 	0.052151 	4928 	0.051557
40.05 	0.047997 	4917 	0.047639
40.07 	0.042454 	4923 	0.042097
40.09 	0.047396 	4916 	0.046681
40.11 	0.046176 	4916 	0.045222
40.13 	0.051266 	4896 	0.050668
40.15 	0.051496 	4913 	0.050900
40.17 	0.045455 	4928 	0.044741
40.19 	0.046257 	4929 	0.045900
40.21 	0.054306 	4935 	0.053238
40.23 	0.040552 	4932 	0.040076
40.25 	0.052642 	4920 	0.052047
40.27 	0.044967 	4937 	0.044255
40.29 	0.046479 	4927 	0.045884
40.31 	0.050820 	4939 	0.050583
40.33 	0.042782 	4932 	0.041950
40.35 	0.051840 	4919 	0.051244
40.37 	0.045648 	4929 	0.044816
40.39 	0.050700 	4931 	0.049987
40.41 	0.050558 	4925 	0.050202
40.43 	0.049167 	4922 	0.048691
40.45 	0.041557 	4933 	0.041082
40.47 	0.050224 	4918 	0.049152
40.49 	0.049533 	4926 	0.048582
40.51 	0.048557 	4922 	0.048081
40.53 	0.045972 	4916 	0.045734
40.55 	0.048492 	4908 	0.047776
40.57 	0.046421 	4890 	0.045942
40.59 	0.049220 	4937 	0.048152
40.61 	0.039919 	4935 	0.039682
40.63 	0.045030 	4930 	0.043961
40.65 	0.045169 	4937 	0.045050
40.67 	0.049473 	4932 	0.048998
40.69 	0.040105 	4937 	0.039749
40.71 	0.041768 	4932 	0.041293
40.73 	0.045676 	4926 	0.044844
40.75 	0.046644 	4931 	0.046287
40.77 	0.046973 	4939 	0.046617
40.79 	0.047522 	4924 	0.046571
40.81 	0.047764 	4941 	0.047171
40.83 	0.043425 	4928 	0.042831
40.85 	0.047725 	4924 	0.047369
40.87 	0.049513 	4928 	0.049038
40.89 	0.047049 	4931 	0.046099
40.91 	0.043673 	4923 	0.043316
40.93 	0.042156 	4934 	0.042038
40.95 	0.048036 	4913 	0.046705
40.97 	0.044476 	4924 	0.044000
40.99 	0.045695 	4924 	0.045219
41.01 	0.046417 	4912 	0.045443
41.03 	0.044444 	4905 	0.044086
41.05 	0.039911 	4936 	0.039674
41.07 	0.044016 	4930 	0.043422
41.09 	0.040089 	4939 	0.039496
41.11 	0.043566 	4935 	0.042735
41.13 	0.045178 	4936 	0.044229
41.15 	0.043109 	4941 	0.042516
41.17 	0.042156 	4934 	0.041325
41.19 	0.048276 	4930 	0.048038
41.21 	0.044764 	4937 	0.044527
41.23 	0.042519 	4939 	0.042163
41.25 	0.044598 	4933 	0.044241
41.27 	0.043805 	4931 	0.042854
41.29 	0.048093 	4928 	0.047617
41.31 	0.046422 	4933 	0.045828
41.33 	0.046790 	4937 	0.046315
41.35 	0.046173 	4938 	0.045461
41.37 	0.050366 	4924 	0.049771
41.39 	0.044598 	4933 	0.043885
41.41 	0.040804 	4926 	0.040447
41.43 	0.043619 	4929 	0.043025
41.45 	0.042939 	4914 	0.042343
41.47 	0.043646 	4926 	0.042932
41.49 	0.042110 	4892 	0.041491
41.51 	0.045344 	4940 	0.044633
41.53 	0.046723 	4944 	0.046605
41.55 	0.048227 	4935 	0.047752
41.57 	0.044323 	4941 	0.043849
41.59 	0.041151 	4933 	0.040320
41.61 	0.044821 	4953 	0.044348
41.63 	0.048198 	4938 	0.047348
41.65 	0.039562 	4929 	0.039205
41.67 	0.034008 	4940 	0.033652
41.69 	0.039620 	4947 	0.039028
41.71 	0.039927 	4934 	0.039690
41.73 	0.041937 	4936 	0.041343
41.75 	0.038547 	4929 	0.038191
41.77 	0.040275 	4941 	0.040038
41.79 	0.042476 	4944 	0.041765
41.81 	0.040924 	4936 	0.040212
41.83 	0.045049 	4928 	0.044217
41.85 	0.040899 	4939 	0.040187
41.87 	0.039108 	4935 	0.038990
41.89 	0.045408 	4933 	0.045171
41.91 	0.041937 	4936 	0.041205
41.93 	0.043593 	4932 	0.043237
41.95 	0.038937 	4931 	0.037987
41.97 	0.044567 	4914 	0.043732
41.99 	0.037105 	4905 	0.036747
42.01 	0.049980 	4942 	0.049269
42.03 	0.044138 	4939 	0.043783
42.05 	0.041801 	4952 	0.041328
42.07 	0.043954 	4937 	0.043479
42.09 	0.044058 	4948 	0.043585
42.11 	0.042063 	4945 	0.041470
42.13 	0.040445 	4945 	0.039715
42.15 	0.038680 	4938 	0.038561
42.17 	0.043920 	4918 	0.043444
42.19 	0.040342 	4908 	0.039865
42.21 	0.040604 	4901 	0.039887
42.23 	0.040679 	4892 	0.040200
42.25 	0.039272 	4889 	0.039032
42.27 	0.035905 	4874 	0.035424
42.29 	0.041538 	4863 	0.040936
42.31 	0.035633 	4855 	0.035271
42.33 	0.039512 	4834 	0.039148
42.35 	0.036999 	4838 	0.036757
42.37 	0.038302 	4830 	0.038060
42.39 	0.040591 	4804 	0.040225
42.41 	0.041632 	4804 	0.040900
42.43 	0.041736 	4792 	0.041247
42.45 	0.039782 	4776 	0.039292
42.47 	0.038405 	4765 	0.038159
42.49 	0.038195 	4765 	0.037949
42.51 	0.048493 	4743 	0.047998
42.53 	0.041455 	4728 	0.040836
42.55 	0.040144 	4708 	0.039647
42.57 	0.039112 	4730 	0.038741
42.59 	0.042081 	4729 	0.041709
42.61 	0.040994 	4708 	0.040621
42.63 	0.038649 	4709 	0.038525
42.65 	0.040768 	4685 	0.040268
42.67 	0.044406 	4684 	0.044156
42.69 	0.047925 	4674 	0.047674
42.71 	0.041819 	4663 	0.041693
42.73 	0.046552 	4640 	0.046047
42.75 	0.041802 	4617 	0.041041
42.77 	0.040000 	4600 	0.038981
42.79 	0.039502 	4582 	0.039119
42.81 	0.047567 	4562 	0.046796
42.83 	0.039903 	4536 	0.039516
42.85 	0.036882 	4528 	0.036752
42.87 	0.045788 	4499 	0.045528
42.89 	0.039955 	4480 	0.039432
42.91 	0.037702 	4456 	0.037439
42.93 	0.036887 	4446 	0.036624
42.95 	0.036685 	4416 	0.036419
42.97 	0.040445 	4401 	0.039913
42.99 	0.035120 	4385 	0.034853
43.01 	0.044236 	4363 	0.043967
43.03 	0.039234 	4333 	0.038963
43.05 	0.047630 	4325 	0.046682
43.07 	0.039339 	4296 	0.039339
43.09 	0.044828 	4283 	0.044555
43.11 	0.043243 	4255 	0.042693
43.13 	0.042719 	4237 	0.042028
43.15 	0.040181 	4206 	0.040041
43.17 	0.046662 	4179 	0.046101
43.19 	0.039819 	4194 	0.039400
43.21 	0.039310 	4172 	0.038467
43.23 	0.041887 	4154 	0.040900
43.25 	0.042563 	4135 	0.042422
43.27 	0.037272 	4105 	0.037129
43.29 	0.039756 	4100 	0.039613
43.31 	0.039716 	4079 	0.038830
43.33 	0.042952 	4051 	0.041796
43.35 	0.034970 	4032 	0.034680
43.37 	0.039103 	4015 	0.038666
43.39 	0.044478 	4002 	0.044039
43.41 	0.043051 	3972 	0.042461
43.43 	0.038636 	3960 	0.038341
43.45 	0.040661 	3935 	0.040363
43.47 	0.037490 	3921 	0.037490
43.49 	0.041570 	3897 	0.040819
43.51 	0.043332 	3877 	0.042728
43.53 	0.044784 	3863 	0.043874
43.55 	0.035762 	2964 	0.035565
43.57 	0.044236 	2238 	0.044236
43.59 	0.040664 	1746 	0.038932
43.61 	0.039230 	1351 	0.038797
43.63 	0.039960 	1001 	0.038790
43.65 	0.045124 	687 	0.044271
43.67 	0.039841 	502 	0.039841
43.69 	0.038147 	367 	0.038147
43.71 	0.066946 	239 	0.064495
43.73 	0.025000 	120 	0.025000
43.75 	0.000000 	16 	0.000000