File: Example_Data/25SC_s1_0010.004.dat
#F C:\frames\spec\25SC_s1_0010.004
#C title =s:10 frm:4 25SC_s1
#C wavelength =0.15406

#S 1  fr_average C:\frames\spec\25SC_s1_0010.004 C:\win32app\speccom\mask.axs chi 0 180 0 360 0.02
#C 2 theta =0.000000 to 180 deg
#C   q   =0.000000 to 81.568 nm^-1
#C  chi  =0.000000 to 360 deg
#C collumns:
#C  1 position (2theta or chi in degrees)
#C  2 average intensity (sum of all counts in the region divided with number of pixels)
#C  3 Number of pixels in region)
#C  4 error (sum of sqrt(intensity) for all pixels divided by number)
#N 4
#L TTh  Int  N_pix  Err
32.99 	0.032787 	61 	0.032787
33.01 	0.050401 	873 	0.050401
33.03 	0.060388 	1391 	0.059546
33.05 	0.049516 	1757 	0.048849
33.07 	0.052683 	2050 	0.051826
33.09 	0.054964 	2347 	0.054714
33.11 	0.065529 	2579 	0.063939
33.13 	0.055138 	2793 	0.054299
33.15 	0.067356 	2999 	0.066574
33.17 	0.058419 	3201 	0.057321
33.19 	0.059545 	3342 	0.059019
33.21 	0.057625 	3436 	0.056602
33.23 	0.069543 	3523 	0.067548
33.25 	0.060078 	3612 	0.058105
33.27 	0.068871 	3630 	0.068225
33.29 	0.060855 	3648 	0.059731
33.31 	0.059836 	3660 	0.058236
33.33 	0.064297 	3686 	0.062231
33.35 	0.060639 	3694 	0.059212
33.37 	0.053581 	3714 	0.052792
33.39 	0.063288 	3729 	0.062502
33.41 	0.052406 	3740 	0.052093
33.43 	0.060888 	3761 	0.059798
33.45 	0.057514 	3773 	0.057048
33.47 	0.063454 	3798 	0.061912
33.49 	0.060383 	3809 	0.059461
33.51 	0.060026 	3815 	0.058644
33.53 	0.061182 	3841 	0.060089
33.55 	0.063492 	3843 	0.062882
33.57 	0.053392 	3877 	0.052787
33.59 	0.056443 	3880 	0.055688
33.61 	0.059862 	3909 	0.058963
33.63 	0.053330 	3919 	0.053031
33.65 	0.059018 	3931 	0.058273
33.67 	0.056904 	3954 	0.056312
33.69 	0.054642 	3953 	0.054346
33.71 	0.061635 	3975 	0.060014
33.73 	0.059940 	4004 	0.059062
33.75 	0.057514 	3999 	0.056196
33.77 	0.060373 	4025 	0.059936
33.79 	0.056174 	4041 	0.054411
33.81 	0.062655 	4038 	0.061204
33.83 	0.062469 	4050 	0.060276
33.85 	0.055623 	4099 	0.054171
33.87 	0.057893 	4111 	0.057039
33.89 	0.056782 	4121 	0.055219
33.91 	0.057363 	4149 	0.057081
33.93 	0.056854 	4151 	0.056148
33.95 	0.063143 	4181 	0.061882
33.97 	0.061814 	4190 	0.061255
33.99 	0.060476 	4200 	0.059221
34.01 	0.053643 	4213 	0.053087
34.03 	0.052309 	4244 	0.051343
34.05 	0.066557 	4252 	0.065593
34.07 	0.058107 	4268 	0.057283
34.09 	0.061129 	4286 	0.059763
34.11 	0.052766 	4302 	0.051813
34.13 	0.062442 	4308 	0.061196
34.15 	0.058878 	4331 	0.057931
34.17 	0.060230 	4350 	0.058996
34.19 	0.064420 	4362 	0.062540
34.21 	0.066118 	4371 	0.064643
34.23 	0.063282 	4393 	0.062616
34.25 	0.064033 	4404 	0.062703
34.27 	0.057666 	4422 	0.057004
34.29 	0.066291 	4435 	0.065630
34.31 	0.066397 	4458 	0.065346
34.33 	0.061060 	4471 	0.059881
34.35 	0.056423 	4484 	0.055770
34.37 	0.063238 	4491 	0.062064
34.39 	0.066637 	4502 	0.065726
34.41 	0.061644 	4526 	0.060867
34.43 	0.060586 	4539 	0.059295
34.45 	0.062845 	4535 	0.061811
34.47 	0.060758 	4592 	0.059865
34.49 	0.060909 	4597 	0.059614
34.51 	0.062527 	4606 	0.061383
34.53 	0.055568 	4643 	0.053927
34.55 	0.058152 	4643 	0.057269
34.57 	0.060515 	4660 	0.059635
34.59 	0.062246 	4675 	0.060868
34.61 	0.059187 	4697 	0.057940
34.63 	0.060934 	4710 	0.059939
34.65 	0.058462 	4721 	0.057594
34.67 	0.062012 	4741 	0.061518
34.69 	0.062474 	4754 	0.061611
34.71 	0.063156 	4766 	0.061804
34.73 	0.054732 	4787 	0.053997
34.75 	0.058444 	4808 	0.057084
34.77 	0.059153 	4818 	0.058302
34.79 	0.052653 	4824 	0.051682
34.81 	0.056140 	4845 	0.054810
34.83 	0.058618 	4862 	0.057172
34.85 	0.051551 	4869 	0.050829
34.87 	0.061422 	4868 	0.059818
34.89 	0.056125 	4882 	0.055285
34.91 	0.060426 	4882 	0.059826
34.93 	0.059808 	4899 	0.058493
34.95 	0.061554 	4890 	0.060356
34.97 	0.059364 	4902 	0.058049
34.99 	0.057178 	4897 	0.056580
35.01 	0.060938 	4923 	0.060225
35.03 	0.059073 	4943 	0.057888
35.05 	0.059228 	4947 	0.057570
35.07 	0.056883 	4940 	0.056053
35.09 	0.055926 	4953 	0.055098
35.11 	0.059834 	4947 	0.059361
35.13 	0.058088 	4958 	0.056788
35.15 	0.057120 	4937 	0.056170
35.17 	0.063688 	4946 	0.062602
35.19 	0.061109 	4942 	0.059786
35.21 	0.065116 	4945 	0.063813
35.23 	0.056623 	4945 	0.056149
35.25 	0.054218 	4943 	0.053369
35.27 	0.059822 	4948 	0.058875
35.29 	0.060061 	4945 	0.059468
35.31 	0.061423 	4933 	0.060592
35.33 	0.061299 	4943 	0.059758
35.35 	0.058276 	4942 	0.057328
35.37 	0.057299 	4939 	0.056350
35.39 	0.052781 	4945 	0.051596
35.41 	0.061307 	4926 	0.060713
35.43 	0.062234 	4933 	0.060928
35.45 	0.062386 	4937 	0.061318
35.47 	0.064287 	4931 	0.063080
35.49 	0.060489 	4910 	0.059654
35.51 	0.064758 	4926 	0.063450
35.53 	0.064255 	4949 	0.062717
35.55 	0.061881 	4945 	0.060815
35.57 	0.062031 	4933 	0.061319
35.59 	0.061476 	4945 	0.060055
35.61 	0.060097 	4942 	0.059742
35.63 	0.058871 	4943 	0.057568
35.65 	0.062083 	4945 	0.060642
35.67 	0.056253 	4942 	0.055186
35.69 	0.061666 	4946 	0.060482
35.71 	0.059348 	4937 	0.058280
35.73 	0.066451 	4936 	0.065382
35.75 	0.059826 	4931 	0.058499
35.77 	0.065239 	4951 	0.063583
35.79 	0.060219 	4932 	0.059368
35.81 	0.067099 	4933 	0.066030
35.83 	0.066518 	4946 	0.065808
35.85 	0.056535 	4935 	0.056060
35.87 	0.065610 	4923 	0.064183
35.89 	0.064451 	4934 	0.063363
35.91 	0.062919 	4927 	0.061492
35.93 	0.064948 	4927 	0.063126
35.95 	0.059793 	4917 	0.059316
35.97 	0.059650 	4912 	0.059173
35.99 	0.066410 	4939 	0.064750
36.01 	0.055781 	4930 	0.055068
36.03 	0.059276 	4943 	0.057854
36.05 	0.060061 	4945 	0.059231
36.07 	0.064993 	4939 	0.063925
36.09 	0.060931 	4940 	0.059508
36.11 	0.056604 	4929 	0.055534
36.13 	0.058681 	4942 	0.057970
36.15 	0.062158 	4939 	0.060972
36.17 	0.062944 	4925 	0.061755
36.19 	0.058704 	4940 	0.058112
36.21 	0.059241 	4929 	0.057796
36.23 	0.060588 	4935 	0.059519
36.25 	0.062336 	4941 	0.061743
36.27 	0.058883 	4925 	0.057674
36.29 	0.059217 	4931 	0.057910
36.31 	0.060471 	4928 	0.059025
36.33 	0.064667 	4933 	0.063479
36.35 	0.058430 	4929 	0.057360
36.37 	0.067439 	4923 	0.066606
36.39 	0.063402 	4921 	0.062926
36.41 	0.061683 	4896 	0.060367
36.43 	0.055601 	4928 	0.055006
36.45 	0.064300 	4930 	0.062874
36.47 	0.062601 	4936 	0.061059
36.49 	0.063132 	4942 	0.061710
36.51 	0.063045 	4933 	0.061501
36.53 	0.057253 	4943 	0.055949
36.55 	0.062310 	4927 	0.061359
36.57 	0.059587 	4934 	0.058637
36.59 	0.059931 	4939 	0.059101
36.61 	0.055567 	4931 	0.054973
36.63 	0.059420 	4931 	0.058707
36.65 	0.057989 	4932 	0.057138
36.67 	0.054158 	4930 	0.053445
36.69 	0.065125 	4929 	0.063461
36.71 	0.058525 	4921 	0.057691
36.73 	0.057462 	4925 	0.056391
36.75 	0.057646 	4944 	0.056303
36.77 	0.056312 	4919 	0.055240
36.79 	0.058525 	4921 	0.057096
36.81 	0.055533 	4916 	0.054580
36.83 	0.051882 	4915 	0.051167
36.85 	0.058595 	4898 	0.057619
36.87 	0.056634 	4944 	0.055568
36.89 	0.060415 	4916 	0.059223
36.91 	0.052216 	4941 	0.051149
36.93 	0.062677 	4930 	0.061014
36.95 	0.058180 	4933 	0.057348
36.97 	0.064856 	4934 	0.063431
36.99 	0.055319 	4935 	0.054726
37.01 	0.056355 	4933 	0.055999
37.03 	0.056661 	4924 	0.055234
37.05 	0.052770 	4927 	0.051819
37.07 	0.053090 	4935 	0.052141
37.09 	0.058847 	4928 	0.057421
37.11 	0.061196 	4935 	0.060009
37.13 	0.048741 	4924 	0.048265
37.15 	0.057649 	4909 	0.056814
37.17 	0.056546 	4934 	0.055478
37.19 	0.049340 	4925 	0.048745
37.21 	0.054505 	4917 	0.053890
37.23 	0.050020 	4918 	0.049544
37.25 	0.056404 	4911 	0.055211
37.27 	0.051696 	4894 	0.050858
37.29 	0.060649 	4930 	0.059580
37.31 	0.056940 	4935 	0.055753
37.33 	0.057033 	4927 	0.056438
37.35 	0.051843 	4938 	0.051250
37.37 	0.053379 	4927 	0.052785
37.39 	0.062056 	4931 	0.059898
37.41 	0.054756 	4931 	0.053805
37.43 	0.052920 	4932 	0.051732
37.45 	0.052600 	4924 	0.051529
37.47 	0.057212 	4929 	0.056381
37.49 	0.047938 	4923 	0.047581
37.51 	0.054733 	4933 	0.053902
37.53 	0.057125 	4919 	0.056272
37.55 	0.056187 	4930 	0.054622
37.57 	0.056041 	4925 	0.055208
37.59 	0.054934 	4915 	0.054100
37.61 	0.063389 	4922 	0.062794
37.63 	0.057532 	4919 	0.056818
37.65 	0.055307 	4918 	0.054235
37.67 	0.054853 	4904 	0.054375
37.69 	0.057370 	4898 	0.056892
37.71 	0.059444 	4929 	0.058850
37.73 	0.053358 	4929 	0.052763
37.75 	0.057490 	4940 	0.055711
37.77 	0.063008 	4920 	0.062056
37.79 	0.048276 	4930 	0.047919
37.81 	0.056761 	4933 	0.055692
37.83 	0.058333 	4920 	0.057381
37.85 	0.056075 	4922 	0.055242
37.87 	0.056084 	4939 	0.055096
37.89 	0.058274 	4925 	0.057204
37.91 	0.056592 	4930 	0.055622
37.93 	0.060175 	4919 	0.059579
37.95 	0.056696 	4921 	0.056101
37.97 	0.063096 	4929 	0.061432
37.99 	0.055375 	4912 	0.054540
38.01 	0.061688 	4928 	0.060856
38.03 	0.059075 	4909 	0.058359
38.05 	0.059492 	4925 	0.058422
38.07 	0.062538 	4909 	0.060987
38.09 	0.059041 	4878 	0.057720
38.11 	0.060588 	4935 	0.058669
38.13 	0.065627 	4937 	0.064322
38.15 	0.058967 	4918 	0.057995
38.17 	0.063489 	4930 	0.061905
38.19 	0.056187 	4930 	0.055355
38.21 	0.061954 	4923 	0.060645
38.23 	0.063183 	4938 	0.062234
38.25 	0.060606 	4917 	0.059772
38.27 	0.056187 	4930 	0.055474
38.29 	0.068237 	4924 	0.066929
38.31 	0.063933 	4927 	0.062863
38.33 	0.066613 	4924 	0.066375
38.35 	0.068385 	4928 	0.066939
38.37 	0.069862 	4924 	0.068791
38.39 	0.064575 	4909 	0.063501
38.41 	0.062563 	4923 	0.059907
38.43 	0.065297 	4916 	0.064344
38.45 	0.072184 	4918 	0.070635
38.47 	0.063379 	4907 	0.062185
38.49 	0.069100 	4877 	0.068139
38.51 	0.057786 	4932 	0.057192
38.53 	0.064110 	4929 	0.063140
38.55 	0.059968 	4936 	0.059374
38.57 	0.060938 	4923 	0.059868
38.59 	0.059504 	4924 	0.058791
38.61 	0.054092 	4936 	0.053123
38.63 	0.069659 	4924 	0.068826
38.65 	0.066897 	4918 	0.065944
38.67 	0.063196 	4937 	0.061654
38.69 	0.059122 	4922 	0.058170
38.71 	0.058489 	4924 	0.057775
38.73 	0.062017 	4918 	0.061302
38.75 	0.063122 	4927 	0.061695
38.77 	0.061345 	4923 	0.060869
38.79 	0.058573 	4934 	0.057742
38.81 	0.055578 	4912 	0.054147
38.83 	0.064851 	4919 	0.063422
38.85 	0.056596 	4912 	0.056000
38.87 	0.055997 	4911 	0.055281
38.89 	0.051868 	4897 	0.051031
38.91 	0.060779 	4903 	0.059345
38.93 	0.051033 	4938 	0.050202
38.95 	0.058357 	4918 	0.057285
38.97 	0.061651 	4931 	0.060582
38.99 	0.051246 	4937 	0.050652
39.01 	0.050834 	4918 	0.050119
39.03 	0.054114 	4934 	0.053165
39.05 	0.056244 	4925 	0.054697
39.07 	0.054427 	4924 	0.053575
39.09 	0.052001 	4923 	0.051644
39.11 	0.054553 	4931 	0.053345
39.13 	0.059110 	4923 	0.058277
39.15 	0.055544 	4915 	0.054591
39.17 	0.061981 	4937 	0.060557
39.19 	0.053285 	4917 	0.052212
39.21 	0.047454 	4910 	0.046858
39.23 	0.050558 	4925 	0.049845
39.25 	0.055262 	4922 	0.054548
39.27 	0.050509 	4910 	0.049913
39.29 	0.055703 	4901 	0.054149
39.31 	0.054668 	4884 	0.053089
39.33 	0.051511 	4931 	0.050917
39.35 	0.054509 	4935 	0.053678
39.37 	0.052343 	4929 	0.051630
39.39 	0.062284 	4929 	0.061096
39.41 	0.056784 	4931 	0.055596
39.43 	0.056963 	4933 	0.056132
39.45 	0.056041 	4925 	0.055089
39.47 	0.059720 	4923 	0.058887
39.49 	0.053112 	4933 	0.052162
39.51 	0.053818 	4924 	0.053085
39.53 	0.050985 	4923 	0.050271
39.55 	0.058752 	4919 	0.058395
39.57 	0.053112 	4933 	0.052874
39.59 	0.053950 	4912 	0.052638
39.61 	0.058298 	4923 	0.057822
39.63 	0.059529 	4922 	0.058696
39.65 	0.052172 	4926 	0.051459
39.67 	0.060655 	4913 	0.059563
39.69 	0.055940 	4916 	0.055205
39.71 	0.059857 	4895 	0.058641
39.73 	0.057050 	4908 	0.056095
39.75 	0.053369 	4928 	0.052655
39.77 	0.060182 	4935 	0.059114
39.79 	0.057044 	4926 	0.056331
39.81 	0.052770 	4927 	0.052176
39.83 	0.053912 	4934 	0.053199
39.85 	0.059265 	4927 	0.058671
39.87 	0.053604 	4925 	0.052534
39.89 	0.058168 	4934 	0.057455
39.91 	0.051199 	4922 	0.050366
39.93 	0.055297 	4937 	0.054822
39.95 	0.053306 	4915 	0.052710
39.97 	0.059659 	4928 	0.058589
39.99 	0.053325 	4932 	0.052256
40.01 	0.047987 	4918 	0.047511
40.03 	0.058644 	4928 	0.057575
40.05 	0.049420 	4917 	0.048706
40.07 	0.060329 	4923 	0.059377
40.09 	0.060415 	4916 	0.059819
40.11 	0.048210 	4916 	0.047852
40.13 	0.054739 	4896 	0.054021
40.15 	0.058620 	4913 	0.058382
40.17 	0.051948 	4928 	0.051473
40.19 	0.060864 	4929 	0.059795
40.21 	0.051874 	4935 	0.051162
40.23 	0.050487 	4932 	0.049774
40.25 	0.056911 	4920 	0.056434
40.27 	0.054284 	4937 	0.053335
40.29 	0.049929 	4927 	0.048859
40.31 	0.048795 	4939 	0.047846
40.33 	0.055556 	4932 	0.054605
40.35 	0.050213 	4919 	0.049737
40.37 	0.057010 	4929 	0.056059
40.39 	0.049888 	4931 	0.049275
40.41 	0.054213 	4925 	0.053024
40.43 	0.050589 	4922 	0.049518
40.45 	0.054531 	4933 	0.053324
40.47 	0.051240 	4918 	0.050764
40.49 	0.055420 	4926 	0.054826
40.51 	0.057903 	4922 	0.057408
40.53 	0.047600 	4916 	0.047004
40.55 	0.054197 	4908 	0.053242
40.57 	0.055828 	4890 	0.055229
40.59 	0.050435 	4937 	0.049585
40.61 	0.056940 	4935 	0.055635
40.63 	0.053144 	4930 	0.052174
40.65 	0.051651 	4937 	0.051176
40.67 	0.050487 	4932 	0.050368
40.69 	0.053879 	4937 	0.053048
40.71 	0.053731 	4932 	0.053018
40.73 	0.056029 	4926 	0.055316
40.75 	0.054756 	4931 	0.053924
40.77 	0.053655 	4939 	0.053062
40.79 	0.054427 	4924 	0.053714
40.81 	0.056466 	4941 	0.055399
40.83 	0.053369 	4928 	0.052061
40.85 	0.054021 	4924 	0.052931
40.87 	0.051542 	4928 	0.050829
40.89 	0.048063 	4931 	0.046994
40.91 	0.054641 	4923 	0.054047
40.93 	0.056546 	4934 	0.055597
40.95 	0.058213 	4913 	0.057498
40.97 	0.055443 	4924 	0.054491
40.99 	0.053615 	4924 	0.053139
41.01 	0.042752 	4912 	0.042275
41.03 	0.057085 	4905 	0.056607
41.05 	0.057739 	4936 	0.056078
41.07 	0.054564 	4930 	0.053970
41.09 	0.047985 	4939 	0.047037
41.11 	0.051469 	4935 	0.050638
41.13 	0.060170 	4936 	0.058746
41.15 	0.045537 	4941 	0.045182
41.17 	0.051480 	4934 	0.050767
41.19 	0.055172 	4930 	0.054321
41.21 	0.054284 	4937 	0.053097
41.23 	0.056287 	4939 	0.055456
41.25 	0.055139 	4933 	0.055020
41.27 	0.053336 	4931 	0.052386
41.29 	0.050325 	4928 	0.049611
41.31 	0.051693 	4933 	0.050486
41.33 	0.054284 	4937 	0.053691
41.35 	0.053868 	4938 	0.052682
41.37 	0.053006 	4924 	0.051796
41.39 	0.052909 	4933 	0.051583
41.41 	0.055826 	4926 	0.054499
41.43 	0.050923 	4929 	0.050329
41.45 	0.048230 	4914 	0.047514
41.47 	0.053390 	4926 	0.052558
41.49 	0.051104 	4892 	0.050745
41.51 	0.046154 	4940 	0.045917
41.53 	0.050971 	4944 	0.049905
41.55 	0.049645 	4935 	0.048814
41.57 	0.054240 	4941 	0.053884
41.59 	0.049463 	4933 	0.048869
41.61 	0.051080 	4953 	0.050016
41.63 	0.052450 	4938 	0.051620
41.65 	0.048083 	4929 	0.047370
41.67 	0.045142 	4940 	0.044549
41.69 	0.051142 	4947 	0.050076
41.71 	0.050466 	4934 	0.049635
41.73 	0.049838 	4936 	0.049482
41.75 	0.044634 	4929 	0.044277
41.77 	0.053835 	4941 	0.053480
41.79 	0.044701 	4944 	0.044345
41.81 	0.052269 	4936 	0.051676
41.83 	0.050122 	4928 	0.049290
41.85 	0.049200 	4939 	0.048726
41.87 	0.051266 	4935 	0.050673
41.89 	0.041760 	4933 	0.041403
41.91 	0.050648 	4936 	0.049699
41.93 	0.051095 	4932 	0.050382
41.95 	0.058203 	4931 	0.057609
41.97 	0.049858 	4914 	0.049003
41.99 	0.051172 	4905 	0.050456
42.01 	0.049980 	4942 	0.048794
42.03 	0.053655 	4939 	0.052113
42.05 	0.047658 	4952 	0.046829
42.07 	0.050435 	4937 	0.049249
42.09 	0.043048 	4948 	0.042693
42.11 	0.045096 	4945 	0.044622
42.13 	0.048534 	4945 	0.047823
42.15 	0.046780 	4938 	0.046306
42.17 	0.047377 	4918 	0.046901
42.19 	0.044621 	4908 	0.044144
42.21 	0.051418 	4901 	0.050581
42.23 	0.042518 	4892 	0.041800
42.25 	0.053590 	4889 	0.052392
42.27 	0.048831 	4874 	0.047989
42.29 	0.049558 	4863 	0.048956
42.31 	0.047580 	4855 	0.046977
42.33 	0.051303 	4834 	0.050314
42.35 	0.047127 	4838 	0.046522
42.37 	0.044306 	4830 	0.043943
42.39 	0.048085 	4804 	0.047353
42.41 	0.049126 	4804 	0.048516
42.43 	0.044032 	4792 	0.043665
42.45 	0.051298 	4776 	0.051053
42.47 	0.038825 	4765 	0.038333
42.49 	0.046590 	4765 	0.045606
42.51 	0.049547 	4743 	0.049053
42.53 	0.049704 	4728 	0.048961
42.55 	0.049065 	4708 	0.048443
42.57 	0.046089 	4730 	0.045593
42.59 	0.046733 	4729 	0.046485
42.61 	0.043755 	4708 	0.043258
42.63 	0.050966 	4709 	0.050344
42.65 	0.046958 	4685 	0.046583
42.67 	0.045474 	4684 	0.044599
42.69 	0.047283 	4674 	0.046907
42.71 	0.050611 	4663 	0.049606
42.73 	0.048922 	4640 	0.048417
42.75 	0.046134 	4617 	0.045373
42.77 	0.047174 	4600 	0.046665
42.79 	0.050196 	4582 	0.049685
42.81 	0.041868 	4562 	0.041226
42.83 	0.061508 	4536 	0.060733
42.85 	0.051237 	4528 	0.050719
42.87 	0.046899 	4499 	0.046378
42.89 	0.049777 	4480 	0.048861
42.91 	0.047801 	4456 	0.047406
42.93 	0.044984 	4446 	0.044457
42.95 	0.050951 	4416 	0.050155
42.97 	0.054306 	4401 	0.053374
42.99 	0.041505 	4385 	0.040837
43.01 	0.043548 	4363 	0.043414
43.03 	0.045003 	4333 	0.044463
43.05 	0.047168 	4325 	0.046626
43.07 	0.047719 	4296 	0.047310
43.09 	0.046696 	4283 	0.046012
43.11 	0.053349 	4255 	0.052936
43.13 	0.045787 	4237 	0.045511
43.15 	0.056110 	4206 	0.055414
43.17 	0.044269 	4179 	0.043848
43.19 	0.050310 	4194 	0.049751
43.21 	0.047220 	4172 	0.047079
43.23 	0.045258 	4154 	0.044694
43.25 	0.050786 	4135 	0.049794
43.27 	0.042387 	4105 	0.041531
43.29 	0.042927 	4100 	0.042212
43.31 	0.047070 	4079 	0.046065
43.33 	0.042952 	4051 	0.042374
43.35 	0.050347 	4032 	0.049911
43.37 	0.042590 	4015 	0.042007
43.39 	0.042729 	4002 	0.042143
43.41 	0.045569 	3972 	0.044832
43.43 	0.041919 	3960 	0.041623
43.45 	0.048030 	3935 	0.047435
43.47 	0.044887 	3921 	0.044289
43.49 	0.044393 	3897 	0.043341
43.51 	0.046428 	3877 	0.045521
43.53 	0.048149 	3863 	0.047543
43.55 	0.046896 	2964 	0.046303
43.57 	0.044236 	2238 	0.043712
43.59 	0.049255 	1746 	0.048249
43.61 	0.045892 	1351 	0.045025
43.63 	0.052947 	1001 	0.052362
43.65 	0.043668 	687 	0.043668
43.67 	0.043825 	502 	0.043825
43.69 	0.046322 	367 	0.046322
43.71 	0.041841 	239 	0.039390
43.73 	0.033333 	120 	0.033333
43.75 	0.000000 	16 	0.000000