File: Example_Data/25SC_s1_0038.004.dat
#F C:\frames\spec\25SC_s1_0038.004
#C title =s:38 frm:4 25SC_s1
#C wavelength =0.15406

#S 1  fr_average C:\frames\spec\25SC_s1_0038.004 C:\win32app\speccom\mask.axs chi 0 180 0 360 0.02
#C 2 theta =0.000000 to 180 deg
#C   q   =0.000000 to 81.568 nm^-1
#C  chi  =0.000000 to 360 deg
#C collumns:
#C  1 position (2theta or chi in degrees)
#C  2 average intensity (sum of all counts in the region divided with number of pixels)
#C  3 Number of pixels in region)
#C  4 error (sum of sqrt(intensity) for all pixels divided by number)
#N 4
#L TTh  Int  N_pix  Err
32.99 	0.049180 	61 	0.049180
33.01 	0.054983 	873 	0.053641
33.03 	0.053918 	1391 	0.053918
33.05 	0.053500 	1757 	0.052500
33.07 	0.054146 	2050 	0.053575
33.09 	0.061781 	2347 	0.061032
33.11 	0.056611 	2579 	0.055703
33.13 	0.060150 	2793 	0.058892
33.15 	0.058019 	2999 	0.057824
33.17 	0.060918 	3201 	0.059271
33.19 	0.054758 	3342 	0.053881
33.21 	0.056170 	3436 	0.054806
33.23 	0.056486 	3523 	0.055488
33.25 	0.060078 	3612 	0.059267
33.27 	0.056198 	3630 	0.054585
33.29 	0.057840 	3648 	0.056555
33.31 	0.056557 	3660 	0.055411
33.33 	0.069723 	3686 	0.068611
33.35 	0.053330 	3694 	0.052695
33.37 	0.061659 	3714 	0.061028
33.39 	0.058729 	3729 	0.058101
33.41 	0.062299 	3740 	0.060733
33.43 	0.055836 	3761 	0.054123
33.45 	0.057779 	3773 	0.056226
33.47 	0.060558 	3798 	0.059633
33.49 	0.058020 	3809 	0.056790
33.51 	0.064220 	3815 	0.063145
33.53 	0.052851 	3841 	0.052241
33.55 	0.061410 	3843 	0.060343
33.57 	0.057003 	3877 	0.055643
33.59 	0.055670 	3880 	0.054613
33.61 	0.057559 	3909 	0.056960
33.63 	0.058433 	3919 	0.057387
33.65 	0.059272 	3931 	0.058229
33.67 	0.059181 	3954 	0.057995
33.69 	0.052871 	3953 	0.052130
33.71 	0.055094 	3975 	0.054186
33.73 	0.055694 	4004 	0.054378
33.75 	0.056514 	3999 	0.055489
33.77 	0.056149 	4025 	0.054839
33.79 	0.057906 	4041 	0.056747
33.81 	0.053739 	4038 	0.052434
33.83 	0.060988 	4050 	0.060120
33.85 	0.062454 	4099 	0.060882
33.87 	0.062029 	4111 	0.060746
33.89 	0.053142 	4121 	0.052574
33.91 	0.064112 	4149 	0.063124
33.93 	0.057817 	4151 	0.056688
33.95 	0.052380 	4181 	0.051259
33.97 	0.060143 	4190 	0.059584
33.99 	0.064048 	4200 	0.061956
34.01 	0.058153 	4213 	0.057736
34.03 	0.057257 	4244 	0.056567
34.05 	0.065381 	4252 	0.064554
34.07 	0.059278 	4268 	0.057472
34.09 	0.062996 	4286 	0.061629
34.11 	0.054858 	4302 	0.053769
34.13 	0.061978 	4308 	0.060596
34.15 	0.056800 	4331 	0.055447
34.17 	0.059310 	4350 	0.058368
34.19 	0.058689 	4362 	0.057749
34.21 	0.057881 	4371 	0.057591
34.23 	0.060096 	4393 	0.058762
34.25 	0.055858 	4404 	0.054905
34.27 	0.057892 	4422 	0.056700
34.29 	0.053439 	4435 	0.051986
34.31 	0.052939 	4458 	0.052282
34.33 	0.057034 	4471 	0.056772
34.35 	0.064228 	4484 	0.062095
34.37 	0.052995 	4491 	0.052604
34.39 	0.059529 	4502 	0.058337
34.41 	0.058330 	4526 	0.056906
34.43 	0.064992 	4539 	0.063831
34.45 	0.059537 	4535 	0.058762
34.47 	0.057491 	4592 	0.056598
34.49 	0.062432 	4597 	0.060903
34.51 	0.059271 	4606 	0.058635
34.53 	0.061383 	4643 	0.060500
34.55 	0.055998 	4643 	0.055494
34.57 	0.059227 	4660 	0.058096
34.59 	0.050481 	4675 	0.049980
34.61 	0.057909 	4697 	0.057161
34.63 	0.054140 	4710 	0.053518
34.65 	0.056556 	4721 	0.055811
34.67 	0.056739 	4741 	0.056368
34.69 	0.057846 	4754 	0.057230
34.71 	0.058120 	4766 	0.055765
34.73 	0.061416 	4787 	0.060315
34.75 	0.064060 	4808 	0.062598
34.77 	0.053549 	4818 	0.052820
34.79 	0.061567 	4824 	0.060110
34.81 	0.054696 	4845 	0.053829
34.83 	0.056972 	4862 	0.055989
34.85 	0.057301 	4869 	0.055737
34.87 	0.058751 	4868 	0.057909
34.89 	0.065752 	4882 	0.064312
34.91 	0.052028 	4882 	0.051068
34.93 	0.052460 	4899 	0.051862
34.95 	0.055624 	4890 	0.054785
34.97 	0.056100 	4902 	0.055024
34.99 	0.062691 	4897 	0.061954
35.01 	0.056673 	4923 	0.055840
35.03 	0.058669 	4943 	0.057484
35.05 	0.059834 	4947 	0.058413
35.07 	0.060526 	4940 	0.059696
35.09 	0.050878 	4953 	0.050050
35.11 	0.062664 	4947 	0.061835
35.13 	0.056071 	4958 	0.054653
35.15 	0.059550 	4937 	0.058601
35.17 	0.057016 	4946 	0.056779
35.19 	0.063132 	4942 	0.062066
35.21 	0.062285 	4945 	0.061101
35.23 	0.059454 	4945 	0.058131
35.25 	0.054825 	4943 	0.053146
35.27 	0.063864 	4948 	0.063035
35.29 	0.055410 	4945 	0.054442
35.31 	0.059801 	4933 	0.059089
35.33 	0.056646 	4943 	0.055816
35.35 	0.053015 	4942 	0.052541
35.37 	0.063778 	4939 	0.062236
35.39 	0.060263 	4945 	0.058940
35.41 	0.058262 	4926 	0.056935
35.43 	0.060409 	4933 	0.059460
35.45 	0.053271 	4937 	0.052441
35.47 	0.058812 	4931 	0.058099
35.49 	0.056415 	4910 	0.054964
35.51 	0.059886 	4926 	0.059292
35.53 	0.055365 	4949 	0.053688
35.55 	0.059656 	4945 	0.058353
35.57 	0.054328 	4933 	0.053141
35.59 	0.056825 	4945 	0.056351
35.61 	0.057062 	4942 	0.055521
35.63 	0.059276 	4943 	0.057854
35.65 	0.060263 	4945 	0.058822
35.67 	0.054027 	4942 	0.053316
35.69 	0.053983 	4946 	0.052661
35.71 	0.055702 	4937 	0.055346
35.73 	0.059968 	4936 	0.058761
35.75 	0.059826 	4931 	0.058400
35.77 	0.061604 	4951 	0.060539
35.79 	0.059002 	4932 	0.058527
35.81 	0.054125 	4933 	0.052582
35.83 	0.054590 	4946 	0.053267
35.85 	0.051064 	4935 	0.049877
35.87 	0.055454 	4923 	0.054859
35.89 	0.060600 	4934 	0.059175
35.91 	0.056627 	4927 	0.056032
35.93 	0.062107 	4927 	0.061275
35.95 	0.059996 	4917 	0.058805
35.97 	0.056189 	4912 	0.055096
35.99 	0.057502 	4939 	0.056434
36.01 	0.060649 	4930 	0.059342
36.03 	0.059478 	4943 	0.058629
36.05 	0.064712 	4945 	0.063053
36.07 	0.061146 	4939 	0.059841
36.09 	0.062955 	4940 	0.061651
36.11 	0.054981 	4929 	0.054030
36.13 	0.057467 	4942 	0.056281
36.15 	0.060539 	4939 	0.059353
36.17 	0.054416 	4925 	0.053703
36.19 	0.055870 	4940 	0.055278
36.21 	0.055184 	4929 	0.054114
36.23 	0.054306 	4935 	0.053475
36.25 	0.055050 	4941 	0.053370
36.27 	0.057056 	4925 	0.056461
36.29 	0.055567 	4931 	0.054616
36.31 	0.053166 	4928 	0.052096
36.33 	0.055342 	4933 	0.054748
36.35 	0.055184 	4929 	0.054233
36.37 	0.054438 	4923 	0.053248
36.39 	0.055070 	4921 	0.053999
36.41 	0.060253 	4896 	0.059535
36.43 	0.048295 	4928 	0.047582
36.45 	0.057404 	4930 	0.056691
36.47 	0.052674 	4936 	0.051606
36.49 	0.057467 	4942 	0.056874
36.51 	0.052098 	4933 	0.051504
36.53 	0.053611 	4943 	0.053493
36.55 	0.056830 	4927 	0.055879
36.57 	0.049250 	4934 	0.048656
36.59 	0.057502 	4939 	0.055960
36.61 	0.050497 	4931 	0.050022
36.63 	0.055972 	4931 	0.055497
36.65 	0.051298 	4932 	0.050328
36.67 	0.053955 	4930 	0.053718
36.69 	0.054372 	4929 	0.053421
36.71 	0.056696 	4921 	0.055982
36.73 	0.057056 	4925 	0.055866
36.75 	0.051375 	4944 	0.050546
36.77 	0.059362 	4919 	0.057814
36.79 	0.051616 	4921 	0.050544
36.81 	0.061635 	4916 	0.060067
36.83 	0.056358 	4915 	0.055285
36.85 	0.052879 	4898 	0.051922
36.87 	0.050971 	4944 	0.050141
36.89 	0.059194 	4916 	0.058360
36.91 	0.053633 	4941 	0.052684
36.93 	0.059635 	4930 	0.058684
36.95 	0.057166 	4933 	0.056454
36.97 	0.052493 	4934 	0.051306
36.99 	0.050456 	4935 	0.049981
37.01 	0.056355 	4933 	0.055643
37.03 	0.056864 	4924 	0.056507
37.05 	0.055612 	4927 	0.054542
37.07 	0.054306 	4935 	0.053712
37.09 	0.054789 	4928 	0.053838
37.11 	0.057953 	4935 	0.057004
37.13 	0.055037 	4924 	0.054085
37.15 	0.051945 	4909 	0.051110
37.17 	0.050872 	4934 	0.049546
37.19 	0.052995 	4925 	0.052043
37.21 	0.056132 	4917 	0.055774
37.23 	0.055307 	4918 	0.054473
37.25 	0.059662 	4911 	0.058350
37.27 	0.056600 	4894 	0.055762
37.29 	0.061866 	4930 	0.061034
37.31 	0.055117 	4935 	0.053930
37.33 	0.053785 	4927 	0.052953
37.35 	0.056501 	4938 	0.055670
37.37 	0.057236 	4927 	0.056284
37.39 	0.057595 	4931 	0.057238
37.41 	0.057392 	4931 	0.056204
37.43 	0.048054 	4932 	0.047341
37.45 	0.055037 	4924 	0.054323
37.47 	0.055792 	4929 	0.055079
37.49 	0.056673 	4923 	0.056197
37.51 	0.060004 	4933 	0.059173
37.53 	0.053060 	4919 	0.052226
37.55 	0.058824 	4930 	0.057616
37.57 	0.057259 	4925 	0.056545
37.59 	0.065921 	4915 	0.064967
37.61 	0.057497 	4922 	0.056783
37.63 	0.054686 	4919 	0.053595
37.65 	0.057747 	4918 	0.056913
37.67 	0.058320 	4904 	0.057842
37.69 	0.057575 	4898 	0.056737
37.71 	0.051532 	4929 	0.050324
37.73 	0.054778 	4929 	0.053827
37.75 	0.051215 	4940 	0.050740
37.77 	0.053252 	4920 	0.052657
37.79 	0.057201 	4930 	0.056488
37.81 	0.048855 	4933 	0.047667
37.83 	0.053659 	4920 	0.052944
37.85 	0.054043 	4922 	0.052000
37.87 	0.051832 	4939 	0.051002
37.89 	0.055228 	4925 	0.054753
37.91 	0.054564 	4930 	0.054089
37.93 	0.057939 	4919 	0.056629
37.95 	0.058118 	4921 	0.057285
37.97 	0.058430 	4929 	0.057360
37.99 	0.049267 	4912 	0.048909
38.01 	0.054180 	4928 	0.053229
38.03 	0.064779 	4909 	0.063327
38.05 	0.060305 	4925 	0.059472
38.07 	0.055205 	4909 	0.054489
38.09 	0.059246 	4878 	0.058285
38.11 	0.056130 	4935 	0.055061
38.13 	0.051651 	4937 	0.050307
38.15 	0.056324 	4918 	0.054775
38.17 	0.059026 	4930 	0.057106
38.19 	0.054970 	4930 	0.054138
38.21 	0.056876 	4923 	0.055666
38.23 	0.061158 	4938 	0.059933
38.25 	0.054098 	4917 	0.053264
38.27 	0.064300 	4930 	0.062993
38.29 	0.060317 	4924 	0.059484
38.31 	0.058859 	4927 	0.057670
38.33 	0.059504 	4924 	0.058791
38.35 	0.063718 	4928 	0.062053
38.37 	0.065191 	4924 	0.064120
38.39 	0.067223 	4909 	0.066011
38.41 	0.071704 	4923 	0.070633
38.43 	0.068348 	4916 	0.067157
38.45 	0.064864 	4918 	0.063315
38.47 	0.063786 	4907 	0.062831
38.49 	0.068895 	4877 	0.068054
38.51 	0.068329 	4932 	0.067617
38.53 	0.069588 	4929 	0.068737
38.55 	0.066045 	4936 	0.064977
38.57 	0.065407 	4923 	0.064098
38.59 	0.057677 	4924 	0.056725
38.61 	0.066653 	4936 	0.065704
38.63 	0.059708 	4924 	0.057804
38.65 	0.063440 	4918 	0.062111
38.67 	0.058132 	4937 	0.057421
38.69 	0.061357 	4922 	0.060524
38.71 	0.058895 	4924 	0.057706
38.73 	0.058764 	4918 	0.057454
38.75 	0.052162 	4927 	0.051567
38.77 	0.058907 	4923 	0.058193
38.79 	0.060600 	4934 	0.059650
38.81 	0.048453 	4912 	0.047499
38.83 	0.054686 	4919 	0.054090
38.85 	0.053339 	4912 	0.052385
38.87 	0.053553 	4911 	0.052360
38.89 	0.055136 	4897 	0.054298
38.91 	0.054049 	4903 	0.053571
38.93 	0.055083 	4938 	0.054253
38.95 	0.050834 	4918 	0.049861
38.97 	0.050294 	4931 	0.049344
38.99 	0.058132 	4937 	0.057539
39.01 	0.050224 	4918 	0.049509
39.03 	0.053912 	4934 	0.052962
39.05 	0.052589 	4925 	0.051875
39.07 	0.057677 	4924 	0.056487
39.09 	0.060126 	4923 	0.058936
39.11 	0.059826 	4931 	0.058875
39.13 	0.050173 	4923 	0.049340
39.15 	0.049644 	4915 	0.048929
39.17 	0.054487 	4937 	0.053537
39.19 	0.053285 	4917 	0.052689
39.21 	0.056008 	4910 	0.054934
39.23 	0.048934 	4925 	0.048577
39.25 	0.043478 	4922 	0.042526
39.27 	0.055601 	4910 	0.054388
39.29 	0.048766 	4901 	0.048407
39.31 	0.052211 	4884 	0.051252
39.33 	0.056175 	4931 	0.055700
39.35 	0.052888 	4935 	0.052175
39.37 	0.054981 	4929 	0.054030
39.39 	0.053358 	4929 	0.052169
39.41 	0.051714 	4931 	0.050644
39.43 	0.053720 	4933 	0.052414
39.45 	0.050152 	4925 	0.049320
39.47 	0.050985 	4923 	0.050152
39.49 	0.053923 	4933 	0.052616
39.51 	0.051990 	4924 	0.051138
39.53 	0.058704 	4923 	0.058228
39.55 	0.052043 	4919 	0.051448
39.57 	0.047233 	4933 	0.046520
39.59 	0.053135 	4912 	0.052400
39.61 	0.054032 	4923 	0.053437
39.63 	0.058106 	4922 	0.057273
39.65 	0.056638 	4926 	0.055925
39.67 	0.052921 	4913 	0.052067
39.69 	0.060415 	4916 	0.059085
39.71 	0.053115 	4895 	0.051440
39.73 	0.057253 	4908 	0.056060
39.75 	0.053571 	4928 	0.053215
39.77 	0.059169 	4935 	0.058457
39.79 	0.062525 	4926 	0.061812
39.81 	0.054597 	4927 	0.054359
39.83 	0.056141 	4934 	0.055053
39.85 	0.059671 	4927 	0.059196
39.87 	0.056041 	4925 	0.055089
39.89 	0.053101 	4934 	0.052151
39.91 	0.057091 	4922 	0.056327
39.93 	0.056512 	4937 	0.055326
39.95 	0.054323 	4915 	0.053489
39.97 	0.059050 	4928 	0.058218
39.99 	0.051095 	4932 	0.050501
40.01 	0.052664 	4918 	0.051711
40.03 	0.058442 	4928 	0.057609
40.05 	0.047183 	4917 	0.046468
40.07 	0.054845 	4923 	0.053893
40.09 	0.051261 	4916 	0.050665
40.11 	0.057974 	4916 	0.056902
40.13 	0.049224 	4896 	0.048865
40.15 	0.055363 	4913 	0.054290
40.17 	0.059456 	4928 	0.058149
40.19 	0.054372 	4929 	0.052946
40.21 	0.053293 	4935 	0.051750
40.23 	0.051906 	4932 	0.051075
40.25 	0.055285 	4920 	0.054213
40.27 	0.054689 	4937 	0.054096
40.29 	0.051350 	4927 	0.050755
40.31 	0.047985 	4939 	0.047392
40.33 	0.052514 	4932 	0.051683
40.35 	0.043911 	4919 	0.043435
40.37 	0.047271 	4929 	0.046320
40.39 	0.054756 	4931 	0.054043
40.41 	0.049543 	4925 	0.048829
40.43 	0.049980 	4922 	0.049147
40.45 	0.048652 	4933 	0.048296
40.47 	0.053477 	4918 	0.052881
40.49 	0.046488 	4926 	0.045656
40.51 	0.049167 	4922 	0.047977
40.53 	0.047193 	4916 	0.046577
40.55 	0.049715 	4908 	0.048999
40.57 	0.046626 	4890 	0.045428
40.59 	0.051853 	4937 	0.051141
40.61 	0.052077 	4935 	0.051484
40.63 	0.046653 	4930 	0.045327
40.65 	0.051246 	4937 	0.050771
40.67 	0.046837 	4932 	0.046362
40.69 	0.050435 	4937 	0.049486
40.71 	0.050689 	4932 	0.049858
40.73 	0.049330 	4926 	0.048617
40.75 	0.052525 	4931 	0.051931
40.77 	0.053452 	4939 	0.052740
40.79 	0.047929 	4924 	0.047096
40.81 	0.044323 	4941 	0.043493
40.83 	0.055195 	4928 	0.053887
40.85 	0.053615 	4924 	0.052901
40.87 	0.049513 	4928 	0.048919
40.89 	0.053133 	4931 	0.052539
40.91 	0.052813 	4923 	0.052099
40.93 	0.051074 	4934 	0.050481
40.95 	0.051089 	4913 	0.050850
40.97 	0.048538 	4924 	0.047943
40.99 	0.050569 	4924 	0.049498
41.01 	0.046621 	4912 	0.045647
41.03 	0.051172 	4905 	0.050336
41.05 	0.047002 	4936 	0.046171
41.07 	0.048682 	4930 	0.047830
41.09 	0.046973 	4939 	0.046380
41.11 	0.054306 	4935 	0.053712
41.13 	0.050851 	4936 	0.049308
41.15 	0.050799 	4941 	0.049831
41.17 	0.057357 	4934 	0.056051
41.19 	0.050507 	4930 	0.049794
41.21 	0.046182 	4937 	0.045470
41.23 	0.053250 	4939 	0.052538
41.25 	0.053112 	4933 	0.052142
41.27 	0.051105 	4931 	0.050986
41.29 	0.052963 	4928 	0.052249
41.31 	0.051287 	4933 	0.049981
41.33 	0.053474 	4937 	0.052525
41.35 	0.057716 	4938 	0.056885
41.37 	0.050569 	4924 	0.049617
41.39 	0.052706 	4933 	0.052231
41.41 	0.059886 	4926 	0.059054
41.43 	0.045242 	4929 	0.044529
41.45 	0.050265 	4914 	0.049549
41.47 	0.048315 	4926 	0.048077
41.49 	0.048038 	4892 	0.047439
41.51 	0.048785 	4940 	0.048311
41.53 	0.047330 	4944 	0.046975
41.55 	0.044377 	4935 	0.044021
41.57 	0.044121 	4941 	0.043528
41.59 	0.051693 	4933 	0.051218
41.61 	0.048455 	4953 	0.047982
41.63 	0.049008 	4938 	0.048177
41.65 	0.048286 	4929 	0.047573
41.67 	0.050000 	4940 	0.049051
41.69 	0.050738 	4947 	0.050027
41.71 	0.046413 	4934 	0.045938
41.73 	0.049230 	4936 	0.048637
41.75 	0.044431 	4929 	0.043579
41.77 	0.044121 	4941 	0.043390
41.79 	0.046926 	4944 	0.045622
41.81 	0.041734 	4936 	0.041497
41.83 	0.046266 	4928 	0.045078
41.85 	0.052035 	4939 	0.051323
41.87 	0.047011 	4935 	0.046180
41.89 	0.048449 	4933 	0.047974
41.91 	0.048420 	4936 	0.047313
41.93 	0.044809 	4932 	0.044572
41.95 	0.048266 	4931 	0.047434
41.97 	0.046602 	4914 	0.045648
41.99 	0.045668 	4905 	0.044812
42.01 	0.046742 	4942 	0.045912
42.03 	0.050618 	4939 	0.049906
42.05 	0.056543 	4952 	0.055833
42.07 	0.044561 	4937 	0.044443
42.09 	0.052749 	4948 	0.052275
42.11 	0.043478 	4945 	0.043004
42.13 	0.043478 	4945 	0.043004
42.15 	0.049818 	4938 	0.049225
42.17 	0.045140 	4918 	0.044545
42.19 	0.045232 	4908 	0.044397
42.21 	0.042848 	4901 	0.042848
42.23 	0.048446 	4892 	0.047728
42.25 	0.042544 	4889 	0.041446
42.27 	0.051293 	4874 	0.050451
42.29 	0.047913 	4863 	0.047311
42.31 	0.049228 	4855 	0.048383
42.33 	0.042615 	4834 	0.042009
42.35 	0.040926 	4838 	0.039957
42.37 	0.043685 	4830 	0.043079
42.39 	0.037677 	4804 	0.037311
42.41 	0.053913 	4804 	0.052938
42.43 	0.049040 	4792 	0.048307
42.45 	0.046901 	4776 	0.046656
42.47 	0.048898 	4765 	0.047915
42.49 	0.047849 	4765 	0.047480
42.51 	0.047438 	4743 	0.046944
42.53 	0.049915 	4728 	0.049296
42.55 	0.047791 	4708 	0.047169
42.57 	0.044609 	4730 	0.043990
42.59 	0.041658 	4729 	0.041162
42.61 	0.042268 	4708 	0.042268
42.63 	0.050754 	4709 	0.049883
42.65 	0.041409 	4685 	0.041284
42.67 	0.043339 	4684 	0.042714
42.69 	0.046641 	4674 	0.046140
42.71 	0.041175 	4663 	0.040798
42.73 	0.045905 	4640 	0.045274
42.75 	0.044618 	4617 	0.044237
42.77 	0.046087 	4600 	0.045578
42.79 	0.052379 	4582 	0.051612
42.81 	0.048224 	4562 	0.047582
42.83 	0.049162 	4536 	0.048646
42.85 	0.046157 	4528 	0.045769
42.87 	0.040898 	4499 	0.040507
42.89 	0.050446 	4480 	0.050054
42.91 	0.049147 	4456 	0.048358
42.93 	0.048358 	4446 	0.047831
42.95 	0.045290 	4416 	0.044759
42.97 	0.047035 	4401 	0.046369
42.99 	0.048575 	4385 	0.047773
43.01 	0.048590 	4363 	0.048188
43.03 	0.039465 	4333 	0.039465
43.05 	0.043931 	4325 	0.043660
43.07 	0.049115 	4296 	0.048706
43.09 	0.052767 	4283 	0.051946
43.11 	0.047944 	4255 	0.047393
43.13 	0.043663 	4237 	0.043248
43.15 	0.044698 	4206 	0.044280
43.17 	0.050012 	4179 	0.049311
43.19 	0.049356 	4194 	0.048239
43.21 	0.043145 	4172 	0.042022
43.23 	0.051035 	4154 	0.050189
43.25 	0.041838 	4135 	0.040988
43.27 	0.050426 	4105 	0.049856
43.29 	0.045366 	4100 	0.045080
43.31 	0.051974 	4079 	0.051255
43.33 	0.048136 	4051 	0.047413
43.35 	0.045635 	4032 	0.045344
43.37 	0.044583 	4015 	0.044145
43.39 	0.048976 	4002 	0.048097
43.41 	0.048338 	3972 	0.047601
43.43 	0.041667 	3960 	0.041051
43.45 	0.047522 	3935 	0.047076
43.47 	0.051007 	3921 	0.050410
43.49 	0.045933 	3897 	0.044881
43.51 	0.047201 	3877 	0.045968
43.53 	0.046596 	3863 	0.045838
43.55 	0.051619 	2964 	0.051224
43.57 	0.052726 	2238 	0.050632
43.59 	0.040664 	1746 	0.040329
43.61 	0.034049 	1351 	0.033182
43.63 	0.042957 	1001 	0.041787
43.65 	0.048035 	687 	0.048035
43.67 	0.043825 	502 	0.042658
43.69 	0.068120 	367 	0.068120
43.71 	0.062762 	239 	0.057860
43.73 	0.025000 	120 	0.025000
43.75 	0.250000 	16 	0.250000