File: Example_Data/25SC_s1_0045.001.dat
#F C:\frames\spec\25SC_s1_0045.001
#C title =s:45 frm:1 25SC_s1
#C wavelength =0.15406

#S 1  fr_average C:\frames\spec\25SC_s1_0045.001 C:\win32app\speccom\mask.axs chi 0 180 0 360 0.02
#C 2 theta =0.000000 to 180 deg
#C   q   =0.000000 to 81.568 nm^-1
#C  chi  =0.000000 to 360 deg
#C collumns:
#C  1 position (2theta or chi in degrees)
#C  2 average intensity (sum of all counts in the region divided with number of pixels)
#C  3 Number of pixels in region)
#C  4 error (sum of sqrt(intensity) for all pixels divided by number)
#N 4
#L TTh  Int  N_pix  Err
32.99 	0.098361 	61 	0.088758
33.01 	0.049255 	873 	0.049255
33.03 	0.062545 	1391 	0.061282
33.05 	0.077405 	1757 	0.075071
33.07 	0.046829 	2050 	0.046258
33.09 	0.050703 	2347 	0.050204
33.11 	0.064754 	2579 	0.063618
33.13 	0.061583 	2793 	0.059485
33.15 	0.069023 	2999 	0.067265
33.17 	0.062168 	3201 	0.061436
33.19 	0.066427 	3342 	0.065376
33.21 	0.056170 	3436 	0.054806
33.23 	0.054215 	3523 	0.053550
33.25 	0.058416 	3612 	0.056768
33.27 	0.055372 	3630 	0.054726
33.29 	0.054276 	3648 	0.053634
33.31 	0.052459 	3660 	0.051979
33.33 	0.064297 	3686 	0.063503
33.35 	0.061992 	3694 	0.061041
33.37 	0.061389 	3714 	0.060285
33.39 	0.059265 	3729 	0.058166
33.41 	0.059626 	3740 	0.058529
33.43 	0.057166 	3761 	0.056387
33.45 	0.059634 	3773 	0.059013
33.47 	0.055556 	3798 	0.054939
33.49 	0.058283 	3809 	0.057053
33.51 	0.059502 	3815 	0.058888
33.53 	0.062223 	3841 	0.061461
33.55 	0.058028 	3843 	0.057418
33.57 	0.059582 	3877 	0.058978
33.59 	0.064433 	3880 	0.062923
33.61 	0.055257 	3909 	0.053884
33.63 	0.055371 	3919 	0.054474
33.65 	0.053676 	3931 	0.052484
33.67 	0.059939 	3954 	0.058902
33.69 	0.060966 	3953 	0.060053
33.71 	0.058616 	3975 	0.057437
33.73 	0.058691 	4004 	0.057228
33.75 	0.057514 	3999 	0.056782
33.77 	0.055404 	4025 	0.054967
33.79 	0.057412 	4041 	0.056832
33.81 	0.057949 	4038 	0.057079
33.83 	0.059012 	4050 	0.058578
33.85 	0.059283 	4099 	0.057854
33.87 	0.059596 	4111 	0.058599
33.89 	0.064305 	4121 	0.062883
33.91 	0.060255 	4149 	0.059267
33.93 	0.055890 	4151 	0.055326
33.95 	0.054293 	4181 	0.052729
33.97 	0.061575 	4190 	0.060037
33.99 	0.063095 	4200 	0.061840
34.01 	0.054593 	4213 	0.053759
34.03 	0.053252 	4244 	0.052562
34.05 	0.065851 	4252 	0.064313
34.07 	0.058810 	4268 	0.057986
34.09 	0.058329 	4286 	0.057919
34.11 	0.061832 	4302 	0.060742
34.13 	0.055246 	4308 	0.054680
34.15 	0.060956 	4331 	0.060144
34.17 	0.060690 	4350 	0.059882
34.19 	0.058230 	4362 	0.057537
34.21 	0.055594 	4371 	0.054924
34.23 	0.056226 	4393 	0.055026
34.25 	0.054950 	4404 	0.054152
34.27 	0.060832 	4422 	0.059772
34.29 	0.060203 	4435 	0.058464
34.31 	0.055406 	4458 	0.054355
34.33 	0.056363 	4471 	0.055315
34.35 	0.059099 	4484 	0.058185
34.37 	0.056780 	4491 	0.055867
34.39 	0.057974 	4502 	0.057063
34.41 	0.057888 	4526 	0.056982
34.43 	0.055959 	4539 	0.055314
34.45 	0.057552 	4535 	0.057165
34.47 	0.058580 	4592 	0.057283
34.49 	0.059169 	4597 	0.058150
34.51 	0.057968 	4606 	0.056930
34.53 	0.054491 	4643 	0.053481
34.55 	0.059229 	4643 	0.057715
34.57 	0.053004 	4660 	0.051852
34.59 	0.052620 	4675 	0.051493
34.61 	0.058122 	4697 	0.057499
34.63 	0.054777 	4710 	0.054031
34.65 	0.056768 	4721 	0.055506
34.67 	0.064332 	4741 	0.063468
34.69 	0.062263 	4754 	0.061647
34.71 	0.058540 	4766 	0.057065
34.73 	0.051807 	4787 	0.051073
34.75 	0.056156 	4808 	0.055060
34.77 	0.053342 	4818 	0.052004
34.79 	0.056799 	4824 	0.055706
34.81 	0.054076 	4845 	0.052867
34.83 	0.050185 	4862 	0.049583
34.85 	0.058944 	4869 	0.057982
34.87 	0.055259 	4868 	0.054416
34.89 	0.059197 	4882 	0.058237
34.91 	0.061860 	4882 	0.060900
34.93 	0.053480 	4899 	0.052643
34.95 	0.055828 	4890 	0.054630
34.97 	0.062831 	4902 	0.061756
34.99 	0.053706 	4897 	0.053228
35.01 	0.048345 	4923 	0.047274
35.03 	0.053004 	4943 	0.052175
35.05 	0.059430 	4947 	0.058226
35.07 	0.051822 	4940 	0.051229
35.09 	0.057743 	4953 	0.056797
35.11 	0.055185 	4947 	0.054593
35.13 	0.061113 	4958 	0.060050
35.15 	0.056715 	4937 	0.055765
35.17 	0.055600 	4946 	0.054535
35.19 	0.056050 	4942 	0.054509
35.21 	0.057634 	4945 	0.056568
35.23 	0.054803 	4945 	0.054211
35.25 	0.059276 	4943 	0.058071
35.27 	0.058812 	4948 	0.057628
35.29 	0.060465 	4945 	0.059636
35.31 	0.056963 	4933 	0.056013
35.33 	0.051386 	4943 	0.050438
35.35 	0.053824 	4942 	0.053113
35.37 	0.054667 	4939 	0.053837
35.39 	0.060465 	4945 	0.059399
35.41 	0.055826 	4926 	0.054875
35.43 	0.058382 	4933 	0.056443
35.45 	0.061171 	4937 	0.060577
35.47 	0.054350 	4931 	0.053875
35.49 	0.049898 	4910 	0.049063
35.51 	0.053593 	4926 	0.052404
35.53 	0.058194 	4949 	0.056872
35.55 	0.058241 	4945 	0.057530
35.57 	0.058990 	4933 	0.058397
35.59 	0.057634 	4945 	0.057160
35.61 	0.055645 	4942 	0.055053
35.63 	0.056848 	4943 	0.056019
35.65 	0.053387 	4945 	0.052440
35.67 	0.061311 	4942 	0.059770
35.69 	0.063688 	4946 	0.063096
35.71 	0.052664 	4937 	0.051833
35.73 	0.054700 	4936 	0.053513
35.75 	0.064287 	4931 	0.063218
35.77 	0.054736 	4951 	0.053672
35.79 	0.060219 	4932 	0.059269
35.81 	0.057774 	4933 	0.056824
35.83 	0.057016 	4946 	0.056068
35.85 	0.059169 	4935 	0.058457
35.87 	0.052204 	4923 	0.051490
35.89 	0.057357 	4934 	0.056051
35.91 	0.058047 	4927 	0.057453
35.93 	0.052973 	4927 	0.052260
35.95 	0.062233 	4917 	0.061518
35.97 	0.053339 	4912 	0.052146
35.99 	0.052845 	4939 	0.052252
36.01 	0.052738 	4930 	0.052263
36.03 	0.059680 	4943 	0.058120
36.05 	0.056016 	4945 	0.055542
36.07 	0.054060 	4939 	0.053704
36.09 	0.056478 	4940 	0.056122
36.11 	0.059241 	4929 	0.058885
36.13 	0.056860 	4942 	0.055793
36.15 	0.063171 	4939 	0.062459
36.17 	0.060711 	4925 	0.059878
36.19 	0.059919 	4940 	0.059208
36.21 	0.054981 	4929 	0.054505
36.23 	0.055319 	4935 	0.054488
36.25 	0.054847 	4941 	0.053662
36.27 	0.063147 	4925 	0.061819
36.29 	0.055364 	4931 	0.054295
36.31 	0.057021 	4928 	0.056189
36.33 	0.063450 	4933 	0.062381
36.35 	0.058024 	4929 	0.056835
36.37 	0.059110 	4923 	0.058277
36.39 	0.056086 	4921 	0.054738
36.41 	0.062704 	4896 	0.061867
36.43 	0.052963 	4928 	0.051378
36.45 	0.057809 	4930 	0.056740
36.47 	0.052674 	4936 	0.052318
36.49 	0.060704 	4942 	0.059756
36.51 	0.057166 	4933 	0.056572
36.53 	0.065750 	4943 	0.064920
36.55 	0.057642 	4927 	0.056928
36.57 	0.058979 	4934 	0.058266
36.59 	0.057097 	4939 	0.056504
36.61 	0.055770 	4931 	0.054938
36.63 	0.061448 	4931 	0.060260
36.65 	0.055758 	4932 	0.054452
36.67 	0.062677 	4930 	0.061846
36.69 	0.060256 	4929 	0.059305
36.71 	0.056086 	4921 	0.055610
36.73 	0.061523 	4925 	0.060571
36.75 	0.063714 	4944 	0.062410
36.77 	0.053060 	4919 	0.051273
36.79 	0.060557 	4921 	0.059485
36.81 	0.061432 	4916 	0.060479
36.83 	0.059817 	4915 	0.058486
36.85 	0.057779 	4898 	0.056702
36.87 	0.057848 	4944 	0.057019
36.89 	0.057771 	4916 	0.056817
36.91 	0.060312 	4941 	0.059719
36.93 	0.054767 	4930 	0.054173
36.95 	0.056355 	4933 	0.055524
36.97 	0.053912 	4934 	0.053180
36.99 	0.056535 	4935 	0.055803
37.01 	0.061220 	4933 	0.060152
37.03 	0.060520 	4924 	0.060163
37.05 	0.058047 	4927 	0.056977
37.07 	0.064235 	4935 	0.063167
37.09 	0.061485 	4928 	0.060178
37.11 	0.062006 	4935 	0.060700
37.13 	0.057677 	4924 	0.056844
37.15 	0.054390 	4909 	0.053555
37.17 	0.049858 	4934 	0.049265
37.19 	0.054213 	4925 	0.052905
37.21 	0.061216 	4917 	0.059787
37.23 	0.058357 	4918 	0.057762
37.25 	0.054164 	4911 	0.053091
37.27 	0.056804 	4894 	0.055707
37.29 	0.054361 	4930 	0.053510
37.31 	0.050253 	4935 	0.049660
37.33 	0.047696 	4927 	0.046983
37.35 	0.056298 	4938 	0.055349
37.37 	0.052973 	4927 	0.052260
37.39 	0.054147 	4931 	0.052840
37.41 	0.053742 	4931 	0.052554
37.43 	0.053528 	4932 	0.052558
37.45 	0.055443 	4924 	0.054729
37.47 	0.055589 	4929 	0.053926
37.49 	0.060532 	4923 	0.058866
37.51 	0.050071 	4933 	0.049715
37.53 	0.050010 	4919 	0.049415
37.55 	0.051724 	4930 	0.050873
37.57 	0.049340 	4925 	0.048983
37.59 	0.055137 	4915 	0.054541
37.61 	0.058310 	4922 	0.056881
37.63 	0.054483 	4919 	0.053173
37.65 	0.055714 	4918 	0.054880
37.67 	0.057504 	4904 	0.056548
37.69 	0.049816 	4898 	0.049099
37.71 	0.055995 	4929 	0.055044
37.73 	0.054981 	4929 	0.054862
37.75 	0.053644 	4940 	0.052201
37.77 	0.052236 	4920 	0.051760
37.79 	0.054361 	4930 	0.053648
37.81 	0.053923 	4933 	0.053091
37.83 	0.052846 	4920 	0.052250
37.85 	0.049777 	4922 	0.049062
37.87 	0.052642 	4939 	0.051931
37.89 	0.054416 	4925 	0.053703
37.91 	0.054767 	4930 	0.053816
37.93 	0.052856 	4919 	0.051784
37.95 	0.059947 	4921 	0.059094
37.97 	0.053561 	4929 	0.052847
37.99 	0.058836 	4912 	0.058120
38.01 	0.052760 	4928 	0.052165
38.03 	0.048279 	4909 	0.047682
38.05 	0.050355 	4925 	0.049642
38.07 	0.054594 	4909 	0.053997
38.09 	0.057606 	4878 	0.056885
38.11 	0.061803 	4935 	0.061091
38.13 	0.056917 	4937 	0.056205
38.15 	0.062017 	4918 	0.061064
38.17 	0.056187 	4930 	0.055593
38.19 	0.059838 	4930 	0.058155
38.21 	0.063376 	4923 	0.062424
38.23 	0.059336 	4938 	0.058268
38.25 	0.054098 	4917 	0.053860
38.27 	0.059026 	4930 	0.058432
38.29 	0.065394 	4924 	0.064442
38.31 	0.065354 	4927 	0.063789
38.33 	0.064582 	4924 	0.063035
38.35 	0.067573 	4928 	0.066147
38.37 	0.075345 	4924 	0.073799
38.39 	0.075168 	4909 	0.073358
38.41 	0.079626 	4923 	0.077822
38.43 	0.076282 	4916 	0.074971
38.45 	0.079097 	4918 	0.076358
38.47 	0.076218 	4907 	0.073949
38.49 	0.074841 	4877 	0.073400
38.51 	0.075831 	4932 	0.073575
38.53 	0.082978 	4929 	0.080601
38.55 	0.070502 	4936 	0.069197
38.57 	0.065407 	4923 	0.064217
38.59 	0.067628 	4924 	0.066914
38.61 	0.065235 	4936 	0.063336
38.63 	0.064175 	4924 	0.063204
38.65 	0.067304 	4918 	0.065874
38.67 	0.059753 	4937 	0.058448
38.69 	0.065014 	4922 	0.063566
38.71 	0.063160 	4924 	0.062089
38.73 	0.062017 	4918 	0.060945
38.75 	0.056221 	4927 	0.055626
38.77 	0.058501 	4923 	0.057192
38.79 	0.051480 	4934 	0.050411
38.81 	0.052932 	4912 	0.051858
38.83 	0.053669 	4919 	0.052955
38.85 	0.050285 	4912 	0.049092
38.87 	0.047037 	4911 	0.046322
38.89 	0.051256 	4897 	0.050538
38.91 	0.043443 	4903 	0.043084
38.93 	0.050830 	4938 	0.050237
38.95 	0.049004 	4918 	0.048289
38.97 	0.051511 	4931 	0.050204
38.99 	0.043954 	4937 	0.043361
39.01 	0.050427 	4918 	0.049593
39.03 	0.047426 	4934 	0.046595
39.05 	0.045482 	4925 	0.045244
39.07 	0.045695 	4924 	0.044981
39.09 	0.044485 	4923 	0.044009
39.11 	0.052930 	4931 	0.051861
39.13 	0.048345 	4923 	0.047393
39.15 	0.048423 	4915 	0.047827
39.17 	0.049423 	4937 	0.049067
39.19 	0.045149 	4917 	0.045030
39.21 	0.039511 	4910 	0.039014
39.23 	0.048731 	4925 	0.047542
39.25 	0.046932 	4922 	0.046099
39.27 	0.042974 	4910 	0.042616
39.29 	0.042848 	4901 	0.042609
39.31 	0.052007 	4884 	0.050687
39.33 	0.042588 	4931 	0.042231
39.35 	0.041337 	4935 	0.041100
39.37 	0.042605 	4929 	0.041654
39.39 	0.043822 	4929 	0.043466
39.41 	0.045021 	4931 	0.044309
39.43 	0.044192 	4933 	0.043955
39.45 	0.043249 	4925 	0.042416
39.47 	0.049360 	4923 	0.048527
39.49 	0.051085 	4933 	0.050728
39.51 	0.040008 	4924 	0.039651
39.53 	0.042454 	4923 	0.042454
39.55 	0.041878 	4919 	0.041283
39.57 	0.040746 	4933 	0.040509
39.59 	0.041735 	4912 	0.041615
39.61 	0.045298 	4923 	0.044822
39.63 	0.041040 	4922 	0.040207
39.65 	0.045067 	4926 	0.044591
39.67 	0.040708 	4913 	0.039993
39.69 	0.043328 	4916 	0.042851
39.71 	0.042697 	4895 	0.042457
39.73 	0.044621 	4908 	0.044024
39.75 	0.042005 	4928 	0.041767
39.77 	0.046403 	4935 	0.045691
39.79 	0.045270 	4926 	0.044299
39.81 	0.043840 	4927 	0.043364
39.83 	0.047831 	4934 	0.046644
39.85 	0.042622 	4927 	0.042266
39.87 	0.045076 	4925 	0.044838
39.89 	0.046007 	4934 	0.045176
39.91 	0.047338 	4922 	0.046862
39.93 	0.046182 	4937 	0.045470
39.95 	0.043540 	4915 	0.043302
39.97 	0.042817 	4928 	0.042222
39.99 	0.045418 	4932 	0.045061
40.01 	0.038634 	4918 	0.038395
40.03 	0.047687 	4928 	0.046855
40.05 	0.038031 	4917 	0.037674
40.07 	0.041032 	4923 	0.040318
40.09 	0.040683 	4916 	0.040207
40.11 	0.045159 	4916 	0.045040
40.13 	0.039420 	4896 	0.038941
40.15 	0.043151 	4913 	0.042197
40.17 	0.046875 	4928 	0.046281
40.19 	0.039765 	4929 	0.039289
40.21 	0.045795 	4935 	0.044708
40.23 	0.045012 	4932 	0.044893
40.25 	0.041870 	4920 	0.041156
40.27 	0.039093 	4937 	0.038499
40.29 	0.045464 	4927 	0.044136
40.31 	0.040696 	4939 	0.040222
40.33 	0.043187 	4932 	0.042237
40.35 	0.042692 	4919 	0.042334
40.37 	0.046054 	4929 	0.045103
40.39 	0.040560 	4931 	0.039966
40.41 	0.047513 	4925 	0.046799
40.43 	0.038399 	4922 	0.038399
40.45 	0.046625 	4933 	0.046031
40.47 	0.040057 	4918 	0.039938
40.49 	0.040195 	4926 	0.039600
40.51 	0.036164 	4922 	0.035926
40.53 	0.042107 	4916 	0.041988
40.55 	0.041157 	4908 	0.040322
40.57 	0.045194 	4890 	0.043877
40.59 	0.042739 	4937 	0.042145
40.61 	0.041743 	4935 	0.041387
40.63 	0.042799 	4930 	0.042086
40.65 	0.044561 	4937 	0.043850
40.67 	0.039132 	4932 	0.038538
40.69 	0.043549 	4937 	0.042955
40.71 	0.041768 	4932 	0.041649
40.73 	0.040804 	4926 	0.040447
40.75 	0.040965 	4931 	0.040609
40.77 	0.044948 	4939 	0.044474
40.79 	0.049147 	4924 	0.047957
40.81 	0.044525 	4941 	0.043320
40.83 	0.039164 	4928 	0.038926
40.85 	0.047116 	4924 	0.046759
40.87 	0.044846 	4928 	0.044370
40.89 	0.038532 	4931 	0.038413
40.91 	0.044688 	4923 	0.044450
40.93 	0.042967 	4934 	0.042611
40.95 	0.041726 	4913 	0.041607
40.97 	0.042648 	4924 	0.041934
40.99 	0.047116 	4924 	0.046759
41.01 	0.044381 	4912 	0.044023
41.03 	0.046687 	4905 	0.046090
41.05 	0.041937 	4936 	0.041343
41.07 	0.040568 	4930 	0.040211
41.09 	0.044341 	4939 	0.043155
41.11 	0.041945 	4935 	0.041470
41.13 	0.041329 	4936 	0.040835
41.15 	0.041894 	4941 	0.041420
41.17 	0.036279 	4934 	0.036041
41.19 	0.038540 	4930 	0.038064
41.21 	0.038687 	4937 	0.038332
41.23 	0.040089 	4939 	0.039496
41.25 	0.039124 	4933 	0.038748
41.27 	0.043196 	4931 	0.042365
41.29 	0.046266 	4928 	0.045553
41.31 	0.044395 	4933 	0.043801
41.33 	0.039903 	4937 	0.039191
41.35 	0.038882 	4938 	0.038645
41.37 	0.041430 	4924 	0.041192
41.39 	0.039935 	4933 	0.039698
41.41 	0.043443 	4926 	0.043086
41.43 	0.038547 	4929 	0.038191
41.45 	0.040497 	4914 	0.040139
41.47 	0.042834 	4926 	0.042715
41.49 	0.041292 	4892 	0.041172
41.51 	0.045142 	4940 	0.044074
41.53 	0.038430 	4944 	0.038075
41.55 	0.039919 	4935 	0.039088
41.57 	0.042906 	4941 	0.041958
41.59 	0.033043 	4933 	0.032330
41.61 	0.038361 	4953 	0.037888
41.63 	0.040705 	4938 	0.040112
41.65 	0.040982 	4929 	0.040150
41.67 	0.041700 	4940 	0.041108
41.69 	0.039418 	4947 	0.039299
41.71 	0.042359 	4934 	0.042003
41.73 	0.040316 	4936 	0.039367
41.75 	0.038344 	4929 	0.037988
41.77 	0.041894 	4941 	0.040709
41.79 	0.040049 	4944 	0.039930
41.81 	0.042545 	4936 	0.042189
41.83 	0.038961 	4928 	0.038604
41.85 	0.037052 	4939 	0.036815
41.87 	0.036879 	4935 	0.036523
41.89 	0.035475 	4933 	0.035000
41.91 	0.043152 	4936 	0.042559
41.93 	0.040754 	4932 	0.040160
41.95 	0.037721 	4931 	0.037245
41.97 	0.040904 	4914 	0.039950
41.99 	0.044241 	4905 	0.043285
42.01 	0.035815 	4942 	0.035578
42.03 	0.037659 	4939 	0.037541
42.05 	0.041599 	4952 	0.041363
42.07 	0.037877 	4937 	0.037165
42.09 	0.037187 	4948 	0.037068
42.11 	0.033569 	4945 	0.033332
42.13 	0.040040 	4945 	0.039448
42.15 	0.037465 	4938 	0.037109
42.17 	0.037414 	4918 	0.037175
42.19 	0.033619 	4908 	0.033380
42.21 	0.042440 	4901 	0.041962
42.23 	0.040679 	4892 	0.039960
42.25 	0.040499 	4889 	0.040140
42.27 	0.036520 	4874 	0.036040
42.29 	0.038659 	4863 	0.038177
42.31 	0.040577 	4855 	0.039973
42.33 	0.037029 	4834 	0.036545
42.35 	0.038032 	4838 	0.038032
42.37 	0.040580 	4830 	0.040337
42.39 	0.039967 	4804 	0.039479
42.41 	0.031224 	4804 	0.031102
42.43 	0.038815 	4792 	0.038692
42.45 	0.040410 	4776 	0.040042
42.47 	0.039035 	4765 	0.038912
42.49 	0.037146 	4765 	0.036777
42.51 	0.034999 	4743 	0.034628
42.53 	0.036168 	4728 	0.035548
42.55 	0.039295 	4708 	0.038922
42.57 	0.036364 	4730 	0.035868
42.59 	0.039120 	4729 	0.038749
42.61 	0.035684 	4708 	0.035560
42.63 	0.034827 	4709 	0.034703
42.65 	0.034365 	4685 	0.033740
42.67 	0.037148 	4684 	0.036773
42.69 	0.038939 	4674 	0.038312
42.71 	0.039460 	4663 	0.038831
42.73 	0.037931 	4640 	0.037174
42.75 	0.036604 	4617 	0.036350
42.77 	0.032174 	4600 	0.031919
42.79 	0.042776 	4582 	0.042776
42.81 	0.037703 	4562 	0.037574
42.83 	0.039242 	4536 	0.039112
42.85 	0.037102 	4528 	0.036714
42.87 	0.039120 	4499 	0.038990
42.89 	0.035491 	4480 	0.034837
42.91 	0.041741 	4456 	0.041610
42.93 	0.041386 	4446 	0.040990
42.95 	0.038949 	4416 	0.038551
42.97 	0.039082 	4401 	0.038395
42.99 	0.034436 	4385 	0.033768
43.01 	0.042631 	4363 	0.041691
43.03 	0.038772 	4333 	0.038502
43.05 	0.040000 	4325 	0.039865
43.07 	0.037477 	4296 	0.037068
43.09 	0.035723 	4283 	0.035039
43.11 	0.033137 	4255 	0.033000
43.13 	0.044607 	4237 	0.044054
43.15 	0.036614 	4206 	0.036197
43.17 	0.039005 	4179 	0.038584
43.19 	0.040057 	4194 	0.039638
43.21 	0.038111 	4172 	0.038111
43.23 	0.036351 	4154 	0.035927
43.25 	0.034099 	4135 	0.033957
43.27 	0.034105 	4105 	0.033962
43.29 	0.040732 	4100 	0.040137
43.31 	0.040696 	4079 	0.039691
43.33 	0.040237 	4051 	0.039948
43.35 	0.041667 	4032 	0.040940
43.37 	0.035616 	4015 	0.035471
43.39 	0.035982 	4002 	0.034957
43.41 	0.034491 	3972 	0.034491
43.43 	0.044444 	3960 	0.043705
43.45 	0.036595 	3935 	0.036297
43.47 	0.037745 	3921 	0.037745
43.49 	0.035412 	3897 	0.035262
43.51 	0.034821 	3877 	0.034216
43.53 	0.036241 	3863 	0.035786
43.55 	0.035425 	2964 	0.035030
43.57 	0.034406 	2238 	0.034144
43.59 	0.030928 	1746 	0.030928
43.61 	0.039230 	1351 	0.038797
43.63 	0.034965 	1001 	0.034965
43.65 	0.033479 	687 	0.033479
43.67 	0.025896 	502 	0.025896
43.69 	0.024523 	367 	0.024523
43.71 	0.020921 	239 	0.020921
43.73 	0.050000 	120 	0.050000
43.75 	0.000000 	16 	0.000000