File: Example_Data/25SC_s1_0005.004.dat
#F C:\frames\spec\25SC_s1_0005.004
#C title =s:5 frm:4 25SC_s1
#C wavelength =0.15406

#S 1  fr_average C:\frames\spec\25SC_s1_0005.004 C:\win32app\speccom\mask.axs chi 0 180 0 360 0.02
#C 2 theta =0.000000 to 180 deg
#C   q   =0.000000 to 81.568 nm^-1
#C  chi  =0.000000 to 360 deg
#C collumns:
#C  1 position (2theta or chi in degrees)
#C  2 average intensity (sum of all counts in the region divided with number of pixels)
#C  3 Number of pixels in region)
#C  4 error (sum of sqrt(intensity) for all pixels divided by number)
#N 4
#L TTh  Int  N_pix  Err
32.99 	0.098361 	61 	0.098361
33.01 	0.064147 	873 	0.059339
33.03 	0.063264 	1391 	0.062843
33.05 	0.058054 	1757 	0.057720
33.07 	0.058537 	2050 	0.057108
33.09 	0.051129 	2347 	0.050630
33.11 	0.061264 	2579 	0.059901
33.13 	0.055854 	2793 	0.055225
33.15 	0.056352 	2999 	0.055099
33.17 	0.062793 	3201 	0.061878
33.19 	0.060144 	3342 	0.058888
33.21 	0.055297 	3436 	0.054103
33.23 	0.062447 	3523 	0.061283
33.25 	0.062846 	3612 	0.062035
33.27 	0.062259 	3630 	0.061613
33.29 	0.057018 	3648 	0.056054
33.31 	0.056557 	3660 	0.055757
33.33 	0.052903 	3686 	0.051949
33.35 	0.062263 	3694 	0.061153
33.37 	0.057351 	3714 	0.056247
33.39 	0.068383 	3729 	0.066655
33.41 	0.055615 	3740 	0.054988
33.43 	0.060888 	3761 	0.059642
33.45 	0.063080 	3773 	0.062459
33.47 	0.056872 	3798 	0.056564
33.49 	0.054870 	3809 	0.054562
33.51 	0.060288 	3815 	0.059060
33.53 	0.059880 	3841 	0.059245
33.55 	0.060630 	3843 	0.059715
33.57 	0.057777 	3877 	0.057323
33.59 	0.054381 	3880 	0.053174
33.61 	0.060629 	3909 	0.059730
33.63 	0.058178 	3919 	0.057132
33.65 	0.064106 	3931 	0.063063
33.67 	0.059939 	3954 	0.059050
33.69 	0.055401 	3953 	0.054067
33.71 	0.059874 	3975 	0.059137
33.73 	0.055944 	4004 	0.055505
33.75 	0.069017 	3999 	0.068285
33.77 	0.066087 	4025 	0.064486
33.79 	0.059886 	4041 	0.058726
33.81 	0.055473 	4038 	0.054893
33.83 	0.058765 	4050 	0.057898
33.85 	0.056599 	4099 	0.056170
33.87 	0.059353 	4111 	0.058356
33.89 	0.061393 	4121 	0.060682
33.91 	0.054471 	4149 	0.054330
33.93 	0.059986 	4151 	0.059139
33.95 	0.060033 	4181 	0.059193
33.97 	0.057995 	4190 	0.057296
33.99 	0.063095 	4200 	0.061840
34.01 	0.059815 	4213 	0.058563
34.03 	0.057729 	4244 	0.056900
34.05 	0.058325 	4252 	0.057476
34.07 	0.057873 	4268 	0.056752
34.09 	0.056230 	4286 	0.055000
34.11 	0.067411 	4302 	0.066299
34.13 	0.064763 	4308 	0.063675
34.15 	0.058185 	4331 	0.057644
34.17 	0.056322 	4350 	0.054684
34.19 	0.057313 	4362 	0.056507
34.21 	0.056966 	4371 	0.055604
34.23 	0.069884 	4393 	0.068550
34.25 	0.061081 	4404 	0.059751
34.27 	0.051108 	4422 	0.050711
34.29 	0.053213 	4435 	0.052289
34.31 	0.059444 	4458 	0.058655
34.33 	0.067546 	4471 	0.066367
34.35 	0.065120 	4484 	0.064075
34.37 	0.058339 	4491 	0.057035
34.39 	0.057308 	4502 	0.056007
34.41 	0.061423 	4526 	0.059999
34.43 	0.059264 	4539 	0.058232
34.45 	0.059757 	4535 	0.058165
34.47 	0.060540 	4592 	0.059775
34.49 	0.052425 	4597 	0.051534
34.51 	0.057968 	4606 	0.056823
34.53 	0.060306 	4643 	0.059297
34.55 	0.060952 	4643 	0.060573
34.57 	0.055794 	4660 	0.054914
34.59 	0.057968 	4675 	0.057216
34.61 	0.060677 	4697 	0.059305
34.63 	0.062633 	4710 	0.060767
34.65 	0.055709 	4721 	0.054592
34.67 	0.051466 	4741 	0.050477
34.69 	0.060370 	4754 	0.059261
34.71 	0.061057 	4766 	0.059337
34.73 	0.057865 	4787 	0.056886
34.75 	0.058028 	4808 	0.057175
34.77 	0.055832 	4818 	0.055224
34.79 	0.058250 	4824 	0.057400
34.81 	0.062951 	4845 	0.062105
34.83 	0.063965 	4862 	0.063002
34.85 	0.057301 	4869 	0.056940
34.87 	0.061216 	4868 	0.060494
34.89 	0.048751 	4882 	0.047791
34.91 	0.061655 	4882 	0.060435
34.93 	0.057767 	4899 	0.057049
34.95 	0.059714 	4890 	0.058755
34.97 	0.059160 	4902 	0.058323
34.99 	0.063304 	4897 	0.061749
35.01 	0.057079 	4923 	0.056127
35.03 	0.060692 	4943 	0.059507
35.05 	0.063877 	4947 	0.062338
35.07 	0.061943 	4940 	0.060995
35.09 	0.059358 	4953 	0.058038
35.11 	0.057409 	4947 	0.056580
35.13 	0.054861 	4958 	0.053778
35.15 	0.060968 	4937 	0.059426
35.17 	0.062273 	4946 	0.061207
35.19 	0.064549 	4942 	0.063601
35.21 	0.059858 	4945 	0.058555
35.23 	0.061881 	4945 	0.060815
35.25 	0.062108 	4943 	0.060804
35.27 	0.060226 	4948 	0.059042
35.29 	0.058241 	4945 	0.057411
35.31 	0.059801 	4933 	0.059089
35.33 	0.064536 	4943 	0.062995
35.35 	0.060299 	4942 	0.059233
35.37 	0.066005 	4939 	0.064938
35.39 	0.055814 	4945 	0.055103
35.41 	0.055420 	4926 	0.055182
35.43 	0.065072 	4933 	0.064478
35.45 	0.067247 	4937 	0.066061
35.47 	0.055770 	4931 	0.055156
35.49 	0.061914 	4910 	0.061079
35.51 	0.057653 	4926 	0.056226
35.53 	0.061629 	4949 	0.060918
35.55 	0.067341 	4945 	0.065919
35.57 	0.061626 	4933 	0.060676
35.59 	0.060667 	4945 	0.059700
35.61 	0.063537 	4942 	0.062944
35.63 	0.060692 	4943 	0.059625
35.65 	0.065116 	4945 	0.063675
35.67 	0.064346 	4942 	0.063280
35.69 	0.064092 	4946 	0.063500
35.71 	0.058740 	4937 	0.057791
35.73 	0.056524 	4936 	0.055930
35.75 	0.066112 	4931 	0.064667
35.77 	0.065239 	4951 	0.063682
35.79 	0.065693 	4932 	0.064506
35.81 	0.062639 	4933 	0.061333
35.83 	0.055196 	4946 	0.054012
35.85 	0.062209 	4935 	0.061615
35.87 	0.065001 	4923 	0.063692
35.89 	0.064856 	4934 	0.062937
35.91 	0.070022 	4927 	0.068001
35.93 	0.062310 	4927 	0.061458
35.95 	0.058776 	4917 	0.057823
35.97 	0.069625 	4912 	0.068175
35.99 	0.068030 	4939 	0.066844
36.01 	0.060243 	4930 	0.059055
36.03 	0.062513 	4943 	0.061565
36.05 	0.057836 	4945 	0.056987
36.07 	0.052845 	4939 	0.051896
36.09 	0.056680 	4940 	0.056087
36.11 	0.064313 	4929 	0.063600
36.13 	0.058681 	4942 	0.057258
36.15 	0.060539 	4939 	0.059590
36.17 	0.061726 	4925 	0.060160
36.19 	0.058907 	4940 	0.057464
36.21 	0.065328 	4929 	0.064496
36.23 	0.061398 	4935 	0.060211
36.25 	0.057681 	4941 	0.056377
36.27 	0.059289 	4925 	0.058695
36.29 	0.062259 	4931 	0.061665
36.31 	0.058847 	4928 	0.058134
36.33 	0.060815 	4933 	0.060102
36.35 	0.068168 	4929 	0.066385
36.37 	0.063579 	4923 	0.061318
36.39 	0.056696 	4921 	0.056101
36.41 	0.066176 	4896 	0.065219
36.43 	0.061688 	4928 	0.060500
36.45 	0.059229 	4930 	0.058754
36.47 	0.068679 	4936 	0.067235
36.49 	0.061918 	4942 	0.061444
36.51 	0.056355 	4933 	0.055761
36.53 	0.058264 	4943 	0.057790
36.55 	0.060483 	4927 	0.059651
36.57 	0.061208 	4934 	0.060496
36.59 	0.054464 	4939 	0.053733
36.61 	0.060840 	4931 	0.059533
36.63 	0.059420 	4931 	0.058431
36.65 	0.064274 	4932 	0.063324
36.67 	0.059838 	4930 	0.058768
36.69 	0.052546 	4929 	0.051358
36.71 	0.065231 	4921 	0.063902
36.73 	0.059289 	4925 	0.058576
36.75 	0.065939 	4944 	0.064616
36.77 	0.056312 	4919 	0.055240
36.79 	0.058321 	4921 	0.057607
36.81 	0.058381 	4916 	0.057428
36.83 	0.060834 	4915 	0.060119
36.85 	0.060841 	4898 	0.059386
36.87 	0.060275 	4944 	0.059683
36.89 	0.058991 	4916 	0.057899
36.91 	0.054038 	4941 	0.053563
36.93 	0.056998 	4930 	0.055810
36.95 	0.059396 	4933 	0.058308
36.97 	0.061005 	4934 	0.059324
36.99 	0.057548 	4935 	0.056599
37.01 	0.059193 	4933 	0.058718
37.03 	0.057474 	4924 	0.056522
37.05 	0.054597 	4927 	0.053527
37.07 	0.056940 	4935 	0.056347
37.09 	0.058644 	4928 	0.057793
37.11 	0.057548 	4935 	0.056955
37.13 	0.060520 	4924 	0.058854
37.15 	0.056834 	4909 	0.056238
37.17 	0.057965 	4934 	0.056778
37.19 	0.060102 	4925 	0.058774
37.21 	0.054708 	4917 	0.053636
37.23 	0.060797 	4918 	0.059249
37.25 	0.060680 	4911 	0.059468
37.27 	0.052922 	4894 	0.052323
37.29 	0.051927 	4930 	0.051689
37.31 	0.060385 	4935 	0.059673
37.33 	0.057642 	4927 	0.057047
37.35 	0.059538 	4938 	0.059301
37.37 	0.058250 	4927 	0.057537
37.39 	0.051916 	4931 	0.051322
37.41 	0.054756 	4931 	0.053449
37.43 	0.056367 	4932 	0.055298
37.45 	0.051584 	4924 	0.050632
37.47 	0.059444 	4929 	0.058375
37.49 	0.058298 	4923 	0.056731
37.51 	0.054531 	4933 	0.053304
37.53 	0.055499 	4919 	0.054785
37.55 	0.057809 	4930 	0.057096
37.57 	0.058274 	4925 	0.057422
37.59 	0.056358 	4915 	0.056001
37.61 	0.056075 	4922 	0.055004
37.63 	0.062411 	4919 	0.061339
37.65 	0.061407 	4918 	0.060692
37.67 	0.058524 	4904 	0.057568
37.69 	0.062066 	4898 	0.061109
37.71 	0.054372 	4929 	0.053184
37.73 	0.053763 	4929 	0.053050
37.75 	0.053846 	4940 	0.053135
37.77 	0.056707 	4920 	0.056112
37.79 	0.056592 	4930 	0.055761
37.81 	0.062639 	4933 	0.061333
37.83 	0.054675 	4920 	0.053960
37.85 	0.054246 	4922 	0.053275
37.87 	0.062968 	4939 	0.061664
37.89 	0.055635 	4925 	0.054802
37.91 	0.056592 	4930 	0.055879
37.93 	0.059972 	4919 	0.059257
37.95 	0.054054 	4921 	0.053102
37.97 	0.057821 	4929 	0.056989
37.99 	0.060668 	4912 	0.059475
38.01 	0.054586 	4928 	0.053754
38.03 	0.055816 	4909 	0.054384
38.05 	0.057665 	4925 	0.056832
38.07 	0.057853 	4909 	0.057137
38.09 	0.053711 	4878 	0.053350
38.11 	0.055724 	4935 	0.054637
38.13 	0.057525 	4937 	0.056101
38.15 	0.059374 	4918 	0.058659
38.17 	0.061258 	4930 	0.060426
38.19 	0.058621 	4930 	0.057551
38.21 	0.062970 	4923 	0.062137
38.23 	0.057108 	4938 	0.056515
38.25 	0.061013 	4917 	0.059583
38.27 	0.066329 	4930 	0.065616
38.29 	0.058083 	4924 	0.056874
38.31 	0.071037 	4927 	0.069353
38.33 	0.063566 	4924 	0.062238
38.35 	0.068182 	4928 	0.067350
38.37 	0.064785 	4924 	0.063714
38.39 	0.069057 	4909 	0.067864
38.41 	0.066017 	4923 	0.064946
38.43 	0.066314 	4916 	0.064527
38.45 	0.069947 	4918 	0.068756
38.47 	0.065417 	4907 	0.063984
38.49 	0.071560 	4877 	0.070840
38.51 	0.066099 	4932 	0.064417
38.53 	0.071414 	4929 	0.069988
38.55 	0.063817 	4936 	0.062867
38.57 	0.069673 	4923 	0.067254
38.59 	0.062754 	4924 	0.061921
38.61 	0.058144 	4936 	0.056601
38.63 	0.060520 	4924 	0.058716
38.65 	0.059170 	4918 	0.058218
38.67 	0.058740 	4937 	0.058028
38.69 	0.063389 	4922 	0.061792
38.71 	0.057677 	4924 	0.056606
38.73 	0.054900 	4918 	0.053709
38.75 	0.054597 	4927 	0.054122
38.77 	0.053423 	4923 	0.052590
38.79 	0.054114 	4934 	0.053165
38.81 	0.052117 	4912 	0.051402
38.83 	0.061801 	4919 	0.060610
38.85 	0.056800 	4912 	0.056084
38.87 	0.052535 	4911 	0.051223
38.89 	0.052481 	4897 	0.051524
38.91 	0.051805 	4903 	0.050849
38.93 	0.054881 	4938 	0.054287
38.95 	0.056934 	4918 	0.055465
38.97 	0.060434 	4931 	0.059484
38.99 	0.051853 	4937 	0.051141
39.01 	0.057544 	4918 	0.056829
39.03 	0.058168 	4934 	0.057099
39.05 	0.058477 	4925 	0.057645
39.07 	0.057067 	4924 	0.055759
39.09 	0.048548 	4923 	0.048072
39.11 	0.058812 	4931 	0.057980
39.13 	0.055048 	4923 	0.054453
39.15 	0.054730 	4915 	0.054254
39.17 	0.051043 	4937 	0.050331
39.19 	0.054708 	4917 	0.053755
39.21 	0.058045 	4910 	0.057090
39.23 	0.054619 	4925 	0.053668
39.25 	0.056684 	4922 	0.055851
39.27 	0.051527 	4910 	0.050792
39.29 	0.052846 	4901 	0.052110
39.31 	0.050573 	4884 	0.048994
39.33 	0.044413 	4931 	0.043819
39.35 	0.056535 	4935 	0.054992
39.37 	0.052140 	4929 	0.051071
39.39 	0.049300 	4929 	0.048211
39.41 	0.052322 	4931 	0.051966
39.43 	0.060815 	4933 	0.059865
39.45 	0.047919 	4925 	0.046948
39.47 	0.061345 	4923 	0.059897
39.49 	0.056152 	4933 	0.055321
39.51 	0.056255 	4924 	0.055046
39.53 	0.062157 	4923 	0.061443
39.55 	0.054889 	4919 	0.053579
39.57 	0.059193 	4933 	0.058599
39.59 	0.059853 	4912 	0.058899
39.61 	0.053829 	4923 	0.052282
39.63 	0.057903 	4922 	0.056594
39.65 	0.056841 	4926 	0.055890
39.67 	0.055770 	4913 	0.054817
39.69 	0.054516 	4916 	0.053563
39.71 	0.051277 	4895 	0.050180
39.73 	0.053382 	4908 	0.052547
39.75 	0.059862 	4928 	0.058436
39.77 	0.063019 	4935 	0.062050
39.79 	0.066991 	4926 	0.066397
39.81 	0.058859 	4927 	0.057789
39.83 	0.060397 	4934 	0.059329
39.85 	0.064339 	4927 	0.063269
39.87 	0.060305 	4925 	0.059234
39.89 	0.058370 	4934 	0.056827
39.91 	0.055872 	4922 	0.054681
39.93 	0.050841 	4937 	0.050247
39.95 	0.059003 	4915 	0.057792
39.97 	0.054992 	4928 	0.054635
39.99 	0.059408 	4932 	0.058339
40.01 	0.056527 	4918 	0.055931
40.03 	0.059862 	4928 	0.059149
40.05 	0.065487 	4917 	0.063938
40.07 	0.050985 	4923 	0.050271
40.09 	0.052889 	4916 	0.052889
40.11 	0.057567 	4916 	0.056475
40.13 	0.055351 	4896 	0.054514
40.15 	0.053531 	4913 	0.052816
40.17 	0.054992 	4928 	0.054160
40.19 	0.051938 	4929 	0.051106
40.21 	0.057953 	4935 	0.057241
40.23 	0.051095 	4932 	0.050620
40.25 	0.052033 	4920 	0.050961
40.27 	0.052258 	4937 	0.051902
40.29 	0.058047 	4927 	0.057215
40.31 	0.054060 	4939 	0.053585
40.33 	0.051500 	4932 	0.051025
40.35 	0.052450 	4919 	0.051854
40.37 	0.056198 	4929 	0.055247
40.39 	0.052119 	4931 	0.051288
40.41 	0.051777 	4925 	0.050944
40.43 	0.049573 	4922 	0.048859
40.45 	0.052706 	4933 	0.051994
40.47 	0.052664 	4918 	0.051473
40.49 	0.049127 	4926 	0.047938
40.51 	0.052011 	4922 	0.051416
40.53 	0.059805 	4916 	0.058851
40.55 	0.050733 	4908 	0.050495
40.57 	0.049080 	4890 	0.048481
40.59 	0.050233 	4937 	0.049402
40.61 	0.049443 	4935 	0.048612
40.63 	0.050101 	4930 	0.049745
40.65 	0.058740 	4937 	0.057791
40.67 	0.055353 	4932 	0.054640
40.69 	0.048613 	4937 	0.048138
40.71 	0.050689 	4932 	0.050096
40.73 	0.050548 	4926 	0.049716
40.75 	0.055161 	4931 	0.054092
40.77 	0.056489 	4939 	0.055659
40.79 	0.045491 	4924 	0.044382
40.81 	0.052621 	4941 	0.052147
40.83 	0.058847 	4928 	0.058253
40.85 	0.055646 	4924 	0.054813
40.87 	0.053774 	4928 	0.052348
40.89 	0.055364 	4931 	0.054532
40.91 	0.056673 	4923 	0.055582
40.93 	0.057965 	4934 	0.057015
40.95 	0.055770 	4913 	0.054817
40.97 	0.047725 	4924 	0.046635
40.99 	0.050366 	4924 	0.049533
41.01 	0.056596 	4912 	0.055046
41.03 	0.055454 	4905 	0.054240
41.05 	0.054498 	4936 	0.053429
41.07 	0.052130 	4930 	0.051655
41.09 	0.058514 	4939 	0.057328
41.11 	0.056535 	4935 	0.055111
41.13 	0.048217 	4936 	0.047742
41.15 	0.055657 	4941 	0.054234
41.17 	0.055736 	4934 	0.054786
41.19 	0.053955 	4930 	0.052985
41.21 	0.054689 	4937 	0.053859
41.23 	0.050618 	4939 	0.049669
41.25 	0.055342 	4933 	0.054035
41.27 	0.053944 	4931 	0.053232
41.29 	0.051339 	4928 	0.050151
41.31 	0.054125 	4933 	0.053413
41.33 	0.048613 	4937 	0.048019
41.35 	0.048805 	4938 	0.048449
41.37 	0.055240 	4924 	0.054526
41.39 	0.052504 	4933 	0.051554
41.41 	0.051969 	4926 	0.050661
41.43 	0.047271 	4929 	0.046796
41.45 	0.056370 	4914 	0.055416
41.47 	0.049127 	4926 	0.048532
41.49 	0.052330 	4892 	0.051492
41.51 	0.056883 	4940 	0.055183
41.53 	0.049555 	4944 	0.048963
41.55 	0.049848 	4935 	0.049611
41.57 	0.045740 	4941 	0.045147
41.59 	0.049868 	4933 	0.049512
41.61 	0.056733 	4953 	0.055314
41.63 	0.047995 	4938 	0.047264
41.65 	0.052952 	4929 	0.052714
41.67 	0.046559 	4940 	0.046084
41.69 	0.056802 	4947 	0.056092
41.71 	0.049858 	4934 	0.049265
41.73 	0.052066 	4936 	0.050860
41.75 	0.056604 	4929 	0.055415
41.77 	0.046347 	4941 	0.046228
41.79 	0.051173 	4944 	0.050581
41.81 	0.048217 	4936 	0.047723
41.83 	0.049107 	4928 	0.048493
41.85 	0.053857 	4939 	0.052790
41.87 	0.047619 	4935 	0.046907
41.89 	0.049868 	4933 	0.049156
41.91 	0.051661 	4936 	0.051187
41.93 	0.060219 	4932 	0.059388
41.95 	0.053539 	4931 	0.052945
41.97 	0.047823 	4914 	0.047227
41.99 	0.051580 	4905 	0.050863
42.01 	0.044314 	4942 	0.043247
42.03 	0.048593 	4939 	0.047506
42.05 	0.055937 	4952 	0.054872
42.07 	0.050638 	4937 	0.050282
42.09 	0.053961 	4948 	0.053014
42.11 	0.053387 	4945 	0.052321
42.13 	0.051972 	4945 	0.050906
42.15 	0.048805 	4938 	0.048449
42.17 	0.052664 	4918 	0.052068
42.19 	0.047677 	4908 	0.047300
42.21 	0.051010 	4901 	0.050412
42.23 	0.042723 	4892 	0.042124
42.25 	0.045408 	4889 	0.044689
42.27 	0.046163 	4874 	0.045923
42.29 	0.044417 	4863 	0.044056
42.31 	0.045726 	4855 	0.045123
42.33 	0.047787 	4834 	0.047302
42.35 	0.043200 	4838 	0.042958
42.37 	0.043271 	4830 	0.042907
42.39 	0.055371 	4804 	0.054375
42.41 	0.050167 	4804 	0.049679
42.43 	0.048623 	4792 	0.048378
42.45 	0.052554 	4776 	0.051819
42.47 	0.044911 	4765 	0.044296
42.49 	0.042392 	4765 	0.042270
42.51 	0.049968 	4743 	0.048857
42.53 	0.051184 	4728 	0.050069
42.55 	0.051189 	4708 	0.050692
42.57 	0.053066 	4730 	0.052075
42.59 	0.049482 	4729 	0.048718
42.61 	0.045242 	4708 	0.044869
42.63 	0.046719 	4709 	0.046221
42.65 	0.054002 	4685 	0.053002
42.67 	0.048036 	4684 	0.047035
42.69 	0.050278 	4674 	0.049777
42.71 	0.044178 	4663 	0.043675
42.73 	0.046336 	4640 	0.045579
42.75 	0.048950 	4617 	0.048442
42.77 	0.046304 	4600 	0.045795
42.79 	0.050851 	4582 	0.050340
42.81 	0.045813 	4562 	0.044914
42.83 	0.050485 	4536 	0.049581
42.85 	0.046820 	4528 	0.045613
42.87 	0.051789 	4499 	0.051008
42.89 	0.050446 	4480 	0.049531
42.91 	0.047127 	4456 	0.046996
42.93 	0.045884 	4446 	0.045093
42.95 	0.049139 	4416 	0.048476
42.97 	0.048171 	4401 	0.047372
42.99 	0.046294 	4385 	0.045893
43.01 	0.048820 	4363 	0.048014
43.03 	0.043388 	4333 	0.042982
43.05 	0.047861 	4325 	0.047455
43.07 	0.054004 	4296 	0.053322
43.09 	0.046930 	4283 	0.045791
43.11 	0.047709 	4255 	0.047433
43.13 	0.043427 	4237 	0.043012
43.15 	0.054922 	4206 	0.054086
43.17 	0.044748 	4179 	0.044187
43.19 	0.047449 	4194 	0.046413
43.21 	0.045781 	4172 	0.045360
43.23 	0.051757 	4154 	0.051475
43.25 	0.051753 	4135 	0.051470
43.27 	0.042631 	4105 	0.042203
43.29 	0.043902 	4100 	0.043617
43.31 	0.047561 	4079 	0.046843
43.33 	0.051345 	4051 	0.049899
43.35 	0.052331 	4032 	0.051895
43.37 	0.049564 	4015 	0.048543
43.39 	0.048976 	4002 	0.048683
43.41 	0.050856 	3972 	0.049971
43.43 	0.047475 	3960 	0.046735
43.45 	0.042440 	3935 	0.041993
43.47 	0.052028 	3921 	0.050982
43.49 	0.047986 	3897 	0.047234
43.51 	0.045654 	3877 	0.044747
43.53 	0.047373 	3863 	0.046766
43.55 	0.051957 	2964 	0.051364
43.57 	0.046023 	2238 	0.045500
43.59 	0.042383 	1746 	0.041712
43.61 	0.050333 	1351 	0.049466
43.63 	0.048951 	1001 	0.048366
43.65 	0.059680 	687 	0.057974
43.67 	0.031873 	502 	0.031873
43.69 	0.046322 	367 	0.046322
43.71 	0.054393 	239 	0.054393
43.73 	0.075000 	120 	0.075000
43.75 	0.125000 	16 	0.125000