File: Example_Data/25SC_s1_0034.000.dat
#F C:\frames\spec\25SC_s1_0034.000
#C title =s:34 frm:0 25SC_s1
#C wavelength =0.15406

#S 1  fr_average C:\frames\spec\25SC_s1_0034.000 C:\win32app\speccom\mask.axs chi 0 180 0 360 0.02
#C 2 theta =0.000000 to 180 deg
#C   q   =0.000000 to 81.568 nm^-1
#C  chi  =0.000000 to 360 deg
#C collumns:
#C  1 position (2theta or chi in degrees)
#C  2 average intensity (sum of all counts in the region divided with number of pixels)
#C  3 Number of pixels in region)
#C  4 error (sum of sqrt(intensity) for all pixels divided by number)
#N 4
#L TTh  Int  N_pix  Err
32.99 	0.098361 	61 	0.098361
33.01 	0.061856 	873 	0.061856
33.03 	0.068296 	1391 	0.066612
33.05 	0.056915 	1757 	0.056248
33.07 	0.055610 	2050 	0.054467
33.09 	0.060929 	2347 	0.059431
33.11 	0.063591 	2579 	0.062455
33.13 	0.066953 	2793 	0.065275
33.15 	0.066022 	2999 	0.064655
33.17 	0.057170 	3201 	0.055889
33.19 	0.062837 	3342 	0.061259
33.21 	0.054133 	3436 	0.053110
33.23 	0.061879 	3523 	0.061048
33.25 	0.060078 	3612 	0.058780
33.27 	0.060606 	3630 	0.059476
33.29 	0.062226 	3648 	0.060941
33.31 	0.060929 	3660 	0.059809
33.33 	0.055887 	3686 	0.055093
33.35 	0.060639 	3694 	0.059370
33.37 	0.056004 	3714 	0.054900
33.39 	0.050147 	3729 	0.049833
33.41 	0.060963 	3740 	0.059396
33.43 	0.058229 	3761 	0.056672
33.45 	0.057779 	3773 	0.057158
33.47 	0.060032 	3798 	0.058335
33.49 	0.067209 	3809 	0.066287
33.51 	0.058453 	3815 	0.057532
33.53 	0.055975 	3841 	0.055365
33.55 	0.061931 	3843 	0.061626
33.57 	0.057261 	3877 	0.056178
33.59 	0.058247 	3880 	0.057794
33.61 	0.061141 	3909 	0.060392
33.63 	0.056902 	3919 	0.056155
33.65 	0.055711 	3931 	0.054668
33.67 	0.064492 	3954 	0.063134
33.69 	0.056919 	3953 	0.056326
33.71 	0.056855 	3975 	0.055529
33.73 	0.065185 	4004 	0.064307
33.75 	0.059515 	3999 	0.058782
33.77 	0.066832 	4025 	0.065231
33.79 	0.061123 	4041 	0.060109
33.81 	0.057702 	4038 	0.056976
33.83 	0.056049 	4050 	0.055182
33.85 	0.059771 	4099 	0.058770
33.87 	0.048650 	4111 	0.047795
33.89 	0.062849 	4121 	0.060835
33.91 	0.059050 	4149 	0.058486
33.93 	0.060708 	4151 	0.059297
33.95 	0.062904 	4181 	0.062203
33.97 	0.060621 	4190 	0.059502
33.99 	0.050238 	4200 	0.049680
34.01 	0.059577 	4213 	0.058743
34.03 	0.061263 	4244 	0.059745
34.05 	0.055974 	4252 	0.055423
34.07 	0.067713 	4268 	0.066615
34.09 	0.068362 	4286 	0.065743
34.11 	0.059740 	4302 	0.058923
34.13 	0.063370 	4308 	0.062419
34.15 	0.061418 	4331 	0.060291
34.17 	0.061149 	4350 	0.059511
34.19 	0.060752 	4362 	0.059678
34.21 	0.055136 	4371 	0.054466
34.23 	0.057592 	4393 	0.056370
34.25 	0.057448 	4404 	0.055852
34.27 	0.061963 	4422 	0.060771
34.29 	0.065389 	4435 	0.063804
34.31 	0.058098 	4458 	0.057704
34.33 	0.054574 	4471 	0.053526
34.35 	0.061106 	4484 	0.059909
34.37 	0.059452 	4491 	0.058670
34.39 	0.060195 	4502 	0.059935
34.41 	0.060539 	4526 	0.059245
34.43 	0.060366 	4539 	0.059204
34.45 	0.059537 	4535 	0.057707
34.47 	0.054007 	4592 	0.052583
34.49 	0.056341 	4597 	0.055067
34.51 	0.053191 	4606 	0.052428
34.53 	0.053629 	4643 	0.052746
34.55 	0.055568 	4643 	0.054937
34.57 	0.060300 	4660 	0.059295
34.59 	0.062246 	4675 	0.060471
34.61 	0.055993 	4697 	0.054871
34.63 	0.054565 	4710 	0.053321
34.65 	0.059309 	4721 	0.058689
34.67 	0.059692 	4741 	0.058951
34.69 	0.053639 	4754 	0.052510
34.71 	0.052665 	4766 	0.051559
34.73 	0.057238 	4787 	0.056015
34.75 	0.057820 	4808 	0.055993
34.77 	0.053549 	4818 	0.052577
34.79 	0.055141 	4824 	0.054291
34.81 	0.051600 	4845 	0.050270
34.83 	0.056561 	4862 	0.056079
34.85 	0.056891 	4869 	0.056169
34.87 	0.056081 	4868 	0.054757
34.89 	0.058583 	4882 	0.057863
34.91 	0.060631 	4882 	0.060151
34.93 	0.054093 	4899 	0.053375
34.95 	0.054601 	4890 	0.054122
34.97 	0.057936 	4902 	0.056980
34.99 	0.058607 	4897 	0.057052
35.01 	0.065001 	4923 	0.063692
35.03 	0.057860 	4943 	0.057386
35.05 	0.056802 	4947 	0.055973
35.07 	0.059717 	4940 	0.058175
35.09 	0.056128 	4953 	0.054945
35.11 	0.060036 	4947 	0.059207
35.13 	0.058491 	4958 	0.057546
35.15 	0.054081 	4937 	0.053488
35.17 	0.055803 	4946 	0.054974
35.19 	0.052206 	4942 	0.051494
35.21 	0.055814 	4945 	0.054511
35.23 	0.056421 	4945 	0.055710
35.25 	0.055837 	4943 	0.055363
35.27 	0.059620 	4948 	0.059383
35.29 	0.055005 	4945 	0.054057
35.31 	0.057369 	4933 	0.056181
35.33 	0.056848 	4943 	0.056256
35.35 	0.055241 	4942 	0.054648
35.37 	0.054464 	4939 	0.054109
35.39 	0.061881 	4945 	0.060677
35.41 	0.056029 	4926 	0.054583
35.43 	0.058180 	4933 	0.056755
35.45 	0.063399 	4937 	0.062450
35.47 	0.055972 	4931 	0.054428
35.49 	0.053157 	4910 	0.052202
35.51 	0.057856 	4926 	0.057262
35.53 	0.055769 	4949 	0.054428
35.55 	0.059050 	4945 	0.058576
35.57 	0.060612 	4933 	0.059900
35.59 	0.062285 	4945 	0.061081
35.61 	0.061514 	4942 	0.060921
35.63 	0.058669 	4943 	0.057602
35.65 	0.058847 	4945 	0.058018
35.67 	0.061514 	4942 	0.060565
35.69 	0.054590 	4946 	0.054116
35.71 	0.056309 	4937 	0.054985
35.73 	0.054498 	4936 	0.053904
35.75 	0.055770 	4931 	0.054225
35.77 	0.054736 	4951 	0.053889
35.79 	0.056569 	4932 	0.055857
35.81 	0.054125 	4933 	0.053769
35.83 	0.052568 	4946 	0.051265
35.85 	0.057953 	4935 	0.056766
35.87 	0.053016 	4923 	0.051946
35.89 	0.056344 	4934 	0.055038
35.91 	0.056018 	4927 	0.055047
35.93 	0.054394 	4927 	0.053443
35.95 	0.061623 	4917 	0.060293
35.97 	0.063925 	4912 	0.062594
35.99 	0.063778 	4939 	0.062592
36.01 	0.064909 	4930 	0.063602
36.03 	0.052600 	4943 	0.051889
36.05 	0.061274 	4945 	0.060563
36.07 	0.059324 	4939 	0.058494
36.09 	0.062551 	4940 	0.061721
36.11 	0.061067 	4929 	0.059760
36.13 	0.054836 	4942 	0.054006
36.15 	0.055679 	4939 	0.055067
36.17 	0.056650 	4925 	0.055084
36.19 	0.062348 	4940 	0.060925
36.21 	0.056807 	4929 	0.055975
36.23 	0.056332 	4935 	0.055264
36.25 	0.066383 	4941 	0.064961
36.27 	0.065381 	4925 	0.064548
36.29 	0.056784 	4931 	0.055952
36.31 	0.053977 	4928 	0.053245
36.33 	0.058990 	4933 	0.057803
36.35 	0.057821 	4929 	0.056633
36.37 	0.055048 	4923 	0.053977
36.39 	0.057102 	4921 	0.056388
36.41 	0.061887 	4896 	0.060910
36.43 	0.050528 	4928 	0.049458
36.45 	0.053955 	4930 	0.052490
36.47 	0.059360 	4936 	0.058154
36.49 	0.060502 	4942 	0.059435
36.51 	0.059801 	4933 	0.058139
36.53 	0.059680 	4943 	0.058732
36.55 	0.056830 	4927 	0.055641
36.57 	0.055938 	4934 	0.054732
36.59 	0.053250 	4939 	0.052538
36.61 	0.057595 	4931 	0.056882
36.63 	0.061448 	4931 	0.059904
36.65 	0.058191 	4932 	0.057598
36.67 	0.051521 	4930 	0.050214
36.69 	0.054981 	4929 	0.054367
36.71 	0.058525 	4921 	0.057810
36.73 	0.059695 	4925 	0.058982
36.75 	0.058859 	4944 	0.057911
36.77 	0.056516 	4919 	0.055682
36.79 	0.063808 	4921 	0.062856
36.81 	0.064890 	4916 	0.062607
36.83 	0.061038 	4915 	0.060561
36.85 	0.061658 	4898 	0.060801
36.87 	0.065332 	4944 	0.064621
36.89 	0.054312 	4916 	0.053597
36.91 	0.058895 	4941 	0.057828
36.93 	0.059635 	4930 	0.058684
36.95 	0.051693 	4933 	0.051099
36.97 	0.061005 	4934 	0.059561
36.99 	0.054509 	4935 	0.053915
37.01 	0.053314 	4933 	0.052839
37.03 	0.065191 	4924 	0.063644
37.05 	0.056627 	4927 	0.056032
37.07 	0.051874 	4935 	0.051400
37.09 	0.054586 	4928 	0.053754
37.11 	0.052280 	4935 	0.052042
37.13 	0.061332 	4924 	0.060004
37.15 	0.049501 	4909 	0.049143
37.17 	0.055736 	4934 	0.054786
37.19 	0.059086 	4925 	0.058016
37.21 	0.061216 	4917 	0.060382
37.23 	0.053274 	4918 	0.052083
37.25 	0.055386 	4911 	0.054551
37.27 	0.059256 	4894 	0.058179
37.29 	0.056389 	4930 	0.055677
37.31 	0.051266 	4935 	0.050198
37.33 	0.054597 	4927 	0.054122
37.35 	0.054273 	4938 	0.053087
37.37 	0.056018 	4927 	0.054710
37.39 	0.060840 	4931 	0.059889
37.41 	0.066112 	4931 	0.065043
37.43 	0.056367 	4932 	0.055891
37.45 	0.047116 	4924 	0.046164
37.47 	0.054575 	4929 	0.053743
37.49 	0.051798 	4923 	0.051203
37.51 	0.051287 	4933 	0.050694
37.53 	0.058142 	4919 	0.057308
37.55 	0.051927 	4930 	0.051095
37.57 	0.054619 	4925 	0.053906
37.59 	0.055951 	4915 	0.055355
37.61 	0.061967 	4922 	0.061015
37.63 	0.052856 	4919 	0.051904
37.65 	0.058154 	4918 	0.057082
37.67 	0.051591 	4904 	0.050993
37.69 	0.051450 	4898 	0.050612
37.71 	0.053561 	4929 	0.053085
37.73 	0.058430 	4929 	0.057835
37.75 	0.051619 	4940 	0.051264
37.77 	0.061789 	4920 	0.060955
37.79 	0.055375 	4930 	0.054662
37.81 	0.056963 	4933 	0.056370
37.83 	0.055894 	4920 	0.055061
37.85 	0.055262 	4922 	0.054023
37.87 	0.050618 	4939 	0.050262
37.89 	0.050761 	4925 	0.050405
37.91 	0.061866 	4930 	0.060797
37.93 	0.055092 	4919 	0.053783
37.95 	0.061166 	4921 	0.060214
37.97 	0.055589 	4929 	0.054520
37.99 	0.057410 	4912 	0.056456
38.01 	0.048701 	4928 	0.047513
38.03 	0.053982 	4909 	0.053267
38.05 	0.048325 	4925 	0.047611
38.07 	0.057853 	4909 	0.056540
38.09 	0.054531 	4878 	0.054050
38.11 	0.048632 	4935 	0.047683
38.13 	0.061778 	4937 	0.060592
38.15 	0.062424 	4918 	0.061709
38.17 	0.062677 	4930 	0.061489
38.19 	0.056795 	4930 	0.055845
38.21 	0.063985 	4923 	0.063033
38.23 	0.062171 	4938 	0.061696
38.25 	0.065690 	4917 	0.064499
38.27 	0.067343 	4930 	0.065779
38.29 	0.065800 	4924 	0.064611
38.31 	0.073879 	4927 	0.072214
38.33 	0.074736 	4924 	0.073189
38.35 	0.065747 	4928 	0.064915
38.37 	0.074736 	4924 	0.073546
38.39 	0.073538 	4909 	0.071510
38.41 	0.075767 	4923 	0.073863
38.43 	0.075671 	4916 	0.073765
38.45 	0.082961 	4918 	0.080559
38.47 	0.076421 	4907 	0.075347
38.49 	0.078122 	4877 	0.076801
38.51 	0.077859 	4932 	0.075840
38.53 	0.078921 	4929 	0.076781
38.55 	0.088938 	4936 	0.087257
38.57 	0.077392 	4923 	0.075230
38.59 	0.081438 	4924 	0.078821
38.61 	0.080835 	4936 	0.078679
38.63 	0.072299 	4924 	0.071228
38.65 	0.079707 	4918 	0.077921
38.67 	0.078185 	4937 	0.076049
38.69 	0.078017 	4922 	0.076351
38.71 	0.074939 	4924 	0.073274
38.73 	0.063034 	4918 	0.062081
38.75 	0.064136 	4927 	0.063304
38.77 	0.061142 	4923 	0.059813
38.79 	0.068302 	4934 	0.067114
38.81 	0.061482 	4912 	0.060767
38.83 	0.062818 	4919 	0.062222
38.85 	0.061686 	4912 	0.060016
38.87 	0.055589 	4911 	0.054377
38.89 	0.058199 	4897 	0.057242
38.91 	0.056292 	4903 	0.055336
38.93 	0.049413 	4938 	0.048701
38.95 	0.058967 	4918 	0.058491
38.97 	0.055567 	4931 	0.054735
38.99 	0.049828 	4937 	0.049472
39.01 	0.050834 	4918 	0.050119
39.03 	0.051074 	4934 	0.050599
39.05 	0.051371 	4925 	0.050300
39.07 	0.051381 	4924 	0.050667
39.09 	0.046313 	4923 	0.045599
39.11 	0.053336 	4931 	0.052742
39.13 	0.045094 	4923 	0.044381
39.15 	0.051679 	4915 	0.051321
39.17 	0.050638 	4937 	0.050401
39.19 	0.047793 	4917 	0.047079
39.21 	0.047047 	4910 	0.045973
39.23 	0.048325 	4925 	0.048087
39.25 	0.047948 	4922 	0.047115
39.27 	0.041752 	4910 	0.041274
39.29 	0.046113 	4901 	0.045157
39.31 	0.049550 	4884 	0.049070
39.33 	0.049483 	4931 	0.049245
39.35 	0.050051 	4935 	0.049338
39.37 	0.047068 	4929 	0.046712
39.39 	0.046663 	4929 	0.046187
39.41 	0.044616 	4931 	0.044022
39.43 	0.043989 	4933 	0.043633
39.45 	0.048731 	4925 	0.048017
39.47 	0.049157 	4923 	0.048681
39.49 	0.045206 	4933 	0.044731
39.51 	0.047929 	4924 	0.047215
39.53 	0.047735 	4923 	0.047378
39.55 	0.046148 	4919 	0.045909
39.57 	0.046625 	4933 	0.046269
39.59 	0.043974 	4912 	0.043855
39.61 	0.050985 	4923 	0.050628
39.63 	0.047135 	4922 	0.046421
39.65 	0.041413 	4926 	0.040818
39.67 	0.047832 	4913 	0.047236
39.69 	0.047600 	4916 	0.047242
39.71 	0.048825 	4895 	0.047848
39.73 	0.045029 	4908 	0.044670
39.75 	0.047890 	4928 	0.047058
39.77 	0.043364 	4935 	0.042770
39.79 	0.043849 	4926 	0.043354
39.81 	0.045464 	4927 	0.044750
39.83 	0.046615 	4934 	0.046022
39.85 	0.044246 	4927 	0.043414
39.87 	0.039797 	4925 	0.039083
39.89 	0.042562 	4934 	0.042443
39.91 	0.045916 	4922 	0.045559
39.93 	0.042333 	4937 	0.041977
39.95 	0.045575 	4915 	0.044621
39.97 	0.042411 	4928 	0.041935
39.99 	0.045215 	4932 	0.044740
40.01 	0.041887 	4918 	0.041291
40.03 	0.046875 	4928 	0.046281
40.05 	0.046980 	4917 	0.046503
40.07 	0.040423 	4923 	0.039590
40.09 	0.044548 	4916 	0.043476
40.11 	0.042514 	4916 	0.041561
40.13 	0.045547 	4896 	0.045308
40.15 	0.044372 	4913 	0.044253
40.17 	0.044643 	4928 	0.043930
40.19 	0.043619 	4929 	0.043144
40.21 	0.044782 	4935 	0.043951
40.23 	0.045012 	4932 	0.044656
40.25 	0.042683 	4920 	0.042207
40.27 	0.039295 	4937 	0.038939
40.29 	0.047087 	4927 	0.046374
40.31 	0.046163 	4939 	0.045096
40.33 	0.047040 	4932 	0.047040
40.35 	0.047571 	4919 	0.047213
40.37 	0.046054 	4929 	0.045579
40.39 	0.041371 	4931 	0.040896
40.41 	0.041827 	4925 	0.041352
40.43 	0.041040 	4922 	0.040564
40.45 	0.039124 	4933 	0.039124
40.47 	0.042090 	4918 	0.041733
40.49 	0.037556 	4926 	0.037199
40.51 	0.038805 	4922 	0.038567
40.53 	0.041497 	4916 	0.041259
40.55 	0.039527 	4908 	0.038931
40.57 	0.048671 	4890 	0.047712
40.59 	0.036864 	4937 	0.036746
40.61 	0.043566 	4935 	0.042973
40.63 	0.044219 	4930 	0.043625
40.65 	0.042739 	4937 	0.042501
40.67 	0.041565 	4932 	0.040734
40.69 	0.044967 	4937 	0.044136
40.71 	0.038524 	4932 	0.038168
40.73 	0.042631 	4926 	0.042155
40.75 	0.043602 	4931 	0.042770
40.77 	0.039279 	4939 	0.039042
40.79 	0.045491 	4924 	0.044659
40.81 	0.045133 	4941 	0.044540
40.83 	0.037541 	4928 	0.036946
40.85 	0.044476 	4924 	0.044000
40.87 	0.043831 	4928 	0.043356
40.89 	0.038937 	4931 	0.038819
40.91 	0.037985 	4923 	0.037628
40.93 	0.045602 	4934 	0.045008
40.95 	0.041522 	4913 	0.040807
40.97 	0.045085 	4924 	0.044134
40.99 	0.043461 	4924 	0.042985
41.01 	0.042956 	4912 	0.042718
41.03 	0.038532 	4905 	0.037696
41.05 	0.036264 	4936 	0.035908
41.07 	0.044219 	4930 	0.043744
41.09 	0.039482 	4939 	0.039363
41.11 	0.041540 	4935 	0.041065
41.13 	0.039303 	4936 	0.038828
41.15 	0.041490 	4941 	0.041134
41.17 	0.043778 	4934 	0.043066
41.19 	0.047262 	4930 	0.046905
41.21 	0.044561 	4937 	0.043612
41.23 	0.041709 	4939 	0.040879
41.25 	0.039935 	4933 	0.039460
41.27 	0.036301 	4931 	0.036063
41.29 	0.042614 	4928 	0.042257
41.31 	0.036084 	4933 	0.035609
41.33 	0.038485 	4937 	0.038366
41.35 	0.043135 	4938 	0.042542
41.37 	0.040008 	4924 	0.039770
41.39 	0.036489 	4933 	0.036251
41.41 	0.044052 	4926 	0.043438
41.43 	0.043417 	4929 	0.043060
41.45 	0.044567 	4914 	0.043613
41.47 	0.040601 	4926 	0.039868
41.49 	0.040270 	4892 	0.039671
41.51 	0.038462 	4940 	0.038224
41.53 	0.036003 	4944 	0.035885
41.55 	0.038095 	4935 	0.037977
41.57 	0.037037 	4941 	0.036563
41.59 	0.042165 	4933 	0.041314
41.61 	0.041995 	4953 	0.041403
41.63 	0.039490 	4938 	0.039371
41.65 	0.039359 	4929 	0.038646
41.67 	0.042915 	4940 	0.042085
41.69 	0.039822 	4947 	0.039230
41.71 	0.039724 	4934 	0.039487
41.73 	0.041734 	4936 	0.041497
41.75 	0.041996 	4929 	0.041283
41.77 	0.035620 	4941 	0.035265
41.79 	0.036206 	4944 	0.035732
41.81 	0.044165 	4936 	0.043572
41.83 	0.039367 	4928 	0.039129
41.85 	0.040696 	4939 	0.040222
41.87 	0.041945 	4935 	0.041708
41.89 	0.039732 	4933 	0.039614
41.91 	0.038493 	4936 	0.037781
41.93 	0.041971 	4932 	0.041614
41.95 	0.040965 	4931 	0.040253
41.97 	0.035002 	4914 	0.034644
41.99 	0.044241 	4905 	0.043763
42.01 	0.041684 	4942 	0.040972
42.03 	0.041304 	4939 	0.040454
42.05 	0.042205 	4952 	0.041969
42.07 	0.039498 	4937 	0.039260
42.09 	0.039208 	4948 	0.039208
42.11 	0.039232 	4945 	0.038995
42.13 	0.040849 	4945 	0.040612
42.15 	0.035642 	4938 	0.035049
42.17 	0.036397 	4918 	0.036159
42.19 	0.036879 	4908 	0.036521
42.21 	0.041216 	4901 	0.040858
42.23 	0.040270 	4892 	0.039671
42.25 	0.038045 	4889 	0.037565
42.27 	0.036315 	4874 	0.035955
42.29 	0.039482 	4863 	0.038639
42.31 	0.039341 	4855 	0.038476
42.33 	0.040960 	4834 	0.040596
42.35 	0.034105 	4838 	0.034105
42.37 	0.042443 	4830 	0.042201
42.39 	0.036844 	4804 	0.036113
42.41 	0.037052 	4804 	0.036687
42.43 	0.034850 	4792 	0.034483
42.45 	0.039992 	4776 	0.039378
42.47 	0.039874 	4765 	0.039382
42.49 	0.040294 	4765 	0.039310
42.51 	0.042589 	4743 	0.041848
42.53 	0.036168 	4728 	0.035548
42.55 	0.039720 	4708 	0.038973
42.57 	0.034884 	4730 	0.034636
42.59 	0.038486 	4729 	0.037495
42.61 	0.041844 	4708 	0.041470
42.63 	0.038437 	4709 	0.038188
42.65 	0.039915 	4685 	0.039540
42.67 	0.038215 	4684 	0.037590
42.69 	0.037013 	4674 	0.036261
42.71 	0.038387 	4663 	0.038010
42.73 	0.037500 	4640 	0.037121
42.75 	0.038120 	4617 	0.037232
42.77 	0.037174 	4600 	0.036919
42.79 	0.037538 	4582 	0.037283
42.81 	0.040552 	4562 	0.040552
42.83 	0.035935 	4536 	0.035547
42.85 	0.034452 	4528 	0.034323
42.87 	0.036230 	4499 	0.035709
42.89 	0.033482 	4480 	0.032959
42.91 	0.029623 	4456 	0.029492
42.93 	0.030589 	4446 	0.030062
42.95 	0.038949 	4416 	0.038286
42.97 	0.036810 	4401 	0.036677
42.99 	0.038084 	4385 	0.037283
43.01 	0.039881 	4363 	0.039747
43.03 	0.044080 	4333 	0.043945
43.05 	0.038150 	4325 	0.037879
43.07 	0.037244 	4296 	0.036699
43.09 	0.033388 	4283 	0.033251
43.11 	0.038308 	4255 	0.038033
43.13 	0.041775 	4237 	0.041222
43.15 	0.038992 	4206 	0.038713
43.17 	0.039244 	4179 	0.039104
43.19 	0.040534 	4194 	0.040255
43.21 	0.034995 	4172 	0.034714
43.23 	0.038276 	4154 	0.037430
43.25 	0.037001 	4135 	0.036860
43.27 	0.035079 	4105 	0.034936
43.29 	0.037073 	4100 	0.036645
43.31 	0.038490 	4079 	0.038203
43.33 	0.037768 	4051 	0.037335
43.35 	0.037698 	4032 	0.037553
43.37 	0.039601 	4015 	0.039164
43.39 	0.038981 	4002 	0.038249
43.41 	0.040030 	3972 	0.039588
43.43 	0.035859 	3960 	0.035711
43.45 	0.033291 	3935 	0.033142
43.47 	0.039531 	3921 	0.038933
43.49 	0.040031 	3897 	0.039279
43.51 	0.035079 	3877 	0.034625
43.53 	0.036241 	3863 	0.035786
43.55 	0.033738 	2964 	0.033541
43.57 	0.041555 	2238 	0.041031
43.59 	0.033219 	1746 	0.032883
43.61 	0.029608 	1351 	0.028741
43.63 	0.029970 	1001 	0.029970
43.65 	0.040757 	687 	0.039904
43.67 	0.027888 	502 	0.027888
43.69 	0.065395 	367 	0.063799
43.71 	0.033473 	239 	0.033473
43.73 	0.041667 	120 	0.041667
43.75 	0.187500 	16 	0.187500