File: Example_Data/25SC_s1_0008.000.dat
#F C:\frames\spec\25SC_s1_0008.000
#C title =s:8 frm:0 25SC_s1
#C wavelength =0.15406

#S 1  fr_average C:\frames\spec\25SC_s1_0008.000 C:\win32app\speccom\mask.axs chi 0 180 0 360 0.02
#C 2 theta =0.000000 to 180 deg
#C   q   =0.000000 to 81.568 nm^-1
#C  chi  =0.000000 to 360 deg
#C collumns:
#C  1 position (2theta or chi in degrees)
#C  2 average intensity (sum of all counts in the region divided with number of pixels)
#C  3 Number of pixels in region)
#C  4 error (sum of sqrt(intensity) for all pixels divided by number)
#N 4
#L TTh  Int  N_pix  Err
32.99 	0.081967 	61 	0.081967
33.01 	0.064147 	873 	0.061463
33.03 	0.056075 	1391 	0.054390
33.05 	0.064314 	1757 	0.063647
33.07 	0.060488 	2050 	0.059584
33.09 	0.062207 	2347 	0.060460
33.11 	0.061264 	2579 	0.060128
33.13 	0.058002 	2793 	0.057373
33.15 	0.061354 	2999 	0.059759
33.17 	0.061543 	3201 	0.059500
33.19 	0.059844 	3342 	0.058063
33.21 	0.059662 	3436 	0.058980
33.23 	0.056202 	3523 	0.054872
33.25 	0.064230 	3612 	0.063095
33.27 	0.053994 	3630 	0.052542
33.29 	0.063048 	3648 	0.061898
33.31 	0.060383 	3660 	0.059902
33.33 	0.055616 	3686 	0.054503
33.35 	0.062805 	3694 	0.061853
33.37 	0.056004 	3714 	0.054743
33.39 	0.059802 	3729 	0.058702
33.41 	0.063369 	3740 	0.062090
33.43 	0.061952 	3761 	0.060861
33.45 	0.055659 	3773 	0.054391
33.47 	0.066087 	3798 	0.064237
33.49 	0.057495 	3809 	0.056573
33.51 	0.058453 	3815 	0.057379
33.53 	0.062484 	3841 	0.060959
33.55 	0.065053 	3843 	0.064139
33.57 	0.057003 	3877 	0.055467
33.59 	0.061856 	3880 	0.060950
33.61 	0.065746 	3909 	0.063648
33.63 	0.064812 	3919 	0.064215
33.65 	0.059018 	3931 	0.058124
33.67 	0.058928 	3954 	0.057866
33.69 	0.057678 	3953 	0.056344
33.71 	0.052579 	3975 	0.051400
33.73 	0.059191 	4004 	0.057874
33.75 	0.059765 	3999 	0.059033
33.77 	0.057888 	4025 	0.056554
33.79 	0.059639 	4041 	0.058310
33.81 	0.060921 	4038 	0.059616
33.83 	0.063457 	4050 	0.062155
33.85 	0.061478 	4099 	0.060335
33.87 	0.054001 	4111 	0.052719
33.89 	0.060422 	4121 	0.059711
33.91 	0.061702 	4149 	0.060431
33.93 	0.056613 	4151 	0.055625
33.95 	0.057881 	4181 	0.057320
33.97 	0.052983 	4190 	0.052284
33.99 	0.060238 	4200 	0.059401
34.01 	0.057204 	4213 	0.056787
34.03 	0.059378 	4244 	0.058136
34.05 	0.057385 	4252 	0.056283
34.07 	0.060918 	4268 	0.059134
34.09 	0.056463 	4286 	0.055347
34.11 	0.066481 	4302 	0.064960
34.13 	0.059192 	4308 	0.058240
34.15 	0.058647 	4331 	0.058106
34.17 	0.059310 	4350 	0.058233
34.19 	0.064878 	4362 	0.063267
34.21 	0.057653 	4371 	0.055776
34.23 	0.058275 	4393 	0.057474
34.25 	0.055177 	4404 	0.053847
34.27 	0.050430 	4422 	0.049635
34.29 	0.061556 	4435 	0.060345
34.31 	0.056528 	4458 	0.055608
34.33 	0.054350 	4471 	0.053433
34.35 	0.057761 	4484 	0.056977
34.37 	0.057448 	4491 	0.056666
34.39 	0.059529 	4502 	0.059139
34.41 	0.058109 	4526 	0.056814
34.43 	0.055078 	4539 	0.054046
34.45 	0.060198 	4535 	0.059165
34.47 	0.055531 	4592 	0.054383
34.49 	0.055036 	4597 	0.054271
34.51 	0.055580 	4606 	0.054308
34.53 	0.052552 	4643 	0.052048
34.55 	0.058152 	4643 	0.056638
34.57 	0.059227 	4660 	0.057845
34.59 	0.053048 	4675 	0.052422
34.61 	0.049819 	4697 	0.049195
34.63 	0.058811 	4710 	0.057940
34.65 	0.060369 	4721 	0.058756
34.67 	0.066442 	4741 	0.065453
34.69 	0.052587 	4754 	0.052341
34.71 	0.054553 	4766 	0.053939
34.73 	0.054940 	4787 	0.054206
34.75 	0.051165 	4808 	0.050068
34.77 	0.055002 	4818 	0.054273
34.79 	0.059287 	4824 	0.058437
34.81 	0.056760 	4845 	0.055550
34.83 	0.057384 	4862 	0.056058
34.85 	0.056685 	4869 	0.055963
34.87 	0.053410 	4868 	0.052688
34.89 	0.056329 	4882 	0.055489
34.91 	0.055305 	4882 	0.054225
34.93 	0.058992 	4899 	0.057796
34.95 	0.058282 	4890 	0.057803
34.97 	0.054060 	4902 	0.052865
34.99 	0.056361 	4897 	0.055165
35.01 	0.056673 	4923 	0.055959
35.03 	0.055837 	4943 	0.055125
35.05 	0.056398 	4947 	0.056043
35.07 	0.060931 	4940 	0.060338
35.09 	0.060569 	4953 	0.059268
35.11 	0.058217 	4947 	0.057250
35.13 	0.058290 	4958 	0.057226
35.15 	0.061778 	4937 	0.060098
35.17 	0.064497 	4946 	0.062720
35.19 	0.060704 	4942 	0.059381
35.21 	0.064307 	4945 	0.063360
35.23 	0.059454 	4945 	0.058388
35.25 	0.052195 	4943 	0.051840
35.27 	0.057397 	4948 	0.057042
35.29 	0.060061 	4945 	0.059468
35.31 	0.057977 	4933 	0.057502
35.33 	0.060287 	4943 	0.059695
35.35 	0.058883 	4942 	0.057698
35.37 	0.060539 	4939 	0.059708
35.39 	0.058645 	4945 	0.057323
35.41 	0.059683 	4926 	0.058732
35.43 	0.060004 	4933 	0.058935
35.45 	0.056512 	4937 	0.055326
35.47 	0.061854 	4931 	0.060527
35.49 	0.059674 	4910 	0.058123
35.51 	0.055014 	4926 	0.054063
35.53 	0.061224 	4949 	0.060041
35.55 	0.054398 	4945 	0.053194
35.57 	0.056558 	4933 	0.055252
35.59 	0.053387 	4945 	0.052795
35.61 	0.052003 	4942 	0.051174
35.63 	0.061299 	4943 	0.060469
35.65 	0.059454 	4945 	0.058862
35.67 	0.056860 	4942 	0.056267
35.69 	0.058431 	4946 	0.057839
35.71 	0.056107 	4937 	0.055395
35.73 	0.061386 	4936 	0.060318
35.75 	0.054350 	4931 	0.053162
35.77 	0.055948 	4951 	0.054883
35.79 	0.057380 	4932 	0.056430
35.81 	0.056355 	4933 	0.055049
35.83 	0.053174 	4946 	0.052345
35.85 	0.055319 	4935 	0.053895
35.87 	0.062360 	4923 	0.062003
35.89 	0.061613 	4934 	0.060426
35.91 	0.053988 	4927 	0.053632
35.93 	0.059062 	4927 	0.057854
35.95 	0.062640 	4917 	0.060714
35.97 	0.058428 	4912 	0.057832
35.99 	0.061348 	4939 	0.059787
36.01 	0.053955 	4930 	0.052599
36.03 	0.064536 	4943 	0.063706
36.05 	0.061678 	4945 	0.060731
36.07 	0.057906 	4939 	0.057195
36.09 	0.057490 	4940 	0.056897
36.11 	0.058430 	4929 	0.058192
36.13 	0.059895 	4942 	0.058591
36.15 	0.061551 	4939 	0.060721
36.17 	0.060305 	4925 	0.059710
36.19 	0.058704 	4940 	0.057756
36.21 	0.063096 	4929 	0.061908
36.23 	0.061803 	4935 	0.060735
36.25 	0.056669 	4941 	0.056194
36.27 	0.057259 	4925 	0.056545
36.29 	0.059014 	4931 	0.057945
36.31 	0.059862 	4928 	0.059268
36.33 	0.065883 	4933 	0.064577
36.35 	0.055589 	4929 	0.054619
36.37 	0.066626 	4923 	0.065060
36.39 	0.069092 	4921 	0.067763
36.41 	0.059436 	4896 	0.058958
36.43 	0.054180 	4928 	0.053467
36.45 	0.058418 	4930 	0.057230
36.47 	0.063209 	4936 	0.061409
36.49 	0.059895 	4942 	0.058709
36.51 	0.059193 	4933 	0.058481
36.53 	0.056241 	4943 	0.055293
36.55 	0.058656 	4927 	0.057824
36.57 	0.055128 	4934 	0.054059
36.59 	0.059729 	4939 	0.059136
36.61 	0.053742 	4931 	0.052910
36.63 	0.066924 	4931 	0.065973
36.65 	0.057989 	4932 	0.057157
36.67 	0.056592 	4930 	0.056236
36.69 	0.065531 	4929 	0.063491
36.71 	0.062995 	4921 	0.062262
36.73 	0.060914 	4925 	0.059486
36.75 	0.063511 	4944 	0.062326
36.77 	0.063021 	4919 	0.061711
36.79 	0.063402 	4921 	0.061835
36.81 	0.062653 	4916 	0.061699
36.83 	0.059817 	4915 	0.058605
36.85 	0.051654 	4898 	0.050697
36.87 	0.058455 	4944 	0.057507
36.89 	0.061635 	4916 	0.060067
36.91 	0.063955 	4941 	0.062868
36.93 	0.061460 	4930 	0.060985
36.95 	0.063653 	4933 	0.062208
36.97 	0.064653 	4934 	0.064297
36.99 	0.065248 	4935 	0.063943
37.01 	0.060004 	4933 	0.058797
37.03 	0.054224 	4924 	0.053748
37.05 	0.064339 	4927 	0.062418
37.07 	0.063425 	4935 	0.062356
37.09 	0.056818 	4928 	0.055511
37.11 	0.057751 	4935 	0.056900
37.13 	0.060317 	4924 	0.059127
37.15 	0.050112 	4909 	0.049754
37.17 	0.063235 	4934 	0.061929
37.19 	0.061117 	4925 	0.060284
37.21 	0.057555 	4917 	0.056841
37.23 	0.060797 	4918 	0.059368
37.25 	0.062105 	4911 	0.060793
37.27 	0.062730 	4894 	0.061653
37.29 	0.057606 	4930 	0.057250
37.31 	0.056332 	4935 	0.055620
37.33 	0.059468 	4927 	0.058874
37.35 	0.059336 	4938 	0.058149
37.37 	0.062919 	4927 	0.061967
37.39 	0.050294 	4931 	0.049443
37.41 	0.057798 	4931 	0.056828
37.43 	0.059002 	4932 	0.058052
37.45 	0.056661 	4924 	0.055947
37.47 	0.056198 	4929 	0.055010
37.49 	0.061345 	4923 	0.060512
37.51 	0.056963 	4933 	0.055657
37.53 	0.056922 	4919 	0.056446
37.55 	0.056389 	4930 	0.055677
37.57 	0.057056 	4925 	0.056104
37.59 	0.055544 	4915 	0.054591
37.61 	0.055668 	4922 	0.055073
37.63 	0.058752 	4919 	0.057918
37.65 	0.063034 	4918 	0.062200
37.67 	0.057708 	4904 	0.056275
37.69 	0.056554 	4898 	0.055477
37.71 	0.060459 	4929 	0.059132
37.73 	0.056198 	4929 	0.055010
37.75 	0.054656 	4940 	0.053707
37.77 	0.053049 	4920 	0.051977
37.79 	0.059026 	4930 	0.058076
37.81 	0.054733 	4933 	0.053902
37.83 	0.051423 	4920 	0.050351
37.85 	0.062576 	4922 	0.061862
37.87 	0.056287 	4939 	0.055694
37.89 	0.055838 	4925 	0.054886
37.91 	0.058824 	4930 	0.057259
37.93 	0.052246 	4919 	0.051294
37.95 	0.058525 	4921 	0.058168
37.97 	0.051938 	4929 	0.051581
37.99 	0.058225 	4912 	0.057151
38.01 	0.055398 	4928 	0.054447
38.03 	0.057242 	4909 	0.056406
38.05 	0.054416 	4925 	0.053584
38.07 	0.055612 	4909 	0.054777
38.09 	0.058426 	4878 	0.057065
38.11 	0.056535 	4935 	0.055823
38.13 	0.051246 	4937 	0.050296
38.15 	0.053680 	4918 	0.052847
38.17 	0.062069 	4930 	0.061237
38.19 	0.061663 	4930 	0.060000
38.21 	0.057079 	4923 	0.056008
38.23 	0.062576 	4938 	0.061271
38.25 	0.058979 	4917 	0.057430
38.27 	0.055984 	4930 	0.055508
38.29 	0.059301 	4924 	0.058231
38.31 	0.057845 	4927 	0.056636
38.33 	0.057474 	4924 	0.056522
38.35 	0.062703 	4928 	0.062227
38.37 	0.065800 	4924 	0.064373
38.39 	0.064168 	4909 	0.063094
38.41 	0.060126 	4923 	0.059293
38.43 	0.062856 	4916 	0.062022
38.45 	0.067304 	4918 	0.065855
38.47 	0.071123 	4907 	0.069810
38.49 	0.067870 	4877 	0.066428
38.51 	0.065085 	4932 	0.063759
38.53 	0.079124 	4929 	0.078410
38.55 	0.077593 	4936 	0.075813
38.57 	0.081658 	4923 	0.079873
38.59 	0.078392 	4924 	0.076012
38.61 	0.075365 	4936 	0.073822
38.63 	0.081641 	4924 	0.079737
38.65 	0.077674 	4918 	0.075868
38.67 	0.080211 	4937 	0.077838
38.69 	0.086144 	4922 	0.084101
38.71 	0.084890 	4924 	0.082868
38.73 	0.077471 	4918 	0.076399
38.75 	0.075705 	4927 	0.073902
38.77 	0.076782 	4923 	0.075355
38.79 	0.080259 	4934 	0.078953
38.81 	0.076140 	4912 	0.074351
38.83 	0.075015 	4919 	0.074182
38.85 	0.082655 	4912 	0.079614
38.87 	0.068011 	4911 	0.066221
38.89 	0.064529 	4897 	0.063453
38.91 	0.065470 	4903 	0.064275
38.93 	0.070474 	4938 	0.068912
38.95 	0.056120 	4918 	0.055406
38.97 	0.056175 	4931 	0.055700
38.99 	0.053676 	4937 	0.052608
39.01 	0.054087 	4918 	0.052757
39.03 	0.055330 	4934 	0.054124
39.05 	0.059492 	4925 	0.058541
39.07 	0.050162 	4924 	0.049687
39.09 	0.046719 	4923 	0.046105
39.11 	0.049077 	4931 	0.048483
39.13 	0.049766 	4923 	0.049528
39.15 	0.045575 	4915 	0.044860
39.17 	0.050841 	4937 	0.049585
39.19 	0.053895 	4917 	0.053180
39.21 	0.048880 	4910 	0.048403
39.23 	0.047513 	4925 	0.047156
39.25 	0.046729 	4922 	0.045777
39.27 	0.048065 	4910 	0.047469
39.29 	0.044073 	4901 	0.043355
39.31 	0.057125 	4884 	0.056526
39.33 	0.045021 	4931 	0.044784
39.35 	0.049645 	4935 	0.049171
39.37 	0.050720 	4929 	0.050007
39.39 	0.050112 	4929 	0.049517
39.41 	0.043399 	4931 	0.043043
39.43 	0.050679 	4933 	0.049373
39.45 	0.051980 	4925 	0.051266
39.47 	0.042860 	4923 	0.042384
39.49 	0.043179 	4933 	0.042822
39.51 	0.050366 	4924 	0.049533
39.53 	0.049157 	4923 	0.048562
39.55 	0.048587 	4919 	0.048230
39.57 	0.047233 	4933 	0.046620
39.59 	0.052524 	4912 	0.051789
39.61 	0.045704 	4923 	0.045347
39.63 	0.046323 	4922 	0.045728
39.65 	0.049127 	4926 	0.048414
39.67 	0.049664 	4913 	0.049068
39.69 	0.047600 	4916 	0.047004
39.71 	0.042697 	4895 	0.042457
39.73 	0.041972 	4908 	0.041734
39.75 	0.041396 	4928 	0.041039
39.77 	0.045593 	4935 	0.044762
39.79 	0.047300 	4926 	0.046468
39.81 	0.044449 	4927 	0.043498
39.83 	0.048642 	4934 	0.047930
39.85 	0.047087 	4927 	0.046612
39.87 	0.047513 	4925 	0.047156
39.89 	0.041548 	4934 	0.041192
39.91 	0.046932 	4922 	0.046337
39.93 	0.046182 	4937 	0.045233
39.95 	0.044354 	4915 	0.043262
39.97 	0.043628 	4928 	0.043153
39.99 	0.045012 	4932 	0.044062
40.01 	0.045547 	4918 	0.044951
40.03 	0.045657 	4928 	0.045539
40.05 	0.046370 	4917 	0.045417
40.07 	0.044079 	4923 	0.043841
40.09 	0.044142 	4916 	0.043665
40.11 	0.044955 	4916 	0.044717
40.13 	0.047386 	4896 	0.046668
40.15 	0.044372 	4913 	0.043895
40.17 	0.044643 	4928 	0.044167
40.19 	0.038750 	4929 	0.038136
40.21 	0.040729 	4935 	0.040136
40.23 	0.043593 	4932 	0.043237
40.25 	0.047154 	4920 	0.046321
40.27 	0.041523 	4937 	0.041286
40.29 	0.045261 	4927 	0.044666
40.31 	0.041101 	4939 	0.040746
40.33 	0.043593 	4932 	0.042999
40.35 	0.043505 	4919 	0.042890
40.37 	0.039156 	4929 	0.038918
40.39 	0.043805 	4931 	0.043686
40.41 	0.047919 	4925 	0.047205
40.43 	0.040228 	4922 	0.039156
40.45 	0.039124 	4933 	0.038531
40.47 	0.041277 	4918 	0.041039
40.49 	0.041616 	4926 	0.040764
40.51 	0.045510 	4922 	0.044796
40.53 	0.041701 	4916 	0.041343
40.55 	0.044825 	4908 	0.044586
40.57 	0.043558 	4890 	0.043438
40.59 	0.043549 	4937 	0.043193
40.61 	0.042958 	4935 	0.042365
40.63 	0.040974 	4930 	0.040736
40.65 	0.040916 	4937 	0.040441
40.67 	0.045620 	4932 	0.045145
40.69 	0.046790 	4937 	0.046552
40.71 	0.041160 	4932 	0.040685
40.73 	0.042834 	4926 	0.042239
40.75 	0.045630 	4931 	0.045155
40.77 	0.043329 	4939 	0.042973
40.79 	0.043867 	4924 	0.042895
40.81 	0.042704 	4941 	0.042348
40.83 	0.044440 	4928 	0.043846
40.85 	0.045288 	4924 	0.044931
40.87 	0.044643 	4928 	0.044167
40.89 	0.045021 	4931 	0.044546
40.91 	0.046516 	4923 	0.045545
40.93 	0.042562 	4934 	0.042206
40.95 	0.048850 	4913 	0.048353
40.97 	0.042242 	4924 	0.041528
40.99 	0.040617 	4924 	0.040498
41.01 	0.041124 	4912 	0.040647
41.03 	0.038940 	4905 	0.038701
41.05 	0.042950 	4936 	0.042356
41.07 	0.045436 	4930 	0.044723
41.09 	0.045151 	4939 	0.044776
41.11 	0.039108 	4935 	0.038634
41.13 	0.042950 	4936 	0.042475
41.15 	0.037442 	4941 	0.037086
41.17 	0.034860 	4934 	0.034741
41.19 	0.040568 	4930 	0.039855
41.21 	0.045777 	4937 	0.045302
41.23 	0.043329 	4939 	0.042736
41.25 	0.042976 	4933 	0.042738
41.27 	0.045630 	4931 	0.044917
41.29 	0.035917 	4928 	0.035561
41.31 	0.045408 	4933 	0.044933
41.33 	0.036864 	4937 	0.036509
41.35 	0.041920 	4938 	0.041564
41.37 	0.040617 	4924 	0.040617
41.39 	0.041151 	4933 	0.040914
41.41 	0.044864 	4926 	0.044150
41.43 	0.038953 	4929 	0.038597
41.45 	0.036223 	4914 	0.035985
41.47 	0.042631 	4926 	0.041917
41.49 	0.041292 	4892 	0.040813
41.51 	0.039879 	4940 	0.039641
41.53 	0.043285 	4944 	0.042811
41.55 	0.042553 	4935 	0.042197
41.57 	0.042906 	4941 	0.042314
41.59 	0.042976 	4933 	0.041907
41.61 	0.040178 	4953 	0.039586
41.63 	0.045160 	4938 	0.044804
41.65 	0.043214 	4929 	0.042738
41.67 	0.040688 	4940 	0.040214
41.69 	0.040024 	4947 	0.039432
41.71 	0.040940 	4934 	0.040584
41.73 	0.047812 	4936 	0.046981
41.75 	0.042199 	4929 	0.041843
41.77 	0.042704 	4941 	0.042230
41.79 	0.042273 	4944 	0.041918
41.81 	0.041532 	4936 	0.040582
41.83 	0.041599 	4928 	0.041242
41.85 	0.044138 	4939 	0.043783
41.87 	0.042553 	4935 	0.042197
41.89 	0.040543 	4933 	0.040306
41.91 	0.038290 	4936 	0.037815
41.93 	0.039538 	4932 	0.039063
41.95 	0.038937 	4931 	0.038581
41.97 	0.039072 	4914 	0.038595
41.99 	0.040571 	4905 	0.040093
42.01 	0.041279 	4942 	0.040805
42.03 	0.040899 	4939 	0.040543
42.05 	0.040186 	4952 	0.039476
42.07 	0.042333 	4937 	0.041740
42.09 	0.036378 	4948 	0.036260
42.11 	0.042872 	4945 	0.042279
42.13 	0.039232 	4945 	0.038521
42.15 	0.046375 	4938 	0.045545
42.17 	0.038024 	4918 	0.037666
42.19 	0.041565 	4908 	0.041207
42.21 	0.041828 	4901 	0.041470
42.23 	0.037817 	4892 	0.036979
42.25 	0.039681 	4889 	0.039441
42.27 	0.038982 	4874 	0.038742
42.29 	0.041744 	4863 	0.041623
42.31 	0.043254 	4855 	0.043134
42.33 	0.039305 	4834 	0.039305
42.35 	0.040306 	4838 	0.039701
42.37 	0.039337 	4830 	0.038731
42.39 	0.033514 	4804 	0.033026
42.41 	0.041007 	4804 	0.040642
42.43 	0.036311 	4792 	0.035944
42.45 	0.033710 	4776 	0.033710
42.47 	0.039035 	4765 	0.038789
42.49 	0.034418 	4765 	0.034172
42.51 	0.039216 	4743 	0.038722
42.53 	0.034475 	4728 	0.034228
42.55 	0.041206 	4708 	0.040460
42.57 	0.045877 	4730 	0.045506
42.59 	0.035737 	4729 	0.035737
42.61 	0.041844 	4708 	0.041346
42.63 	0.039074 	4709 	0.038577
42.65 	0.039061 	4685 	0.038811
42.67 	0.040991 	4684 	0.040240
42.69 	0.035516 	4674 	0.035265
42.71 	0.040103 	4663 	0.039600
42.73 	0.039655 	4640 	0.039150
42.75 	0.037037 	4617 	0.036783
42.77 	0.034565 	4600 	0.034438
42.79 	0.043213 	4582 	0.042573
42.81 	0.034634 	4562 	0.034249
42.83 	0.038360 	4536 	0.038102
42.85 	0.034894 	4528 	0.034765
42.87 	0.041343 	4499 	0.041212
42.89 	0.039509 	4480 	0.039247
42.91 	0.040619 	4456 	0.039699
42.93 	0.041161 	4446 	0.040897
42.95 	0.037364 	4416 	0.036834
42.97 	0.039764 	4401 	0.039764
42.99 	0.041505 	4385 	0.041238
43.01 	0.041944 	4363 	0.041541
43.03 	0.044080 	4333 	0.043810
43.05 	0.037457 	4325 	0.036644
43.07 	0.040270 	4296 	0.039861
43.09 	0.037357 	4283 	0.037083
43.11 	0.042538 	4255 	0.041988
43.13 	0.039887 	4237 	0.039472
43.15 	0.041132 	4206 	0.040853
43.17 	0.040201 	4179 	0.039780
43.19 	0.038388 	4194 	0.037550
43.21 	0.040988 	4172 	0.040145
43.23 	0.038517 	4154 	0.038235
43.25 	0.034099 	4135 	0.033816
43.27 	0.038002 	4105 	0.037860
43.29 	0.034634 	4100 	0.034491
43.31 	0.043148 	4079 	0.042573
43.33 	0.038509 	4051 	0.037931
43.35 	0.038938 	4032 	0.038938
43.37 	0.044334 	4015 	0.043750
43.39 	0.038731 	4002 	0.038292
43.41 	0.038016 	3972 	0.037574
43.43 	0.038636 	3960 	0.038488
43.45 	0.039390 	3935 	0.038324
43.47 	0.030349 	3921 	0.030200
43.49 	0.037721 	3897 	0.037270
43.51 	0.042817 	3877 	0.042666
43.53 	0.041677 	3863 	0.041071
43.55 	0.038799 	2964 	0.038799
43.57 	0.037534 	2238 	0.036748
43.59 	0.040092 	1746 	0.039421
43.61 	0.039230 	1351 	0.038797
43.63 	0.031968 	1001 	0.031383
43.65 	0.042213 	687 	0.041360
43.67 	0.041833 	502 	0.041833
43.69 	0.027248 	367 	0.027248
43.71 	0.058577 	239 	0.058577
43.73 	0.066667 	120 	0.061785
43.75 	0.125000 	16 	0.125000