File: Example_Data/25SC_s1_0035.003.dat
#F C:\frames\spec\25SC_s1_0035.003
#C title =s:35 frm:3 25SC_s1
#C wavelength =0.15406

#S 1  fr_average C:\frames\spec\25SC_s1_0035.003 C:\win32app\speccom\mask.axs chi 0 180 0 360 0.02
#C 2 theta =0.000000 to 180 deg
#C   q   =0.000000 to 81.568 nm^-1
#C  chi  =0.000000 to 360 deg
#C collumns:
#C  1 position (2theta or chi in degrees)
#C  2 average intensity (sum of all counts in the region divided with number of pixels)
#C  3 Number of pixels in region)
#C  4 error (sum of sqrt(intensity) for all pixels divided by number)
#N 4
#L TTh  Int  N_pix  Err
32.99 	0.081967 	61 	0.072364
33.01 	0.056128 	873 	0.054786
33.03 	0.049605 	1391 	0.049183
33.05 	0.058054 	1757 	0.057387
33.07 	0.065366 	2050 	0.063080
33.09 	0.051981 	2347 	0.049985
33.11 	0.061652 	2579 	0.061198
33.13 	0.057644 	2793 	0.056595
33.15 	0.054018 	2999 	0.053627
33.17 	0.061231 	3201 	0.059950
33.19 	0.054758 	3342 	0.054057
33.21 	0.059371 	3436 	0.058007
33.23 	0.063298 	3523 	0.061469
33.25 	0.059524 	3612 	0.058875
33.27 	0.060055 	3630 	0.058603
33.29 	0.062500 	3648 	0.062018
33.31 	0.054645 	3660 	0.054005
33.33 	0.053988 	3686 	0.053511
33.35 	0.060368 	3694 	0.059734
33.37 	0.058428 	3714 	0.057639
33.39 	0.064629 	3729 	0.062403
33.41 	0.054278 	3740 	0.053495
33.43 	0.058761 	3761 	0.057178
33.45 	0.053008 	3773 	0.052387
33.47 	0.058452 	3798 	0.057218
33.49 	0.056708 	3809 	0.055939
33.51 	0.060288 	3815 	0.058881
33.53 	0.067951 	3841 	0.066273
33.55 	0.053604 	3843 	0.052994
33.57 	0.060098 	3877 	0.059343
33.59 	0.061598 	3880 	0.060692
33.61 	0.055513 	3909 	0.054614
33.63 	0.059964 	3919 	0.058619
33.65 	0.068939 	3931 	0.067126
33.67 	0.056904 	3954 	0.056312
33.69 	0.059196 	3953 	0.058306
33.71 	0.066415 	3975 	0.065384
33.73 	0.058442 	4004 	0.057417
33.75 	0.065016 	3999 	0.063698
33.77 	0.053416 	4025 	0.052397
33.79 	0.064341 	4041 	0.062601
33.81 	0.060178 	4038 	0.059163
33.83 	0.054321 	4050 	0.053598
33.85 	0.057819 	4099 	0.056676
33.87 	0.062515 	4111 	0.061233
33.89 	0.060422 	4121 	0.059711
33.91 	0.065076 	4149 	0.063664
33.93 	0.062876 	4151 	0.061465
33.95 	0.054293 	4181 	0.053733
33.97 	0.060621 	4190 	0.059642
33.99 	0.061905 	4200 	0.060650
34.01 	0.054118 	4213 	0.053840
34.03 	0.056315 	4244 	0.055763
34.05 	0.062088 	4252 	0.060711
34.07 	0.057170 	4268 	0.055111
34.09 	0.064396 	4286 	0.062892
34.11 	0.056485 	4302 	0.055101
34.13 	0.058960 	4308 	0.057464
34.15 	0.054953 	4331 	0.054006
34.17 	0.061379 	4350 	0.059494
34.19 	0.052270 	4362 	0.051195
34.21 	0.057653 	4371 	0.056715
34.23 	0.058275 	4393 	0.057474
34.25 	0.056312 	4404 	0.054849
34.27 	0.057666 	4422 	0.057004
34.29 	0.058850 	4435 	0.057925
34.31 	0.063481 	4458 	0.062299
34.33 	0.062402 	4471 	0.061070
34.35 	0.057984 	4484 	0.057200
34.37 	0.056112 	4491 	0.055590
34.39 	0.056864 	4502 	0.055693
34.41 	0.062970 	4526 	0.061675
34.43 	0.051553 	4539 	0.050779
34.45 	0.061301 	4535 	0.060655
34.47 	0.055096 	4592 	0.054586
34.49 	0.056341 	4597 	0.054770
34.51 	0.057968 	4606 	0.056060
34.53 	0.058798 	4643 	0.057410
34.55 	0.058798 	4643 	0.058420
34.57 	0.060515 	4660 	0.059258
34.59 	0.059893 	4675 	0.058139
34.61 	0.060038 	4697 	0.059290
34.63 	0.057113 	4710 	0.055724
34.65 	0.051472 	4721 	0.051100
34.67 	0.061590 	4741 	0.060849
34.69 	0.050273 	4754 	0.049411
34.71 	0.055602 	4766 	0.055111
34.73 	0.054940 	4787 	0.053839
34.75 	0.064684 	4808 	0.063466
34.77 	0.052304 	4818 	0.051696
34.79 	0.061153 	4824 	0.059675
34.81 	0.055934 	4845 	0.055329
34.83 	0.049774 	4862 	0.049533
34.85 	0.055658 	4869 	0.054195
34.87 	0.057313 	4868 	0.056591
34.89 	0.056944 	4882 	0.055964
34.91 	0.057558 	4882 	0.056358
34.93 	0.062258 	4899 	0.060703
34.95 	0.058487 	4890 	0.057409
34.97 	0.053244 	4902 	0.052407
34.99 	0.056565 	4897 	0.055728
35.01 	0.059110 	4923 	0.058258
35.03 	0.055027 	4943 	0.054316
35.05 	0.059026 	4947 	0.057723
35.07 	0.060121 	4940 	0.059015
35.09 	0.059156 	4953 	0.058092
35.11 	0.060643 	4947 	0.059932
35.13 	0.059298 	4958 	0.057762
35.15 	0.058335 	4937 	0.057366
35.17 	0.056814 	4946 	0.055985
35.19 	0.058478 	4942 	0.057174
35.21 	0.049949 	4945 	0.049594
35.23 	0.059454 	4945 	0.058388
35.25 	0.056646 	4943 	0.055579
35.27 	0.058610 	4948 	0.057899
35.29 	0.058443 	4945 	0.057495
35.31 	0.053720 	4933 	0.053007
35.33 	0.058062 	4943 	0.056877
35.35 	0.054027 	4942 	0.053908
35.37 	0.056894 	4939 	0.055589
35.39 	0.054601 	4945 	0.053179
35.41 	0.052781 	4926 	0.051949
35.43 	0.057369 	4933 	0.056181
35.45 	0.052258 	4937 	0.051309
35.47 	0.052525 	4931 	0.052050
35.49 	0.054582 	4910 	0.053389
35.51 	0.062119 	4926 	0.061049
35.53 	0.056577 	4949 	0.055729
35.55 	0.054398 	4945 	0.053688
35.57 	0.054531 	4933 	0.053205
35.59 	0.055005 	4945 	0.054176
35.61 	0.054027 	4942 	0.053434
35.63 	0.056241 	4943 	0.055293
35.65 	0.051769 	4945 	0.051296
35.67 	0.047552 	4942 	0.047196
35.69 	0.058633 	4946 	0.057923
35.71 	0.061981 	4937 	0.061250
35.73 	0.061386 	4936 	0.060199
35.75 	0.054553 	4931 	0.053840
35.77 	0.048475 	4951 	0.047765
35.79 	0.057989 	4932 	0.056801
35.81 	0.059599 	4933 	0.058411
35.83 	0.051759 	4946 	0.050437
35.85 	0.050051 	4935 	0.049457
35.87 	0.058298 	4923 	0.057346
35.89 	0.057560 	4934 	0.056373
35.91 	0.058250 	4927 	0.057299
35.93 	0.057642 	4927 	0.056809
35.95 	0.062843 	4917 	0.061414
35.97 	0.056596 	4912 	0.055881
35.99 	0.052845 	4939 	0.051303
36.01 	0.052333 	4930 	0.051857
36.03 	0.062715 	4943 	0.061885
36.05 	0.061072 	4945 	0.060006
36.07 	0.060539 	4939 	0.059471
36.09 	0.051215 	4940 	0.050503
36.11 	0.058430 	4929 	0.057103
36.13 	0.053217 	4942 	0.052506
36.15 	0.062158 	4939 	0.060597
36.17 	0.052589 	4925 	0.051756
36.19 	0.051822 	4940 	0.051110
36.21 	0.060053 	4929 	0.058983
36.23 	0.061196 	4935 	0.059989
36.25 	0.056466 	4941 	0.055281
36.27 	0.056244 	4925 	0.055173
36.29 	0.056581 	4931 	0.055373
36.31 	0.058644 	4928 	0.057050
36.33 	0.058788 	4933 	0.057838
36.35 	0.057010 	4929 	0.055583
36.37 	0.054235 	4923 	0.053402
36.39 	0.055680 	4921 	0.054608
36.41 	0.052288 	4896 	0.051211
36.43 	0.051948 	4928 	0.051235
36.45 	0.056592 	4930 	0.054929
36.47 	0.057536 	4936 	0.056449
36.49 	0.057062 	4942 	0.056094
36.51 	0.057571 	4933 	0.056859
36.53 	0.050981 	4943 	0.050014
36.55 	0.058250 	4927 	0.057537
36.57 	0.056141 	4934 	0.054835
36.59 	0.052035 	4939 	0.051205
36.61 	0.056378 	4931 	0.054814
36.63 	0.055972 	4931 	0.054784
36.65 	0.054745 	4932 	0.053913
36.67 	0.058012 	4930 	0.057418
36.69 	0.055184 	4929 	0.054471
36.71 	0.052428 	4921 	0.051714
36.73 	0.052386 	4925 	0.051553
36.75 	0.055421 	4944 	0.054572
36.77 	0.057125 	4919 	0.056411
36.79 	0.054257 	4921 	0.053543
36.81 	0.055330 	4916 	0.054476
36.83 	0.050458 	4915 	0.049504
36.85 	0.051041 	4898 	0.050324
36.87 	0.048746 	4944 	0.048134
36.89 	0.048007 	4916 	0.047411
36.91 	0.055050 	4941 	0.054101
36.93 	0.050507 	4930 	0.049319
36.95 	0.053923 	4933 	0.052735
36.97 	0.052898 	4934 	0.052186
36.99 	0.056940 	4935 	0.056109
37.01 	0.048652 	4933 	0.048058
37.03 	0.058692 	4924 	0.057740
37.05 	0.052162 	4927 	0.051448
37.07 	0.050659 	4935 	0.050184
37.09 	0.047687 	4928 	0.047449
37.11 	0.051266 	4935 	0.050436
37.13 	0.056661 	4924 	0.055690
37.15 	0.056427 	4909 	0.055592
37.17 	0.049047 	4934 	0.048454
37.19 	0.054416 	4925 	0.053703
37.21 	0.053895 	4917 	0.053061
37.23 	0.058357 	4918 	0.057047
37.25 	0.058440 	4911 	0.057844
37.27 	0.055170 	4894 	0.053973
37.29 	0.052535 	4930 	0.051684
37.31 	0.059169 	4935 	0.057982
37.33 	0.053582 	4927 	0.052512
37.35 	0.052653 	4938 	0.051190
37.37 	0.049726 	4927 	0.048656
37.39 	0.053336 	4931 	0.052485
37.41 	0.048672 	4931 	0.048078
37.43 	0.052920 	4932 	0.052563
37.45 	0.050569 	4924 	0.049855
37.47 	0.059444 	4929 	0.058850
37.49 	0.050782 	4923 	0.050068
37.51 	0.052301 	4933 	0.051707
37.53 	0.052043 	4919 	0.051209
37.55 	0.054970 	4930 	0.053900
37.57 	0.046091 	4925 	0.045735
37.59 	0.050865 	4915 	0.049911
37.61 	0.056481 	4922 	0.055866
37.63 	0.050620 	4919 	0.050144
37.65 	0.053477 	4918 	0.052881
37.67 	0.047920 	4904 	0.047562
37.69 	0.050633 	4898 	0.049557
37.71 	0.049503 	4929 	0.048433
37.73 	0.050720 	4929 	0.049651
37.75 	0.049595 	4940 	0.048765
37.77 	0.047561 	4920 	0.046608
37.79 	0.051724 	4930 	0.050655
37.81 	0.052909 	4933 	0.052553
37.83 	0.053252 	4920 	0.052419
37.85 	0.053434 	4922 	0.052958
37.87 	0.058716 	4939 	0.057768
37.89 	0.049340 	4925 	0.048389
37.91 	0.047667 	4930 	0.046479
37.93 	0.051230 	4919 	0.050873
37.95 	0.044910 	4921 	0.044433
37.97 	0.048894 	4929 	0.048300
37.99 	0.051507 	4912 	0.051029
38.01 	0.054383 	4928 	0.054027
38.03 	0.053779 	4909 	0.053301
38.05 	0.044264 	4925 	0.043431
38.07 	0.057242 	4909 	0.055810
38.09 	0.052071 	4878 	0.051090
38.11 	0.052280 	4935 	0.051686
38.13 	0.056309 	4937 	0.055479
38.15 	0.051850 	4918 	0.051255
38.17 	0.053955 	4930 	0.052648
38.19 	0.055781 	4930 	0.054217
38.21 	0.053423 	4923 	0.053185
38.23 	0.054678 	4938 	0.054085
38.25 	0.053895 	4917 	0.052584
38.27 	0.058621 	4930 	0.057076
38.29 	0.056255 	4924 	0.055541
38.31 	0.058250 	4927 	0.057537
38.33 	0.056052 	4924 	0.055338
38.35 	0.061282 	4928 	0.060094
38.37 	0.055443 	4924 	0.054372
38.39 	0.059890 	4909 	0.058577
38.41 	0.058704 	4923 	0.057752
38.43 	0.057160 	4916 	0.056445
38.45 	0.062017 	4918 	0.060945
38.47 	0.060526 	4907 	0.059312
38.49 	0.063974 	4877 	0.062653
38.51 	0.062247 	4932 	0.061039
38.53 	0.056604 	4929 	0.055534
38.55 	0.059562 	4936 	0.058356
38.57 	0.058704 	4923 	0.057633
38.59 	0.057677 	4924 	0.057082
38.61 	0.060575 	4936 	0.059982
38.63 	0.059504 	4924 	0.058057
38.65 	0.054290 	4918 	0.053218
38.67 	0.054081 	4937 	0.053607
38.69 	0.049167 	4922 	0.048929
38.71 	0.053006 	4924 	0.052887
38.73 	0.055917 	4918 	0.055202
38.75 	0.047493 	4927 	0.046285
38.77 	0.051798 	4923 	0.050727
38.79 	0.054722 	4934 	0.053654
38.81 	0.051099 	4912 	0.050503
38.83 	0.050823 	4919 	0.050208
38.85 	0.055782 	4912 	0.055424
38.87 	0.049074 	4911 	0.048358
38.89 	0.054932 	4897 	0.054333
38.91 	0.051193 	4903 	0.050237
38.93 	0.046983 	4938 	0.046508
38.95 	0.048800 	4918 	0.047967
38.97 	0.048266 	4931 	0.047197
38.99 	0.046790 	4937 	0.046196
39.01 	0.046360 	4918 	0.046003
39.03 	0.044791 	4934 	0.044198
39.05 	0.048325 	4925 	0.047373
39.07 	0.048335 	4924 	0.047145
39.09 	0.054845 	4923 	0.053616
39.11 	0.047860 	4931 	0.047504
39.13 	0.048345 	4923 	0.047869
39.15 	0.046999 	4915 	0.045788
39.17 	0.048207 	4937 	0.047614
39.19 	0.054301 	4917 	0.053229
39.21 	0.044807 	4910 	0.044210
39.23 	0.044670 	4925 	0.043837
39.25 	0.046932 	4922 	0.046694
39.27 	0.044399 	4910 	0.044041
39.29 	0.053254 	4901 	0.051581
39.31 	0.052007 	4884 	0.051287
39.33 	0.048469 	4931 	0.048112
39.35 	0.052482 	4935 	0.051889
39.37 	0.041388 	4929 	0.041031
39.39 	0.044228 	4929 	0.043634
39.41 	0.044616 	4931 	0.044022
39.43 	0.041962 	4933 	0.041725
39.45 	0.045685 	4925 	0.045091
39.47 	0.045501 	4923 	0.045025
39.49 	0.046219 	4933 	0.045269
39.51 	0.049756 	4924 	0.049161
39.53 	0.045094 	4923 	0.044737
39.55 	0.049197 	4919 	0.048244
39.57 	0.047841 	4933 	0.047109
39.59 	0.046621 	4912 	0.045905
39.61 	0.048141 	4923 	0.047308
39.63 	0.052011 	4922 	0.050821
39.65 	0.050548 	4926 	0.049954
39.67 	0.050478 	4913 	0.050121
39.69 	0.049024 	4916 	0.048070
39.71 	0.050460 	4895 	0.049742
39.73 	0.046047 	4908 	0.045331
39.75 	0.047484 	4928 	0.046533
39.77 	0.045795 	4935 	0.045202
39.79 	0.047909 	4926 	0.047552
39.81 	0.047696 	4927 	0.046963
39.83 	0.046615 	4934 	0.046140
39.85 	0.045058 	4927 	0.044463
39.87 	0.054010 	4925 	0.053059
39.89 	0.052290 	4934 	0.051578
39.91 	0.048964 	4922 	0.048369
39.93 	0.042739 	4937 	0.042620
39.95 	0.046389 	4915 	0.045912
39.97 	0.046266 	4928 	0.045910
39.99 	0.050081 	4932 	0.049487
40.01 	0.052257 	4918 	0.051661
40.03 	0.046469 	4928 	0.046113
40.05 	0.050031 	4917 	0.049673
40.07 	0.048751 	4923 	0.047918
40.09 	0.048820 	4916 	0.048224
40.11 	0.046786 	4916 	0.046071
40.13 	0.040850 	4896 	0.040132
40.15 	0.042744 	4913 	0.042625
40.17 	0.045049 	4928 	0.044454
40.19 	0.041793 	4929 	0.041318
40.21 	0.043769 	4935 	0.043413
40.23 	0.049270 	4932 	0.048439
40.25 	0.047561 	4920 	0.046728
40.27 	0.046587 	4937 	0.046231
40.29 	0.049929 	4927 	0.049216
40.31 	0.045151 	4939 	0.044321
40.33 	0.044809 	4932 	0.044216
40.35 	0.044521 	4919 	0.043449
40.37 	0.043822 	4929 	0.042872
40.39 	0.046846 	4931 	0.045896
40.41 	0.052386 	4925 	0.051791
40.43 	0.046119 	4922 	0.045762
40.45 	0.050274 	4933 	0.049680
40.47 	0.046157 	4918 	0.045561
40.49 	0.049330 	4926 	0.048854
40.51 	0.045510 	4922 	0.044320
40.53 	0.047600 	4916 	0.047242
40.55 	0.037286 	4908 	0.036809
40.57 	0.046830 	4890 	0.046231
40.59 	0.040308 	4937 	0.039952
40.61 	0.046403 	4935 	0.045691
40.63 	0.046450 	4930 	0.045737
40.65 	0.047802 	4937 	0.046972
40.67 	0.040957 	4932 	0.040482
40.69 	0.039295 	4937 	0.039295
40.71 	0.043187 	4932 	0.042712
40.73 	0.044864 	4926 	0.043913
40.75 	0.043602 	4931 	0.043364
40.77 	0.045758 	4939 	0.045521
40.79 	0.045085 	4924 	0.044490
40.81 	0.048168 	4941 	0.047220
40.83 	0.043425 	4928 	0.042950
40.85 	0.046507 	4924 	0.045912
40.87 	0.042005 	4928 	0.041173
40.89 	0.042385 	4931 	0.041910
40.91 	0.042860 	4923 	0.042503
40.93 	0.044183 	4934 	0.042877
40.95 	0.044372 	4913 	0.043895
40.97 	0.041633 	4924 	0.041157
40.99 	0.043867 	4924 	0.043272
41.01 	0.049064 	4912 	0.048229
41.03 	0.046075 	4905 	0.045598
41.05 	0.043760 	4936 	0.043048
41.07 	0.045233 	4930 	0.045233
41.09 	0.043531 	4939 	0.042681
41.11 	0.038906 	4935 	0.038668
41.13 	0.040113 	4936 	0.039639
41.15 	0.043513 	4941 	0.042802
41.17 	0.041143 	4934 	0.040431
41.19 	0.041176 	4930 	0.040701
41.21 	0.045574 	4937 	0.045218
41.23 	0.040292 	4939 	0.039699
41.25 	0.043381 	4933 	0.042788
41.27 	0.042993 	4931 	0.042518
41.29 	0.040381 	4928 	0.039668
41.31 	0.043179 	4933 	0.042347
41.33 	0.044561 	4937 	0.044206
41.35 	0.041920 	4938 	0.041564
41.37 	0.049350 	4924 	0.048517
41.39 	0.043381 	4933 	0.042906
41.41 	0.045879 	4926 	0.045284
41.43 	0.044837 	4929 	0.043985
41.45 	0.045991 	4914 	0.045633
41.47 	0.042022 	4926 	0.041903
41.49 	0.041292 	4892 	0.040933
41.51 	0.045547 	4940 	0.044479
41.53 	0.046926 	4944 	0.046096
41.55 	0.041540 	4935 	0.041184
41.57 	0.041490 	4941 	0.040541
41.59 	0.038111 	4933 	0.038111
41.61 	0.040380 	4953 	0.039906
41.63 	0.044147 	4938 	0.043910
41.65 	0.042199 	4929 	0.042080
41.67 	0.045344 	4940 	0.044870
41.69 	0.040631 	4947 	0.039920
41.71 	0.038914 	4934 	0.038439
41.73 	0.042342 	4936 	0.041630
41.75 	0.039765 	4929 	0.039170
41.77 	0.044323 	4941 	0.044204
41.79 	0.044094 	4944 	0.043738
41.81 	0.038695 	4936 	0.038221
41.83 	0.040990 	4928 	0.040634
41.85 	0.042924 	4939 	0.042449
41.87 	0.041135 	4935 	0.040660
41.89 	0.044192 	4933 	0.043836
41.91 	0.051864 	4936 	0.051152
41.93 	0.036496 	4932 	0.036378
41.95 	0.038937 	4931 	0.038106
41.97 	0.046602 	4914 	0.045867
41.99 	0.043221 	4905 	0.042982
42.01 	0.043100 	4942 	0.042251
42.03 	0.046163 	4939 	0.045452
42.05 	0.044628 	4952 	0.043446
42.07 	0.042941 	4937 	0.042466
42.09 	0.042441 	4948 	0.042086
42.11 	0.042669 	4945 	0.042551
42.13 	0.041456 	4945 	0.041219
42.15 	0.042730 	4938 	0.042374
42.17 	0.042497 	4918 	0.042140
42.19 	0.041361 	4908 	0.041242
42.21 	0.039584 	4901 	0.038986
42.23 	0.040065 	4892 	0.039706
42.25 	0.037840 	4889 	0.037121
42.27 	0.044932 	4874 	0.044091
42.29 	0.043594 	4863 	0.042751
42.31 	0.039753 	4855 	0.039150
42.33 	0.036202 	4834 	0.035232
42.35 	0.041133 	4838 	0.040891
42.37 	0.037681 	4830 	0.037439
42.39 	0.041424 	4804 	0.040936
42.41 	0.047044 	4804 	0.046313
42.43 	0.040484 	4792 	0.040362
42.45 	0.039992 	4776 	0.039746
42.47 	0.042392 	4765 	0.041901
42.49 	0.039244 	4765 	0.038753
42.51 	0.045752 	4743 	0.045628
42.53 	0.040609 	4728 	0.040114
42.55 	0.040357 	4708 	0.040232
42.57 	0.041860 	4730 	0.041489
42.59 	0.043350 	4729 	0.042978
42.61 	0.040782 	4708 	0.040533
42.63 	0.042047 	4709 	0.041176
42.65 	0.041622 	4685 	0.040872
42.67 	0.048249 	4684 	0.047749
42.69 	0.044929 	4674 	0.044052
42.71 	0.040746 	4663 	0.040118
42.73 	0.043750 	4640 	0.042740
42.75 	0.042019 	4617 	0.041257
42.77 	0.037826 	4600 	0.037317
42.79 	0.043213 	4582 	0.042446
42.81 	0.040552 	4562 	0.040167
42.83 	0.043210 	4536 	0.042952
42.85 	0.041961 	4528 	0.041314
42.87 	0.036675 	4499 	0.036284
42.89 	0.039509 	4480 	0.039117
42.91 	0.044883 	4456 	0.043963
42.93 	0.037337 	4446 	0.037073
42.95 	0.042572 	4416 	0.042042
42.97 	0.043399 	4401 	0.042468
42.99 	0.037400 	4385 	0.036732
43.01 	0.039422 	4363 	0.039422
43.03 	0.043157 	4333 	0.042346
43.05 	0.042081 	4325 	0.041539
43.07 	0.043296 	4296 	0.042751
43.09 	0.039925 	4283 	0.038945
43.11 	0.038778 	4255 	0.038365
43.13 	0.040595 	4237 	0.040180
43.15 	0.040418 	4206 	0.040140
43.17 	0.040201 	4179 	0.039500
43.19 	0.042680 	4194 	0.042261
43.21 	0.041707 	4172 	0.041285
43.23 	0.038036 	4154 	0.037190
43.25 	0.035792 	4135 	0.035367
43.27 	0.043362 	4105 	0.043076
43.29 	0.037073 	4100 	0.036502
43.31 	0.037754 	4079 	0.037324
43.33 	0.039496 	4051 	0.038484
43.35 	0.040923 	4032 	0.040777
43.37 	0.034371 	4015 	0.034079
43.39 	0.038231 	4002 	0.038085
43.41 	0.036002 	3972 	0.035265
43.43 	0.034848 	3960 	0.034553
43.45 	0.036595 	3935 	0.036446
43.47 	0.038001 	3921 	0.037552
43.49 	0.045163 	3897 	0.044862
43.51 	0.035595 	3877 	0.035141
43.53 	0.047114 	3863 	0.046507
43.55 	0.039474 	2964 	0.038881
43.57 	0.038427 	2238 	0.037642
43.59 	0.039519 	1746 	0.038512
43.61 	0.037010 	1351 	0.037010
43.63 	0.040959 	1001 	0.039789
43.65 	0.045124 	687 	0.044271
43.67 	0.029880 	502 	0.027547
43.69 	0.049046 	367 	0.049046
43.71 	0.029289 	239 	0.029289
43.73 	0.041667 	120 	0.041667
43.75 	0.062500 	16 	0.062500