File: Example_Data/25SC_s1_0027.004.dat
#F C:\frames\spec\25SC_s1_0027.004
#C title =s:27 frm:4 25SC_s1
#C wavelength =0.15406

#S 1  fr_average C:\frames\spec\25SC_s1_0027.004 C:\win32app\speccom\mask.axs chi 0 180 0 360 0.02
#C 2 theta =0.000000 to 180 deg
#C   q   =0.000000 to 81.568 nm^-1
#C  chi  =0.000000 to 360 deg
#C collumns:
#C  1 position (2theta or chi in degrees)
#C  2 average intensity (sum of all counts in the region divided with number of pixels)
#C  3 Number of pixels in region)
#C  4 error (sum of sqrt(intensity) for all pixels divided by number)
#N 4
#L TTh  Int  N_pix  Err
32.99 	0.098361 	61 	0.098361
33.01 	0.044674 	873 	0.044003
33.03 	0.050324 	1391 	0.049481
33.05 	0.064314 	1757 	0.063314
33.07 	0.075610 	2050 	0.073895
33.09 	0.058798 	2347 	0.057551
33.11 	0.064366 	2579 	0.063912
33.13 	0.067311 	2793 	0.065633
33.15 	0.054351 	2999 	0.053765
33.17 	0.057794 	3201 	0.057062
33.19 	0.053860 	3342 	0.053159
33.21 	0.067520 	3436 	0.066156
33.23 	0.065001 	3523 	0.064669
33.25 	0.055094 	3612 	0.054608
33.27 	0.055372 	3630 	0.055211
33.29 	0.060307 	3648 	0.058701
33.31 	0.060109 	3660 	0.059149
33.33 	0.062127 	3686 	0.061173
33.35 	0.056037 	3694 	0.055403
33.37 	0.060851 	3714 	0.059589
33.39 	0.056047 	3729 	0.055576
33.41 	0.058556 	3740 	0.057460
33.43 	0.063015 	3761 	0.061925
33.45 	0.062020 	3773 	0.060933
33.47 	0.061085 	3798 	0.059542
33.49 	0.059071 	3809 	0.058609
33.51 	0.059502 	3815 	0.057813
33.53 	0.065087 	3841 	0.063410
33.55 	0.060630 	3843 	0.059410
33.57 	0.066288 	3877 	0.065206
33.59 	0.056701 	3880 	0.055795
33.61 	0.067025 	3909 	0.065227
33.63 	0.062516 	3919 	0.061146
33.65 	0.058255 	3931 	0.058106
33.67 	0.071067 	3954 	0.068549
33.69 	0.056919 	3953 	0.055585
33.71 	0.063145 	3975 	0.062089
33.73 	0.059940 	4004 	0.059355
33.75 	0.053013 	3999 	0.052427
33.77 	0.053416 	4025 	0.052688
33.79 	0.058896 	4041 	0.058316
33.81 	0.052749 	4038 	0.052459
33.83 	0.054321 	4050 	0.052585
33.85 	0.066114 	4099 	0.065113
33.87 	0.063488 	4111 	0.063061
33.89 	0.055569 	4121 	0.054432
33.91 	0.061220 	4149 	0.060231
33.93 	0.068658 	4151 	0.067388
33.95 	0.050945 	4181 	0.050104
33.97 	0.061337 	4190 	0.060218
33.99 	0.053571 	4200 	0.052316
34.01 	0.058391 	4213 	0.057417
34.03 	0.057729 	4244 	0.056762
34.05 	0.059972 	4252 	0.058870
34.07 	0.066542 	4268 	0.064620
34.09 	0.063929 	4286 	0.062289
34.11 	0.061599 	4302 	0.060646
34.13 	0.058264 	4308 	0.057154
34.15 	0.059340 	4331 	0.058122
34.17 	0.057471 	4350 	0.057202
34.19 	0.057313 	4362 	0.056776
34.21 	0.057881 	4371 	0.057077
34.23 	0.059413 	4393 	0.058746
34.25 	0.061989 	4404 	0.060393
34.27 	0.057214 	4422 	0.056684
34.29 	0.058174 	4435 	0.057381
34.31 	0.054060 	4458 	0.053929
34.33 	0.060837 	4471 	0.058871
34.35 	0.060660 	4484 	0.059202
34.37 	0.061456 	4491 	0.060674
34.39 	0.063749 	4502 	0.062947
34.41 	0.054353 	4526 	0.053317
34.43 	0.055739 	4539 	0.054707
34.45 	0.060198 	4535 	0.059682
34.47 	0.055314 	4592 	0.054421
34.49 	0.061562 	4597 	0.061052
34.51 	0.060139 	4606 	0.058867
34.53 	0.063752 	4643 	0.062743
34.55 	0.059875 	4643 	0.059244
34.57 	0.052790 	4660 	0.052287
34.59 	0.055187 	4675 	0.054059
34.61 	0.062806 	4697 	0.061933
34.63 	0.058811 	4710 	0.057920
34.65 	0.059309 	4721 	0.058193
34.67 	0.062012 	4741 	0.060530
34.69 	0.049432 	4754 	0.048570
34.71 	0.057281 	4766 	0.055765
34.73 	0.064968 	4787 	0.063254
34.75 	0.060524 	4808 	0.059306
34.77 	0.058946 	4818 	0.057973
34.79 	0.063433 	4824 	0.062704
34.81 	0.056966 	4845 	0.055999
34.83 	0.065200 	4862 	0.063392
34.85 	0.057712 	4869 	0.056990
34.87 	0.055670 	4868 	0.054226
34.89 	0.056534 	4882 	0.055334
34.91 	0.063089 	4882 	0.062609
34.93 	0.053072 	4899 	0.051737
34.95 	0.059509 	4890 	0.058172
34.97 	0.054876 	4902 	0.053661
34.99 	0.057995 	4897 	0.056898
35.01 	0.057282 	4923 	0.056568
35.03 	0.059478 	4943 	0.058411
35.05 	0.055185 	4947 	0.054356
35.07 	0.052834 	4940 	0.052123
35.09 	0.056128 	4953 	0.055063
35.11 	0.056398 	4947 	0.055451
35.13 	0.058290 	4958 	0.057581
35.15 	0.057525 	4937 	0.056200
35.17 	0.058431 	4946 	0.057365
35.19 	0.060502 	4942 	0.059178
35.21 	0.059656 	4945 	0.058709
35.23 	0.055814 	4945 	0.054866
35.25 	0.057657 	4943 	0.056946
35.27 	0.061641 	4948 	0.060931
35.29 	0.055207 	4945 	0.054141
35.31 	0.060004 	4933 	0.058460
35.33 	0.058062 	4943 	0.056640
35.35 	0.058883 	4942 	0.058271
35.37 	0.057097 	4939 	0.056029
35.39 	0.054398 	4945 	0.053451
35.41 	0.055014 	4926 	0.054063
35.43 	0.059396 	4933 	0.057733
35.45 	0.058335 	4937 	0.057386
35.47 	0.054958 	4931 	0.054246
35.49 	0.059470 	4910 	0.058516
35.51 	0.059480 	4926 	0.058767
35.53 	0.053546 	4949 	0.052481
35.55 	0.059454 	4945 	0.058625
35.57 	0.056355 	4933 	0.055643
35.59 	0.055814 	4945 	0.054985
35.61 	0.056860 	4942 	0.055911
35.63 	0.060490 	4943 	0.059779
35.65 	0.062083 	4945 	0.060780
35.67 	0.055645 	4942 	0.054460
35.69 	0.049535 	4946 	0.049061
35.71 	0.063804 	4937 	0.062973
35.73 	0.059562 	4936 	0.058613
35.75 	0.054553 	4931 	0.053721
35.77 	0.058978 	4951 	0.057795
35.79 	0.063666 	4932 	0.063310
35.81 	0.055950 	4933 	0.055237
35.83 	0.056611 	4946 	0.055901
35.85 	0.055117 	4935 	0.054523
35.87 	0.059313 	4923 	0.058005
35.89 	0.054114 	4934 	0.053283
35.91 	0.060686 	4927 	0.059616
35.93 	0.054597 	4927 	0.054122
35.95 	0.054912 	4917 	0.053720
35.97 	0.056800 	4912 	0.056323
35.99 	0.062361 	4939 	0.061867
36.01 	0.060243 	4930 	0.058699
36.03 	0.059073 	4943 	0.057888
36.05 	0.060667 	4945 	0.060430
36.07 	0.054869 	4939 	0.053921
36.09 	0.054656 	4940 	0.054300
36.11 	0.060661 	4929 	0.059592
36.13 	0.057264 	4942 	0.056059
36.15 	0.060741 	4939 	0.060385
36.17 	0.051371 	4925 	0.050538
36.19 	0.057287 	4940 	0.056339
36.21 	0.056401 	4929 	0.055094
36.23 	0.058561 	4935 	0.058086
36.25 	0.059097 	4941 	0.057300
36.27 	0.058680 	4925 	0.057947
36.29 	0.053742 	4931 	0.052554
36.31 	0.060877 	4928 	0.059074
36.33 	0.060612 	4933 	0.060256
36.35 	0.057212 	4929 	0.056499
36.37 	0.062970 	4923 	0.061780
36.39 	0.052225 	4921 	0.051273
36.41 	0.059641 	4896 	0.058923
36.43 	0.054789 	4928 	0.054076
36.45 	0.056187 	4930 	0.055949
36.47 	0.058347 	4936 	0.057259
36.49 	0.057062 	4942 	0.056351
36.51 	0.059193 	4933 	0.057986
36.53 	0.054218 	4943 	0.053270
36.55 	0.052365 	4927 	0.051037
36.57 	0.052696 	4934 	0.052221
36.59 	0.055072 	4939 	0.054479
36.61 	0.056581 	4931 	0.055987
36.63 	0.061854 	4931 	0.060527
36.65 	0.055961 	4932 	0.054892
36.67 	0.052535 	4930 	0.051466
36.69 	0.050923 	4929 	0.049854
36.71 	0.052835 	4921 	0.052240
36.73 	0.062538 	4925 	0.061587
36.75 	0.053196 	4944 	0.052603
36.77 	0.058752 	4919 	0.057680
36.79 	0.052428 	4921 	0.051476
36.81 	0.050244 	4916 	0.049529
36.83 	0.053306 	4915 	0.052710
36.85 	0.058391 	4898 	0.057434
36.87 	0.057241 	4944 	0.056649
36.89 	0.054923 	4916 	0.053969
36.91 	0.053633 	4941 	0.052566
36.93 	0.054564 	4930 	0.053257
36.95 	0.056963 	4933 	0.055420
36.97 	0.054114 	4934 	0.053521
36.99 	0.054711 	4935 	0.053999
37.01 	0.054531 	4933 	0.053462
37.03 	0.053412 	4924 	0.052460
37.05 	0.053176 	4927 	0.052820
37.07 	0.051672 	4935 	0.050821
37.09 	0.055804 	4928 	0.055328
37.11 	0.059169 	4935 	0.058576
37.13 	0.050772 	4924 	0.049701
37.15 	0.057853 	4909 	0.057137
37.17 	0.048845 	4934 	0.048251
37.19 	0.060305 	4925 	0.058739
37.21 	0.051251 	4917 	0.050893
37.23 	0.047580 	4918 	0.046747
37.25 	0.053146 	4911 	0.052311
37.27 	0.054557 	4894 	0.053579
37.29 	0.056187 	4930 	0.055474
37.31 	0.053901 	4935 	0.053307
37.33 	0.049117 	4927 	0.048404
37.35 	0.059741 	4938 	0.058555
37.37 	0.052567 	4927 	0.051854
37.39 	0.056581 	4931 	0.055630
37.41 	0.059217 	4931 	0.057891
37.43 	0.050892 	4932 	0.050298
37.45 	0.050366 	4924 	0.050247
37.47 	0.059241 	4929 	0.057934
37.49 	0.056063 	4923 	0.054992
37.51 	0.053923 	4933 	0.053329
37.53 	0.047774 	4919 	0.046702
37.55 	0.054767 	4930 	0.054410
37.57 	0.056041 	4925 	0.055446
37.59 	0.053103 	4915 	0.052507
37.61 	0.053637 	4922 	0.052447
37.63 	0.058548 	4919 	0.057834
37.65 	0.052054 	4918 	0.051577
37.67 	0.053426 	4904 	0.052231
37.69 	0.054104 	4898 	0.053506
37.71 	0.054169 	4929 	0.053337
37.73 	0.057415 	4929 	0.056445
37.75 	0.056883 	4940 	0.055697
37.77 	0.053659 	4920 	0.053301
37.79 	0.052941 	4930 	0.051753
37.81 	0.053923 	4933 	0.052735
37.83 	0.052033 	4920 	0.050822
37.85 	0.059529 	4922 	0.058219
37.87 	0.056084 	4939 	0.054879
37.89 	0.056244 	4925 	0.055173
37.91 	0.058824 	4930 	0.057121
37.93 	0.055702 	4919 	0.054750
37.95 	0.053038 	4921 	0.052443
37.97 	0.055184 	4929 	0.053738
37.99 	0.044788 	4912 	0.043695
38.01 	0.050731 	4928 	0.050493
38.03 	0.054390 	4909 	0.053077
38.05 	0.060305 	4925 	0.059591
38.07 	0.053779 	4909 	0.053063
38.09 	0.054121 	4878 	0.053040
38.11 	0.051064 	4935 	0.050589
38.13 	0.057322 	4937 	0.056373
38.15 	0.057137 	4918 	0.055530
38.17 	0.058012 	4930 	0.057299
38.19 	0.064300 	4930 	0.063112
38.21 	0.062970 	4923 	0.061899
38.23 	0.062576 	4938 	0.061508
38.25 	0.068334 	4917 	0.067500
38.27 	0.062272 	4930 	0.061084
38.29 	0.066409 	4924 	0.064486
38.31 	0.065557 	4927 	0.064487
38.33 	0.063972 	4924 	0.062525
38.35 	0.057833 	4928 	0.057238
38.37 	0.061332 	4924 	0.059786
38.39 	0.065798 	4909 	0.064485
38.41 	0.065001 	4923 	0.064168
38.43 	0.062449 	4916 	0.061258
38.45 	0.064457 	4918 	0.063266
38.47 	0.070512 	4907 	0.069198
38.49 	0.065614 	4877 	0.063933
38.51 	0.058597 	4932 	0.057053
38.53 	0.068980 	4929 	0.067553
38.55 	0.061183 	4936 	0.059403
38.57 	0.063376 	4923 	0.062424
38.59 	0.063566 	4924 	0.062020
38.61 	0.059968 	4936 	0.059018
38.63 	0.058083 	4924 	0.057488
38.65 	0.054697 	4918 	0.053268
38.67 	0.058740 	4937 	0.057198
38.69 	0.056075 	4922 	0.055242
38.71 	0.053615 	4924 	0.052782
38.73 	0.058154 	4918 	0.057558
38.75 	0.056627 	4927 	0.056032
38.77 	0.050985 	4923 	0.050509
38.79 	0.057154 	4934 	0.056086
38.81 	0.056800 	4912 	0.056323
38.83 	0.053669 	4919 	0.053193
38.85 	0.054357 	4912 	0.053144
38.87 	0.056608 	4911 	0.055514
38.89 	0.051868 	4897 	0.051031
38.91 	0.053641 	4903 	0.052287
38.93 	0.054273 	4938 	0.053798
38.95 	0.048597 	4918 	0.047763
38.97 	0.047658 	4931 	0.046826
38.99 	0.054284 	4937 	0.053216
39.01 	0.060797 	4918 	0.059487
39.03 	0.049453 	4934 	0.049215
39.05 	0.050761 	4925 	0.050028
39.07 	0.053818 	4924 	0.052985
39.09 	0.049970 	4923 	0.049375
39.11 	0.049888 	4931 	0.049057
39.13 	0.050782 	4923 	0.050187
39.15 	0.054120 	4915 	0.052690
39.17 	0.057930 	4937 	0.057099
39.19 	0.054301 	4917 	0.053210
39.21 	0.052749 	4910 	0.052272
39.23 	0.052183 	4925 	0.051112
39.25 	0.045713 	4922 	0.045237
39.27 	0.051527 	4910 	0.050692
39.29 	0.045909 	4901 	0.045311
39.31 	0.057125 	4884 	0.055446
39.33 	0.057189 	4931 	0.056120
39.35 	0.051469 	4935 	0.050638
39.37 	0.050923 	4929 	0.050210
39.39 	0.054778 	4929 	0.054540
39.41 	0.059623 	4931 	0.058672
39.43 	0.052098 	4933 	0.051386
39.45 	0.055025 	4925 	0.054550
39.47 	0.058298 	4923 	0.057465
39.49 	0.055950 	4933 	0.055356
39.51 	0.057677 	4924 	0.056844
39.53 	0.051188 	4923 	0.050236
39.55 	0.053873 	4919 	0.053039
39.57 	0.061018 	4933 	0.060186
39.59 	0.052117 	4912 	0.051759
39.61 	0.055048 	4923 	0.054057
39.63 	0.053637 	4922 	0.052804
39.65 	0.050345 	4926 	0.049869
39.67 	0.053531 	4913 	0.052458
39.69 	0.052278 	4916 	0.051325
39.71 	0.054750 	4895 	0.053912
39.73 	0.048289 	4908 	0.047572
39.75 	0.057021 	4928 	0.055783
39.77 	0.059169 	4935 	0.057982
39.79 	0.050751 	4926 	0.049443
39.81 	0.052162 	4927 	0.051448
39.83 	0.059384 	4934 	0.058790
39.85 	0.053379 	4927 	0.052666
39.87 	0.052589 	4925 	0.051994
39.89 	0.053709 	4934 	0.052640
39.91 	0.059529 	4922 	0.058219
39.93 	0.050638 	4937 	0.049926
39.95 	0.058393 	4915 	0.057558
39.97 	0.056818 	4928 	0.056462
39.99 	0.051703 	4932 	0.050991
40.01 	0.052460 	4918 	0.052103
40.03 	0.050325 	4928 	0.049374
40.05 	0.050641 	4917 	0.049807
40.07 	0.055048 	4923 	0.053739
40.09 	0.051668 	4916 	0.051191
40.11 	0.042921 	4916 	0.042325
40.13 	0.053922 	4896 	0.052845
40.15 	0.053735 	4913 	0.052662
40.17 	0.055601 	4928 	0.054769
40.19 	0.045445 	4929 	0.044613
40.21 	0.055927 	4935 	0.054859
40.23 	0.056975 	4932 	0.055550
40.25 	0.048374 	4920 	0.047541
40.27 	0.054487 	4937 	0.053775
40.29 	0.051959 	4927 	0.051364
40.31 	0.049605 	4939 	0.048894
40.33 	0.054136 	4932 	0.053067
40.35 	0.048790 	4919 	0.047719
40.37 	0.048286 	4929 	0.047454
40.39 	0.051511 	4931 	0.050917
40.41 	0.051371 	4925 	0.050895
40.43 	0.048557 	4922 	0.047843
40.45 	0.048247 	4933 	0.047534
40.47 	0.050630 	4918 	0.050035
40.49 	0.053187 	4926 	0.052355
40.51 	0.046729 	4922 	0.045896
40.53 	0.048617 	4916 	0.047902
40.55 	0.048289 	4908 	0.047930
40.57 	0.051125 	4890 	0.050406
40.59 	0.049423 	4937 	0.048711
40.61 	0.052482 	4935 	0.051513
40.63 	0.048884 	4930 	0.047815
40.65 	0.047802 	4937 	0.046972
40.67 	0.050284 	4932 	0.050046
40.69 	0.052866 	4937 	0.052510
40.71 	0.050892 	4932 	0.050180
40.73 	0.055420 	4926 	0.054945
40.75 	0.046238 	4931 	0.045763
40.77 	0.048795 	4939 	0.048321
40.79 	0.051584 	4924 	0.050970
40.81 	0.056062 	4941 	0.055232
40.83 	0.059050 	4928 	0.057961
40.85 	0.056661 	4924 	0.055115
40.87 	0.050528 	4928 	0.050171
40.89 	0.053944 	4931 	0.052519
40.91 	0.057282 	4923 	0.056687
40.93 	0.048237 	4934 	0.047168
40.95 	0.051903 	4913 	0.051426
40.97 	0.049147 	4924 	0.048790
40.99 	0.052600 	4924 	0.051886
41.01 	0.051303 	4912 	0.050587
41.03 	0.051376 	4905 	0.051137
41.05 	0.050041 	4936 	0.048972
41.07 	0.051318 	4930 	0.050962
41.09 	0.048795 	4939 	0.048321
41.11 	0.045390 	4935 	0.044915
41.13 	0.048217 	4936 	0.047861
41.15 	0.047359 	4941 	0.047003
41.17 	0.052290 	4934 	0.051934
41.19 	0.054361 	4930 	0.053292
41.21 	0.048815 	4937 	0.048340
41.23 	0.050213 	4939 	0.049382
41.25 	0.049666 	4933 	0.049072
41.27 	0.053336 	4931 	0.052623
41.29 	0.047687 	4928 	0.046855
41.31 	0.051490 	4933 	0.051015
41.33 	0.050841 	4937 	0.050010
41.35 	0.045768 	4938 	0.045056
41.37 	0.047522 	4924 	0.047046
41.39 	0.049260 	4933 	0.049141
41.41 	0.048315 	4926 	0.047602
41.43 	0.050923 	4929 	0.050091
41.45 	0.052096 	4914 	0.051262
41.47 	0.047097 	4926 	0.046483
41.49 	0.050695 	4892 	0.050096
41.51 	0.050000 	4940 	0.048933
41.53 	0.048341 	4944 	0.047157
41.55 	0.042756 	4935 	0.042281
41.57 	0.050597 	4941 	0.050360
41.59 	0.049666 	4933 	0.048716
41.61 	0.044418 	4953 	0.043944
41.63 	0.049210 	4938 	0.048736
41.65 	0.046460 	4929 	0.045747
41.67 	0.051215 	4940 	0.050622
41.69 	0.044269 	4947 	0.043796
41.71 	0.051074 	4934 	0.050718
41.73 	0.048217 	4936 	0.047742
41.75 	0.051532 	4929 	0.050462
41.77 	0.047966 	4941 	0.047255
41.79 	0.047532 	4944 	0.047039
41.81 	0.048622 	4936 	0.047653
41.83 	0.049716 	4928 	0.048646
41.85 	0.046771 	4939 	0.046296
41.87 	0.042553 	4935 	0.041604
41.89 	0.047841 	4933 	0.047485
41.91 	0.056118 	4936 	0.054299
41.93 	0.045418 	4932 	0.045061
41.95 	0.049077 	4931 	0.048127
41.97 	0.049451 	4914 	0.049093
41.99 	0.049949 	4905 	0.049352
42.01 	0.045933 	4942 	0.045340
42.03 	0.049808 	4939 	0.049096
42.05 	0.047859 	4952 	0.047031
42.07 	0.051246 	4937 	0.050652
42.09 	0.049515 	4948 	0.048667
42.11 	0.046916 	4945 	0.045968
42.13 	0.045703 	4945 	0.045466
42.15 	0.041717 	4938 	0.041243
42.17 	0.044327 	4918 	0.043970
42.19 	0.053993 	4908 	0.052800
42.21 	0.047949 	4901 	0.047232
42.23 	0.053148 	4892 	0.052669
42.25 	0.049908 	4889 	0.049429
42.27 	0.052318 	4874 	0.052078
42.29 	0.047502 	4863 	0.046899
42.31 	0.047580 	4855 	0.046615
42.33 	0.049441 	4834 	0.048714
42.35 	0.049401 	4838 	0.049279
42.37 	0.046584 	4830 	0.046220
42.39 	0.049958 	4804 	0.049593
42.41 	0.048293 	4804 	0.047927
42.43 	0.050501 	4792 	0.050134
42.45 	0.047529 	4776 	0.046303
42.47 	0.048269 	4765 	0.047408
42.49 	0.041973 	4765 	0.041850
42.51 	0.043643 	4743 	0.043273
42.53 	0.046531 	4728 	0.046036
42.55 	0.049703 	4708 	0.048832
42.57 	0.040381 	4730 	0.039885
42.59 	0.039966 	4729 	0.039718
42.61 	0.049065 	4708 	0.047946
42.63 	0.044383 	4709 	0.043264
42.65 	0.048666 	4685 	0.048291
42.67 	0.043126 	4684 	0.042500
42.69 	0.049422 	4674 	0.048670
42.71 	0.039460 	4663 	0.038957
42.73 	0.048707 	4640 	0.047949
42.75 	0.049383 	4617 	0.048621
42.77 	0.044130 	4600 	0.043876
42.79 	0.039284 	4582 	0.038773
42.81 	0.044717 	4562 	0.044204
42.83 	0.044974 	4536 	0.044457
42.85 	0.048145 	4528 	0.047369
42.87 	0.038008 	4499 	0.037748
42.89 	0.043080 	4480 	0.042165
42.91 	0.052065 	4456 	0.051276
42.93 	0.044085 	4446 	0.043821
42.95 	0.047101 	4416 	0.046703
42.97 	0.043854 	4401 	0.043321
42.99 	0.043101 	4385 	0.042834
43.01 	0.042631 	4363 	0.041960
43.03 	0.049388 	4333 	0.048983
43.05 	0.042312 	4325 	0.042041
43.07 	0.047253 	4296 	0.046708
43.09 	0.049265 	4283 	0.048854
43.11 	0.041833 	4255 	0.041282
43.13 	0.043663 	4237 	0.043248
43.15 	0.049453 	4206 	0.048757
43.17 	0.050730 	4179 	0.050309
43.19 	0.046495 	4194 	0.045797
43.21 	0.047939 	4172 	0.046815
43.23 	0.049109 	4154 	0.048827
43.25 	0.046433 	4135 	0.045866
43.27 	0.050183 	4105 	0.049755
43.29 	0.042683 	4100 	0.042111
43.31 	0.044128 	4079 	0.043410
43.33 	0.043940 	4051 	0.043361
43.35 	0.043651 	4032 	0.043070
43.37 	0.048319 	4015 	0.048027
43.39 	0.041729 	4002 	0.041436
43.41 	0.042296 	3972 	0.042001
43.43 	0.046212 	3960 	0.045620
43.45 	0.042694 	3935 	0.042098
43.47 	0.043611 	3921 	0.043014
43.49 	0.040544 	3897 	0.040093
43.51 	0.047459 	3877 	0.046704
43.53 	0.042454 	3863 	0.041847
43.55 	0.047571 	2964 	0.046550
43.57 	0.047364 	2238 	0.046840
43.59 	0.048110 	1746 	0.047103
43.61 	0.044412 	1351 	0.043978
43.63 	0.044955 	1001 	0.044370
43.65 	0.052402 	687 	0.051549
43.67 	0.045817 	502 	0.044650
43.69 	0.062670 	367 	0.061074
43.71 	0.029289 	239 	0.029289
43.73 	0.033333 	120 	0.033333
43.75 	0.000000 	16 	0.000000