File: Example_Data/25SC_s1_0028.002.dat
#F C:\frames\spec\25SC_s1_0028.002
#C title =s:28 frm:2 25SC_s1
#C wavelength =0.15406

#S 1  fr_average C:\frames\spec\25SC_s1_0028.002 C:\win32app\speccom\mask.axs chi 0 180 0 360 0.02
#C 2 theta =0.000000 to 180 deg
#C   q   =0.000000 to 81.568 nm^-1
#C  chi  =0.000000 to 360 deg
#C collumns:
#C  1 position (2theta or chi in degrees)
#C  2 average intensity (sum of all counts in the region divided with number of pixels)
#C  3 Number of pixels in region)
#C  4 error (sum of sqrt(intensity) for all pixels divided by number)
#N 4
#L TTh  Int  N_pix  Err
32.99 	0.049180 	61 	0.049180
33.01 	0.067583 	873 	0.066241
33.03 	0.069734 	1391 	0.068471
33.05 	0.054639 	1757 	0.054639
33.07 	0.066341 	2050 	0.066341
33.09 	0.057520 	2347 	0.057021
33.11 	0.060489 	2579 	0.059088
33.13 	0.051557 	2793 	0.050719
33.15 	0.052684 	2999 	0.052294
33.17 	0.054046 	3201 	0.053101
33.19 	0.060144 	3342 	0.059443
33.21 	0.057625 	3436 	0.055864
33.23 	0.056202 	3523 	0.055038
33.25 	0.055094 	3612 	0.054283
33.27 	0.052066 	3630 	0.050614
33.29 	0.050439 	3648 	0.049315
33.31 	0.056284 	3660 	0.055644
33.33 	0.054802 	3686 	0.054325
33.35 	0.060097 	3694 	0.058829
33.37 	0.056812 	3714 	0.056023
33.39 	0.063556 	3729 	0.062928
33.41 	0.066578 	3740 	0.065325
33.43 	0.057166 	3761 	0.056050
33.45 	0.056454 	3773 	0.055367
33.47 	0.057925 	3798 	0.056537
33.49 	0.054082 	3809 	0.052827
33.51 	0.062910 	3815 	0.061042
33.53 	0.056756 	3841 	0.055206
33.55 	0.066094 	3843 	0.064722
33.57 	0.064225 	3877 	0.063167
33.59 	0.060052 	3880 	0.058995
33.61 	0.055769 	3909 	0.054096
33.63 	0.063792 	3919 	0.063169
33.65 	0.062325 	3931 	0.061406
33.67 	0.057916 	3954 	0.057175
33.69 	0.057425 	3953 	0.056536
33.71 	0.059371 	3975 	0.058782
33.73 	0.053946 	4004 	0.052483
33.75 	0.062266 	3999 	0.061387
33.77 	0.056894 	4025 	0.056167
33.79 	0.054195 	4041 	0.053470
33.81 	0.062902 	4038 	0.061452
33.83 	0.059753 	4050 	0.059319
33.85 	0.062210 	4099 	0.061210
33.87 	0.051569 	4111 	0.051141
33.89 	0.056054 	4121 	0.054917
33.91 	0.056399 	4149 	0.055976
33.93 	0.062395 	4151 	0.061548
33.95 	0.060033 	4181 	0.059193
33.97 	0.061814 	4190 	0.060835
33.99 	0.057143 	4200 	0.055865
34.01 	0.055780 	4213 	0.054667
34.03 	0.054194 	4244 	0.053504
34.05 	0.060913 	4252 	0.059535
34.07 	0.059044 	4268 	0.057534
34.09 	0.056930 	4286 	0.056246
34.11 	0.056485 	4302 	0.055374
34.13 	0.056175 	4308 	0.054520
34.15 	0.059109 	4331 	0.057891
34.17 	0.062529 	4350 	0.061317
34.19 	0.058001 	4362 	0.057061
34.21 	0.061542 	4371 	0.060470
34.23 	0.062600 	4393 	0.061266
34.25 	0.056085 	4404 	0.055154
34.27 	0.053596 	4422 	0.052117
34.29 	0.055693 	4435 	0.054901
34.31 	0.056528 	4458 	0.056002
34.33 	0.062402 	4471 	0.060961
34.35 	0.055308 	4484 	0.054785
34.37 	0.052772 	4491 	0.052120
34.39 	0.055531 	4502 	0.054620
34.41 	0.050817 	4526 	0.049912
34.43 	0.054858 	4539 	0.053825
34.45 	0.057332 	4535 	0.056944
34.47 	0.056402 	4592 	0.055382
34.49 	0.048727 	4597 	0.047581
34.51 	0.062961 	4606 	0.062325
34.53 	0.054706 	4643 	0.054075
34.55 	0.057721 	4643 	0.056838
34.57 	0.056009 	4660 	0.054354
34.59 	0.060963 	4675 	0.060211
34.61 	0.057909 	4697 	0.056787
34.63 	0.057325 	4710 	0.056330
34.65 	0.050413 	4721 	0.049544
34.67 	0.060325 	4741 	0.059213
34.69 	0.062053 	4754 	0.061067
34.71 	0.056232 	4766 	0.055125
34.73 	0.060581 	4787 	0.059479
34.75 	0.055532 	4808 	0.055045
34.77 	0.053549 	4818 	0.052941
34.79 	0.061567 	4824 	0.061203
34.81 	0.055108 	4845 	0.054141
34.83 	0.051419 	4862 	0.050455
34.85 	0.052372 	4869 	0.051530
34.87 	0.057518 	4868 	0.056416
34.89 	0.057763 	4882 	0.056803
34.91 	0.060221 	4882 	0.059501
34.93 	0.060216 	4899 	0.059738
34.95 	0.054192 	4890 	0.053833
34.97 	0.056916 	4902 	0.056079
34.99 	0.057790 	4897 	0.056714
35.01 	0.053829 	4923 	0.052996
35.03 	0.054825 	4943 	0.054232
35.05 	0.056802 	4947 	0.055973
35.07 	0.048988 	4940 	0.048632
35.09 	0.057743 	4953 	0.056304
35.11 	0.059430 	4947 	0.058601
35.13 	0.057483 	4958 	0.056183
35.15 	0.057525 	4937 	0.056200
35.17 	0.052972 	4946 	0.051788
35.19 	0.057062 	4942 	0.056114
35.21 	0.055814 	4945 	0.054985
35.23 	0.053792 	4945 	0.052370
35.25 	0.055027 	4943 	0.053823
35.27 	0.060226 	4948 	0.059161
35.29 	0.053387 	4945 	0.052558
35.31 	0.052706 	4933 	0.051875
35.33 	0.055230 	4943 	0.054618
35.35 	0.052610 	4942 	0.051899
35.37 	0.058109 	4939 	0.057160
35.39 	0.053589 	4945 	0.052997
35.41 	0.053796 	4926 	0.053202
35.43 	0.057369 	4933 	0.056300
35.45 	0.057525 	4937 	0.056338
35.47 	0.054756 	4931 	0.054043
35.49 	0.053971 	4910 	0.052997
35.51 	0.061104 	4926 	0.059915
35.53 	0.059002 	4949 	0.058883
35.55 	0.053792 	4945 	0.053318
35.57 	0.055950 	4933 	0.054881
35.59 	0.057027 	4945 	0.056553
35.61 	0.056455 	4942 	0.055151
35.63 	0.060692 	4943 	0.059862
35.65 	0.059858 	4945 	0.058792
35.67 	0.058478 	4942 	0.057649
35.69 	0.051152 	4946 	0.050323
35.71 	0.055904 	4937 	0.055192
35.73 	0.052269 	4936 	0.052032
35.75 	0.056175 	4931 	0.055938
35.77 	0.054332 	4951 	0.053504
35.79 	0.062652 	4932 	0.061821
35.81 	0.053112 	4933 	0.052518
35.83 	0.057218 	4946 	0.055777
35.85 	0.058967 	4935 	0.057780
35.87 	0.057282 	4923 	0.056925
35.89 	0.068099 	4934 	0.066655
35.91 	0.049929 	4927 	0.049453
35.93 	0.053176 	4927 	0.052344
35.95 	0.056539 	4917 	0.055585
35.97 	0.055985 	4912 	0.055250
35.99 	0.057097 	4939 	0.056741
36.01 	0.051116 	4930 	0.050522
36.03 	0.054623 	4943 	0.053556
36.05 	0.052174 	4945 	0.051463
36.07 	0.063778 	4939 	0.062236
36.09 	0.058097 	4940 	0.057267
36.11 	0.054169 	4929 	0.053437
36.13 	0.052408 	4942 	0.051578
36.15 	0.052642 	4939 	0.051812
36.17 	0.057259 	4925 	0.056545
36.19 	0.059109 	4940 	0.058279
36.21 	0.058633 	4929 	0.058038
36.23 	0.052077 	4935 	0.051365
36.25 	0.063955 	4941 	0.062295
36.27 	0.052386 	4925 	0.050958
36.29 	0.055364 	4931 	0.054770
36.31 	0.059050 	4928 	0.058575
36.33 	0.052504 	4933 	0.051672
36.35 	0.058633 	4929 	0.057206
36.37 	0.053829 	4923 	0.052996
36.39 	0.056289 	4921 	0.055079
36.41 	0.055147 	4896 	0.054310
36.43 	0.049107 	4928 	0.048513
36.45 	0.054970 	4930 	0.054494
36.47 	0.053485 	4936 	0.052535
36.49 	0.059490 	4942 	0.058897
36.51 	0.053517 	4933 	0.052567
36.53 	0.057455 	4943 	0.056625
36.55 	0.053379 	4927 	0.052547
36.57 	0.055533 	4934 	0.054583
36.59 	0.053250 	4939 	0.052182
36.61 	0.053539 	4931 	0.052470
36.63 	0.050902 	4931 	0.050308
36.65 	0.048459 	4932 	0.047865
36.67 	0.054361 	4930 	0.053648
36.69 	0.057821 	4929 	0.056375
36.71 	0.051006 	4921 	0.050292
36.73 	0.051777 	4925 	0.050706
36.75 	0.051173 	4944 	0.050344
36.77 	0.056922 	4919 	0.055493
36.79 	0.049177 	4921 	0.048324
36.81 	0.057160 	4916 	0.056088
36.83 	0.053713 	4915 	0.052283
36.85 	0.060433 	4898 	0.058619
36.87 	0.057039 	4944 	0.056446
36.89 	0.057567 	4916 	0.055899
36.91 	0.052823 	4941 	0.051993
36.93 	0.053753 	4930 	0.051851
36.95 	0.049868 	4933 	0.049274
36.97 	0.046007 	4934 	0.045176
36.99 	0.048835 	4935 	0.047529
37.01 	0.056761 	4933 	0.055454
37.03 	0.051381 	4924 	0.050429
37.05 	0.050538 	4927 	0.049587
37.07 	0.051469 	4935 	0.050638
37.09 	0.052557 	4928 	0.051725
37.11 	0.051064 	4935 	0.050114
37.13 	0.051178 	4924 	0.050226
37.15 	0.051131 	4909 	0.050295
37.17 	0.054114 	4934 	0.053165
37.19 	0.050761 	4925 	0.050405
37.21 	0.056132 	4917 	0.055298
37.23 	0.052867 	4918 	0.052629
37.25 	0.055182 	4911 	0.054944
37.27 	0.041479 	4894 	0.041120
37.29 	0.049087 	4930 	0.048612
37.31 	0.057143 	4935 	0.056193
37.33 	0.060077 	4927 	0.058175
37.35 	0.051033 	4938 	0.050202
37.37 	0.057439 	4927 	0.056369
37.39 	0.052930 	4931 	0.051980
37.41 	0.052119 	4931 	0.051050
37.43 	0.045215 	4932 	0.044621
37.45 	0.056661 	4924 	0.055828
37.47 	0.048894 	4929 	0.048419
37.49 	0.051188 	4923 	0.050474
37.51 	0.055544 	4933 	0.054931
37.53 	0.051840 	4919 	0.049815
37.55 	0.048682 	4930 	0.048563
37.57 	0.054010 	4925 	0.052682
37.59 	0.053510 	4915 	0.052914
37.61 	0.052621 	4922 	0.052383
37.63 	0.052856 	4919 	0.051904
37.65 	0.049410 	4918 	0.048577
37.67 	0.057708 	4904 	0.056394
37.69 	0.049612 	4898 	0.048895
37.71 	0.045040 	4929 	0.044564
37.73 	0.055386 	4929 	0.054317
37.75 	0.045344 	4940 	0.044988
37.77 	0.049797 	4920 	0.049201
37.79 	0.051116 	4930 	0.050284
37.81 	0.050679 	4933 	0.050204
37.83 	0.048780 	4920 	0.048185
37.85 	0.050589 	4922 	0.049875
37.87 	0.050415 	4939 	0.049585
37.89 	0.047716 	4925 	0.046764
37.91 	0.053347 	4930 	0.052258
37.93 	0.046757 	4919 	0.046519
37.95 	0.051209 	4921 	0.050019
37.97 	0.052952 	4929 	0.052714
37.99 	0.048453 	4912 	0.047479
38.01 	0.049107 	4928 	0.048513
38.03 	0.048075 	4909 	0.047478
38.05 	0.051777 	4925 	0.051063
38.07 	0.046445 	4909 	0.045849
38.09 	0.053506 	4878 	0.052305
38.11 	0.049443 	4935 	0.048137
38.13 	0.056715 	4937 	0.055528
38.15 	0.053884 	4918 	0.052931
38.17 	0.055172 	4930 	0.054083
38.19 	0.056389 	4930 	0.055439
38.21 	0.054438 	4923 	0.053843
38.23 	0.049210 	4938 	0.048143
38.25 	0.050641 	4917 	0.049807
38.27 	0.061866 	4930 	0.059490
38.29 	0.050162 	4924 	0.049330
38.31 	0.059062 	4927 	0.057616
38.33 	0.061942 	4924 	0.060375
38.35 	0.052963 	4928 	0.052012
38.37 	0.055443 	4924 	0.054491
38.39 	0.056223 	4909 	0.055269
38.41 	0.063173 	4923 	0.061864
38.43 	0.054719 	4916 	0.054123
38.45 	0.057137 	4918 	0.055827
38.47 	0.062564 	4907 	0.061708
38.49 	0.059873 	4877 	0.058672
38.51 	0.056772 	4932 	0.055347
38.53 	0.067965 	4929 	0.066182
38.55 	0.058955 	4936 	0.057768
38.57 	0.059720 	4923 	0.058649
38.59 	0.060926 	4924 	0.060093
38.61 	0.058752 	4936 	0.057921
38.63 	0.054833 	4924 	0.053406
38.65 	0.049614 	4918 	0.048522
38.67 	0.062994 	4937 	0.061570
38.69 	0.066030 	4922 	0.064602
38.71 	0.050772 	4924 	0.050177
38.73 	0.058560 	4918 	0.057608
38.75 	0.054597 	4927 	0.053884
38.77 	0.054438 	4923 	0.053367
38.79 	0.055938 	4934 	0.054989
38.81 	0.052932 	4912 	0.052455
38.83 	0.052653 	4919 	0.052177
38.85 	0.055375 	4912 	0.054421
38.87 	0.051721 	4911 	0.050866
38.89 	0.050847 	4897 	0.050130
38.91 	0.049969 	4903 	0.049372
38.93 	0.045565 	4938 	0.044972
38.95 	0.048597 	4918 	0.048001
38.97 	0.051105 	4931 	0.050392
38.99 	0.043751 	4937 	0.043277
39.01 	0.044734 	4918 	0.043781
39.03 	0.046413 	4934 	0.045225
39.05 	0.048325 	4925 	0.047968
39.07 	0.044882 	4924 	0.044763
39.09 	0.046516 	4923 	0.045287
39.11 	0.047049 	4931 	0.046337
39.13 	0.051391 	4923 	0.050677
39.15 	0.047609 	4915 	0.047252
39.17 	0.048005 	4937 	0.047649
39.19 	0.049624 	4917 	0.048671
39.21 	0.048880 	4910 	0.048164
39.23 	0.047310 	4925 	0.046596
39.25 	0.044900 	4922 	0.043710
39.27 	0.051731 	4910 	0.051373
39.29 	0.044889 	4901 	0.044769
39.31 	0.042588 	4884 	0.041988
39.33 	0.047860 	4931 	0.047504
39.35 	0.045998 	4935 	0.045523
39.37 	0.050314 	4929 	0.049601
39.39 	0.047677 	4929 	0.046964
39.41 	0.045832 	4931 	0.044763
39.43 	0.044598 	4933 	0.044123
39.45 	0.043858 	4925 	0.043739
39.47 	0.041032 	4923 	0.040437
39.49 	0.045003 	4933 	0.044409
39.51 	0.049756 	4924 	0.049518
39.53 	0.040219 	4923 	0.039743
39.55 	0.045131 	4919 	0.044298
39.57 	0.046827 	4933 	0.046095
39.59 	0.042956 	4912 	0.042121
39.61 	0.039813 	4923 	0.038980
39.63 	0.045104 	4922 	0.044628
39.65 	0.040398 	4926 	0.039565
39.67 	0.040098 	4913 	0.039621
39.69 	0.046989 	4916 	0.046136
39.71 	0.045352 	4895 	0.044993
39.73 	0.043602 	4908 	0.042886
39.75 	0.042005 	4928 	0.041054
39.77 	0.045795 	4935 	0.045439
39.79 	0.048721 	4926 	0.048008
39.81 	0.043637 	4927 	0.043043
39.83 	0.040130 	4934 	0.039417
39.85 	0.051147 	4927 	0.050909
39.87 	0.044264 	4925 	0.043669
39.89 	0.045602 	4934 	0.044890
39.91 	0.041040 	4922 	0.040802
39.93 	0.046587 	4937 	0.045756
39.95 	0.038861 	4915 	0.038622
39.97 	0.040381 	4928 	0.040025
39.99 	0.047040 	4932 	0.046090
40.01 	0.041684 	4918 	0.041088
40.03 	0.046266 	4928 	0.045672
40.05 	0.045353 	4917 	0.044281
40.07 	0.050173 	4923 	0.049082
40.09 	0.044142 	4916 	0.043665
40.11 	0.043531 	4916 	0.043293
40.13 	0.047386 	4896 	0.047146
40.15 	0.044576 	4913 	0.043503
40.17 	0.044643 	4928 	0.044286
40.19 	0.047068 	4929 	0.046950
40.21 	0.043364 	4935 	0.042770
40.23 	0.041565 	4932 	0.041447
40.25 	0.042683 	4920 	0.041969
40.27 	0.040510 	4937 	0.040036
40.29 	0.043028 	4927 	0.042672
40.31 	0.048188 	4939 	0.047220
40.33 	0.046837 	4932 	0.046124
40.35 	0.045334 	4919 	0.044620
40.37 	0.040170 	4929 	0.039933
40.39 	0.042182 	4931 	0.041469
40.41 	0.047107 	4925 	0.046631
40.43 	0.042869 	4922 	0.042393
40.45 	0.042570 	4933 	0.041957
40.47 	0.048394 	4918 	0.047679
40.49 	0.042631 	4926 	0.042155
40.51 	0.041853 	4922 	0.041496
40.53 	0.043938 	4916 	0.043223
40.55 	0.041972 	4908 	0.041256
40.57 	0.041513 	4890 	0.041154
40.59 	0.047802 	4937 	0.047090
40.61 	0.041135 	4935 	0.040423
40.63 	0.040162 	4930 	0.039549
40.65 	0.040916 	4937 	0.040085
40.67 	0.038524 	4932 	0.037693
40.69 	0.043751 	4937 	0.043514
40.71 	0.039538 	4932 	0.038944
40.73 	0.036744 	4926 	0.036268
40.75 	0.041371 	4931 	0.040658
40.77 	0.044746 	4939 	0.044153
40.79 	0.045898 	4924 	0.044946
40.81 	0.042299 	4941 	0.041706
40.83 	0.042005 	4928 	0.041529
40.85 	0.043664 	4924 	0.043188
40.87 	0.039773 	4928 	0.039416
40.89 	0.043196 	4931 	0.042959
40.91 	0.045094 	4923 	0.044737
40.93 	0.042967 	4934 	0.042611
40.95 	0.041930 	4913 	0.041214
40.97 	0.038587 	4924 	0.037754
40.99 	0.040617 	4924 	0.039765
41.01 	0.046010 	4912 	0.045652
41.03 	0.041182 	4905 	0.040705
41.05 	0.039303 	4936 	0.039184
41.07 	0.043611 	4930 	0.043016
41.09 	0.042924 	4939 	0.042449
41.11 	0.036474 	4935 	0.035881
41.13 	0.042747 	4936 	0.042154
41.15 	0.037847 	4941 	0.037491
41.17 	0.045805 	4934 	0.045092
41.19 	0.037728 	4930 	0.037015
41.21 	0.041118 	4937 	0.040881
41.23 	0.040696 	4939 	0.040222
41.25 	0.042976 	4933 	0.042145
41.27 	0.048469 	4931 	0.047756
41.29 	0.040787 	4928 	0.040550
41.31 	0.042570 	4933 	0.042333
41.33 	0.050030 	4937 	0.048824
41.35 	0.044350 	4938 	0.044113
41.37 	0.045898 	4924 	0.045303
41.39 	0.039935 	4933 	0.039341
41.41 	0.041616 	4926 	0.040783
41.43 	0.042199 	4929 	0.041467
41.45 	0.040090 	4914 	0.039613
41.47 	0.039789 	4926 	0.039194
41.49 	0.043540 	4892 	0.043421
41.51 	0.044332 	4940 	0.043976
41.53 	0.036206 	4944 	0.035969
41.55 	0.039716 	4935 	0.039598
41.57 	0.040275 	4941 	0.039801
41.59 	0.033043 	4933 	0.032805
41.61 	0.035938 	4953 	0.035583
41.63 	0.039490 	4938 	0.038897
41.65 	0.049909 	4929 	0.049671
41.67 	0.037652 	4940 	0.037533
41.69 	0.039216 	4947 	0.038742
41.71 	0.033644 	4934 	0.033525
41.73 	0.041532 	4936 	0.040938
41.75 	0.040170 	4929 	0.040052
41.77 	0.036632 	4941 	0.036039
41.79 	0.037824 	4944 	0.037113
41.81 	0.040924 	4936 	0.040449
41.83 	0.038961 	4928 	0.038486
41.85 	0.039482 	4939 	0.038651
41.87 	0.041337 	4935 	0.040981
41.89 	0.037503 	4933 	0.037384
41.91 	0.038290 	4936 	0.038053
41.93 	0.034874 	4932 	0.034518
41.95 	0.038329 	4931 	0.037973
41.97 	0.038258 	4914 	0.038020
41.99 	0.044241 	4905 	0.043524
42.01 	0.039053 	4942 	0.038816
42.03 	0.040292 	4939 	0.039699
42.05 	0.036147 	4952 	0.035910
42.07 	0.041118 	4937 	0.040643
42.09 	0.037389 	4948 	0.037152
42.11 	0.044894 	4945 	0.043946
42.13 	0.041456 	4945 	0.040508
42.15 	0.036249 	4938 	0.035775
42.17 	0.040667 	4918 	0.040310
42.19 	0.042991 	4908 	0.042514
42.21 	0.033463 	4901 	0.033224
42.23 	0.040270 	4892 	0.039911
42.25 	0.038863 	4889 	0.038743
42.27 	0.043496 	4874 	0.042655
42.29 	0.032285 	4863 	0.032044
42.31 	0.037281 	4855 	0.037040
42.33 	0.036823 	4834 	0.036217
42.35 	0.035759 	4838 	0.035395
42.37 	0.037681 	4830 	0.037196
42.39 	0.037469 	4804 	0.037103
42.41 	0.039342 	4804 	0.038733
42.43 	0.033598 	4792 	0.033353
42.45 	0.042295 	4776 	0.041068
42.47 	0.037985 	4765 	0.037494
42.49 	0.038195 	4765 	0.037089
42.51 	0.044487 	4743 	0.043622
42.53 	0.044628 	4728 	0.044256
42.55 	0.040357 	4708 	0.040357
42.57 	0.043340 	4730 	0.042845
42.59 	0.038274 	4729 	0.037531
42.61 	0.040144 	4708 	0.039771
42.63 	0.037588 	4709 	0.037339
42.65 	0.036073 	4685 	0.035948
42.67 	0.049103 	4684 	0.048728
42.69 	0.037869 	4674 	0.037222
42.71 	0.038173 	4663 	0.037922
42.73 	0.038793 	4640 	0.038036
42.75 	0.032705 	4617 	0.032705
42.77 	0.036739 	4600 	0.036230
42.79 	0.038848 	4582 	0.038464
42.81 	0.039456 	4562 	0.038943
42.83 	0.032407 	4536 	0.032407
42.85 	0.034231 	4528 	0.033973
42.87 	0.038231 	4499 	0.037970
42.89 	0.034375 	4480 	0.034375
42.91 	0.038824 	4456 	0.038167
42.93 	0.038462 	4446 	0.037803
42.95 	0.039855 	4416 	0.039457
42.97 	0.032038 	4401 	0.031484
42.99 	0.039453 	4385 	0.039186
43.01 	0.036672 	4363 	0.036381
43.03 	0.033464 	4333 	0.033329
43.05 	0.035376 	4325 	0.034969
43.07 	0.041899 	4296 	0.041763
43.09 	0.033154 	4283 	0.032881
43.11 	0.039013 	4255 	0.038875
43.13 	0.035402 	4237 	0.034711
43.15 	0.038516 	4206 	0.038099
43.17 	0.034458 	4179 	0.034178
43.19 	0.043395 	4194 	0.043116
43.21 	0.039310 	4172 	0.039169
43.23 	0.038036 	4154 	0.037754
43.25 	0.033132 	4135 	0.032707
43.27 	0.038733 	4105 	0.038305
43.29 	0.037073 	4100 	0.036502
43.31 	0.037019 	4079 	0.036732
43.33 	0.036040 	4051 	0.035751
43.35 	0.039435 	4032 	0.038708
43.37 	0.035866 	4015 	0.035282
43.39 	0.036482 	4002 	0.036335
43.41 	0.037513 	3972 	0.036923
43.43 	0.039394 	3960 	0.038802
43.45 	0.033291 	3935 	0.032844
43.47 	0.036980 	3921 	0.036682
43.49 	0.040544 	3897 	0.040093
43.51 	0.042301 	3877 	0.041394
43.53 	0.037794 	3863 	0.037794
43.55 	0.036775 	2964 	0.036379
43.57 	0.040661 	2238 	0.039833
43.59 	0.030928 	1746 	0.030592
43.61 	0.030348 	1351 	0.030348
43.63 	0.037962 	1001 	0.037962
43.65 	0.042213 	687 	0.042213
43.67 	0.039841 	502 	0.039841
43.69 	0.040872 	367 	0.040872
43.71 	0.033473 	239 	0.033473
43.73 	0.033333 	120 	0.033333
43.75 	0.062500 	16 	0.062500