File: Example_Data/25SC_s1_0031.000.dat
#F C:\frames\spec\25SC_s1_0031.000
#C title =s:31 frm:0 25SC_s1
#C wavelength =0.15406

#S 1  fr_average C:\frames\spec\25SC_s1_0031.000 C:\win32app\speccom\mask.axs chi 0 180 0 360 0.02
#C 2 theta =0.000000 to 180 deg
#C   q   =0.000000 to 81.568 nm^-1
#C  chi  =0.000000 to 360 deg
#C collumns:
#C  1 position (2theta or chi in degrees)
#C  2 average intensity (sum of all counts in the region divided with number of pixels)
#C  3 Number of pixels in region)
#C  4 error (sum of sqrt(intensity) for all pixels divided by number)
#N 4
#L TTh  Int  N_pix  Err
32.99 	0.081967 	61 	0.072364
33.01 	0.063001 	873 	0.062330
33.03 	0.061826 	1391 	0.060984
33.05 	0.058623 	1757 	0.056622
33.07 	0.067805 	2050 	0.065805
33.09 	0.065190 	2347 	0.064191
33.11 	0.054285 	2579 	0.053149
33.13 	0.066237 	2793 	0.064979
33.15 	0.059020 	2999 	0.058434
33.17 	0.055608 	3201 	0.055242
33.19 	0.063136 	3342 	0.061909
33.21 	0.063737 	3436 	0.062203
33.23 	0.059324 	3523 	0.058659
33.25 	0.062292 	3612 	0.061481
33.27 	0.066667 	3630 	0.066021
33.29 	0.066886 	3648 	0.065601
33.31 	0.059016 	3660 	0.057870
33.33 	0.056701 	3686 	0.056065
33.35 	0.057390 	3694 	0.056439
33.37 	0.066236 	3714 	0.065290
33.39 	0.061947 	3729 	0.061319
33.41 	0.061497 	3740 	0.060401
33.43 	0.063281 	3761 	0.062321
33.45 	0.063080 	3773 	0.062148
33.47 	0.069247 	3798 	0.068167
33.49 	0.062221 	3809 	0.060529
33.51 	0.053473 	3815 	0.053012
33.53 	0.060141 	3841 	0.059531
33.55 	0.063232 	3843 	0.062292
33.57 	0.072737 	3877 	0.071226
33.59 	0.062887 	3880 	0.061830
33.61 	0.067025 	3909 	0.066575
33.63 	0.060985 	3919 	0.059640
33.65 	0.064360 	3931 	0.063019
33.67 	0.060445 	3954 	0.059704
33.69 	0.060966 	3953 	0.059484
33.71 	0.067170 	3975 	0.065991
33.73 	0.068681 	4004 	0.067511
33.75 	0.066517 	3999 	0.064466
33.77 	0.057888 	4025 	0.056724
33.79 	0.058896 	4041 	0.058027
33.81 	0.071075 	4038 	0.069189
33.83 	0.063951 	4050 	0.063083
33.85 	0.054404 	4099 	0.053546
33.87 	0.060569 	4111 	0.059572
33.89 	0.060422 	4121 	0.060280
33.91 	0.060255 	4149 	0.059408
33.93 	0.058540 	4151 	0.057270
33.95 	0.058598 	4181 	0.057478
33.97 	0.054177 	4190 	0.053478
33.99 	0.067381 	4200 	0.066823
34.01 	0.063613 	4213 	0.062338
34.03 	0.065269 	4244 	0.064026
34.05 	0.055503 	4252 	0.054539
34.07 	0.064667 	4268 	0.063158
34.09 	0.056463 	4286 	0.055233
34.11 	0.063226 	4302 	0.061320
34.13 	0.061978 	4308 	0.060754
34.15 	0.045948 	4331 	0.045001
34.17 	0.059770 	4350 	0.058671
34.19 	0.061669 	4362 	0.060729
34.21 	0.059483 	4371 	0.058679
34.23 	0.061234 	4393 	0.060434
34.25 	0.057221 	4404 	0.056024
34.27 	0.056309 	4422 	0.055515
34.29 	0.058625 	4435 	0.058096
34.31 	0.057201 	4458 	0.055887
34.33 	0.058376 	4471 	0.057459
34.35 	0.059768 	4484 	0.058854
34.37 	0.053440 	4491 	0.052527
34.39 	0.059529 	4502 	0.058358
34.41 	0.056120 	4526 	0.055085
34.43 	0.062789 	4539 	0.061499
34.45 	0.063286 	4535 	0.062123
34.47 	0.052918 	4592 	0.051642
34.49 	0.052425 	4597 	0.051661
34.51 	0.051889 	4606 	0.051126
34.53 	0.060952 	4643 	0.059564
34.55 	0.057075 	4643 	0.056424
34.57 	0.056223 	4660 	0.055595
34.59 	0.064385 	4675 	0.063759
34.61 	0.052587 	4697 	0.051714
34.63 	0.055839 	4710 	0.055092
34.65 	0.055285 	4721 	0.054664
34.67 	0.061169 	4741 	0.060551
34.69 	0.055322 	4754 	0.054336
34.71 	0.060428 	4766 	0.059568
34.73 	0.059118 	4787 	0.058507
34.75 	0.058860 	4808 	0.057398
34.77 	0.055625 	4818 	0.054895
34.79 	0.058458 	4824 	0.057851
34.81 	0.052425 	4845 	0.051337
34.83 	0.058001 	4862 	0.057017
34.85 	0.058534 	4869 	0.057691
34.87 	0.060394 	4868 	0.059672
34.89 	0.059402 	4882 	0.058442
34.91 	0.059402 	4882 	0.058922
34.93 	0.056542 	4899 	0.055705
34.95 	0.057055 	4890 	0.056336
34.97 	0.057528 	4902 	0.056452
34.99 	0.059628 	4897 	0.058432
35.01 	0.060938 	4923 	0.059511
35.03 	0.056848 	4943 	0.056256
35.05 	0.058015 	4947 	0.057068
35.07 	0.058907 	4940 	0.058195
35.09 	0.051080 	4953 	0.050134
35.11 	0.058824 	4947 	0.057995
35.13 	0.065551 	4958 	0.064251
35.15 	0.059753 	4937 	0.058804
35.17 	0.055398 	4946 	0.054214
35.19 	0.057467 	4942 	0.056617
35.21 	0.059454 	4945 	0.058349
35.23 	0.058038 	4945 	0.057209
35.25 	0.062715 	4943 	0.061411
35.27 	0.059620 	4948 	0.058791
35.29 	0.058645 	4945 	0.056750
35.31 	0.055544 	4933 	0.054832
35.33 	0.054016 	4943 	0.053305
35.35 	0.059895 	4942 	0.058828
35.37 	0.058716 	4939 	0.057985
35.39 	0.058443 	4945 	0.057258
35.41 	0.057044 	4926 	0.055855
35.43 	0.057977 	4933 	0.056770
35.45 	0.054892 	4937 	0.053942
35.47 	0.059826 	4931 	0.058519
35.49 	0.057841 	4910 	0.056887
35.51 	0.055826 	4926 	0.054142
35.53 	0.063649 	4949 	0.061973
35.55 	0.061476 	4945 	0.060765
35.57 	0.056558 	4933 	0.055370
35.59 	0.053792 	4945 	0.052844
35.61 	0.057264 	4942 	0.056178
35.63 	0.055027 	4943 	0.054079
35.65 	0.054601 	4945 	0.054127
35.67 	0.055443 	4942 	0.054594
35.69 	0.058027 	4946 	0.056961
35.71 	0.060968 	4937 	0.060256
35.73 	0.061994 	4936 	0.061163
35.75 	0.057798 	4931 	0.056610
35.77 	0.056554 	4951 	0.055371
35.79 	0.057178 	4932 	0.056584
35.81 	0.060004 	4933 	0.058935
35.83 	0.059038 	4946 	0.057853
35.85 	0.051874 	4935 	0.050787
35.87 	0.054438 	4923 	0.053367
35.89 	0.059587 	4934 	0.058874
35.91 	0.062310 	4927 	0.061359
35.93 	0.058047 	4927 	0.057215
35.95 	0.054301 	4917 	0.053467
35.97 	0.059243 	4912 	0.058766
35.99 	0.057704 	4939 	0.056854
36.01 	0.059838 	4930 	0.058887
36.03 	0.059276 	4943 	0.057972
36.05 	0.058443 	4945 	0.057495
36.07 	0.051832 	4939 	0.051002
36.09 	0.061336 	4940 	0.060506
36.11 	0.054169 	4929 	0.053575
36.13 	0.053622 	4942 	0.052792
36.15 	0.057906 	4939 	0.057432
36.17 	0.057868 	4925 	0.057035
36.19 	0.061943 	4940 	0.060283
36.21 	0.058430 	4929 	0.057954
36.23 	0.059574 	4935 	0.058031
36.25 	0.059300 	4941 	0.057640
36.27 	0.059695 	4925 	0.058368
36.29 	0.060840 	4931 	0.060246
36.31 	0.057833 	4928 	0.057238
36.33 	0.055139 	4933 	0.053714
36.35 	0.054372 	4929 	0.053897
36.37 	0.061345 	4923 	0.060155
36.39 	0.054460 	4921 	0.053627
36.41 	0.055760 	4896 	0.054563
36.43 	0.054992 	4928 	0.054041
36.45 	0.065517 	4930 	0.063834
36.47 	0.056929 	4936 	0.056335
36.49 	0.051801 	4942 	0.050853
36.51 	0.059193 	4933 	0.058124
36.53 	0.057050 	4943 	0.056576
36.55 	0.058453 	4927 	0.057621
36.57 	0.058370 	4934 	0.057065
36.59 	0.058109 	4939 	0.057397
36.61 	0.056986 	4931 	0.056511
36.63 	0.057189 	4931 	0.056219
36.65 	0.056975 	4932 	0.055075
36.67 	0.056592 	4930 	0.055166
36.69 	0.063096 	4929 	0.062126
36.71 	0.058525 	4921 	0.057334
36.73 	0.058071 	4925 	0.057576
36.75 	0.058252 	4944 	0.056831
36.77 	0.060785 	4919 	0.059436
36.79 	0.052022 	4921 	0.051189
36.81 	0.052889 	4916 	0.052054
36.83 	0.058393 	4915 	0.057062
36.85 	0.058595 	4898 	0.058237
36.87 	0.059871 	4944 	0.058804
36.89 	0.057160 	4916 	0.056207
36.91 	0.058288 	4941 	0.057221
36.93 	0.055781 	4930 	0.054712
36.95 	0.057369 	4933 	0.056538
36.97 	0.061208 	4934 	0.060139
36.99 	0.049240 	4935 	0.048528
37.01 	0.062031 	4933 	0.060962
37.03 	0.054224 	4924 	0.053391
37.05 	0.054394 	4927 	0.053205
37.07 	0.056738 	4935 	0.055432
37.09 	0.059456 	4928 	0.058386
37.11 	0.061196 	4935 	0.059139
37.13 	0.058083 	4924 	0.057112
37.15 	0.053168 	4909 	0.051974
37.17 	0.064045 	4934 	0.062502
37.19 	0.054416 	4925 	0.053465
37.21 	0.058369 	4917 	0.057416
37.23 	0.055510 	4918 	0.054796
37.25 	0.056608 	4911 	0.056011
37.27 	0.061708 	4894 	0.060751
37.29 	0.059635 	4930 	0.058566
37.31 	0.060385 	4935 	0.059673
37.33 	0.056018 	4927 	0.054661
37.35 	0.054273 	4938 	0.053443
37.37 	0.053785 	4927 	0.053072
37.39 	0.058203 	4931 	0.057490
37.41 	0.059014 	4931 	0.057589
37.43 	0.057786 	4932 	0.056479
37.45 	0.056661 	4924 	0.056185
37.47 	0.048489 	4929 	0.047775
37.49 	0.055048 	4923 	0.054215
37.51 	0.057977 	4933 	0.057007
37.53 	0.057125 	4919 	0.055796
37.55 	0.055375 	4930 	0.054068
37.57 	0.058071 	4925 	0.057357
37.59 	0.051679 	4915 	0.050725
37.61 	0.050589 	4922 	0.049518
37.63 	0.054076 	4919 	0.053004
37.65 	0.059577 	4918 	0.058624
37.67 	0.056281 	4904 	0.055564
37.69 	0.056350 	4898 	0.055512
37.71 	0.058835 	4929 	0.057885
37.73 	0.060256 	4929 	0.059067
37.75 	0.055870 	4940 	0.054803
37.77 	0.052642 	4920 	0.051928
37.79 	0.054970 	4930 	0.053643
37.81 	0.056761 	4933 	0.055929
37.83 	0.054065 	4920 	0.053232
37.85 	0.057497 	4922 	0.057140
37.87 	0.056894 	4939 	0.055945
37.89 	0.056447 	4925 	0.055614
37.91 	0.058012 	4930 	0.056943
37.93 	0.055092 	4919 	0.054497
37.95 	0.049990 	4921 	0.049276
37.97 	0.051938 	4929 	0.051581
37.99 	0.056189 	4912 	0.055096
38.01 	0.056209 	4928 	0.055358
38.03 	0.058464 	4909 	0.057271
38.05 	0.051777 	4925 	0.050687
38.07 	0.058260 	4909 	0.057664
38.09 	0.054121 	4878 	0.053040
38.11 	0.058561 	4935 	0.057730
38.13 	0.057930 	4937 	0.056961
38.15 	0.057340 	4918 	0.056268
38.17 	0.056389 	4930 	0.055201
38.19 	0.059838 	4930 	0.059125
38.21 	0.068048 	4923 	0.066739
38.23 	0.059133 	4938 	0.058184
38.25 	0.057962 	4917 	0.057128
38.27 	0.061460 	4930 	0.060391
38.29 	0.067425 	4924 	0.066592
38.31 	0.062310 	4927 	0.061953
38.33 	0.070065 	4924 	0.069232
38.35 	0.070414 	4928 	0.069443
38.37 	0.074330 	4924 	0.072664
38.39 	0.070890 	4909 	0.069100
38.41 	0.069673 	4923 	0.068721
38.43 	0.076892 	4916 	0.075104
38.45 	0.074420 	4918 	0.072733
38.47 	0.076625 	4907 	0.074934
38.49 	0.071765 	4877 	0.069824
38.51 	0.076237 	4932 	0.073980
38.53 	0.082573 	4929 	0.080651
38.55 	0.081848 	4936 	0.079711
38.57 	0.079423 	4923 	0.077619
38.59 	0.082047 	4924 	0.079886
38.61 	0.084887 	4936 	0.082513
38.63 	0.074127 	4924 	0.072323
38.65 	0.084994 	4918 	0.082910
38.67 	0.077172 	4937 	0.075274
38.69 	0.080455 	4922 	0.077480
38.71 	0.066816 	4924 	0.065487
38.73 	0.071167 	4918 	0.069976
38.75 	0.071240 	4927 	0.070408
38.77 	0.068048 	4923 	0.065668
38.79 	0.061613 	4934 	0.060664
38.81 	0.065961 	4912 	0.064491
38.83 	0.063224 	4919 	0.062272
38.85 	0.057410 	4912 	0.055860
38.87 	0.058644 	4911 	0.057690
38.89 	0.057790 	4897 	0.056953
38.91 	0.052009 	4903 	0.051292
38.93 	0.055691 	4938 	0.054860
38.95 	0.049004 	4918 	0.048646
38.97 	0.054147 	4931 	0.052683
38.99 	0.054689 	4937 	0.054214
39.01 	0.053884 	4918 	0.053050
39.03 	0.051074 	4934 	0.049749
39.05 	0.054619 	4925 	0.054262
39.07 	0.052803 	4924 	0.051970
39.09 	0.049766 	4923 	0.048933
39.11 	0.051308 	4931 	0.050476
39.13 	0.050985 	4923 	0.050390
39.15 	0.050458 	4915 	0.050100
39.17 	0.046182 	4937 	0.045707
39.19 	0.049217 	4917 	0.048145
39.21 	0.045825 	4910 	0.044870
39.23 	0.043046 	4925 	0.042689
39.25 	0.047135 	4922 	0.047016
39.27 	0.048676 	4910 	0.047960
39.29 	0.051826 	4901 	0.050511
39.31 	0.047502 	4884 	0.046662
39.33 	0.050294 	4931 	0.049462
39.35 	0.044377 	4935 	0.044021
39.37 	0.046460 	4929 	0.045984
39.39 	0.048083 	4929 	0.047251
39.41 	0.046035 	4931 	0.045085
39.43 	0.042976 	4933 	0.042857
39.45 	0.050152 	4925 	0.049558
39.47 	0.042657 	4923 	0.041943
39.49 	0.048044 	4933 	0.046956
39.51 	0.047116 	4924 	0.046521
39.53 	0.050782 	4923 	0.049830
39.55 	0.045741 	4919 	0.044312
39.57 	0.047436 	4933 	0.046961
39.59 	0.044992 	4912 	0.044634
39.61 	0.044282 	4923 	0.043568
39.63 	0.052011 	4922 	0.051059
39.65 	0.047909 	4926 	0.047414
39.67 	0.038673 	4913 	0.038315
39.69 	0.050041 	4916 	0.049445
39.71 	0.039632 	4895 	0.039513
39.73 	0.051548 	4908 	0.050713
39.75 	0.048498 	4928 	0.047547
39.77 	0.045187 	4935 	0.044357
39.79 	0.041007 	4926 	0.040650
39.81 	0.042216 	4927 	0.041860
39.83 	0.049858 	4934 	0.049027
39.85 	0.046276 	4927 	0.045562
39.87 	0.047107 	4925 	0.046512
39.89 	0.044183 	4934 	0.043471
39.91 	0.045713 	4922 	0.045594
39.93 	0.051448 	4937 	0.051211
39.95 	0.045168 	4915 	0.044810
39.97 	0.045657 	4928 	0.045301
39.99 	0.047851 	4932 	0.047138
40.01 	0.046767 	4918 	0.046171
40.03 	0.038555 	4928 	0.038080
40.05 	0.048607 	4917 	0.047892
40.07 	0.049766 	4923 	0.048695
40.09 	0.045769 	4916 	0.045054
40.11 	0.048617 	4916 	0.048021
40.13 	0.044730 	4896 	0.044371
40.15 	0.044576 	4913 	0.043979
40.17 	0.042817 	4928 	0.042460
40.19 	0.045040 	4929 	0.043732
40.21 	0.040729 	4935 	0.040373
40.23 	0.046837 	4932 	0.046124
40.25 	0.044715 	4920 	0.044239
40.27 	0.049018 	4937 	0.047950
40.29 	0.042216 	4927 	0.041741
40.31 	0.041101 	4939 	0.040746
40.33 	0.039132 	4932 	0.038538
40.35 	0.041269 	4919 	0.040911
40.37 	0.039359 	4929 	0.039002
40.39 	0.043399 	4931 	0.042924
40.41 	0.045076 	4925 	0.044838
40.43 	0.042259 	4922 	0.041783
40.45 	0.043381 	4933 	0.042669
40.47 	0.045954 	4918 	0.045219
40.49 	0.040398 	4926 	0.039684
40.51 	0.042056 	4922 	0.041342
40.53 	0.046583 	4916 	0.045748
40.55 	0.040954 	4908 	0.040476
40.57 	0.037628 	4890 	0.037029
40.59 	0.044359 	4937 	0.043766
40.61 	0.045998 	4935 	0.045404
40.63 	0.042394 	4930 	0.041799
40.65 	0.038890 	4937 	0.038890
40.67 	0.042579 	4932 	0.042460
40.69 	0.048207 	4937 	0.047357
40.71 	0.044809 	4932 	0.043740
40.73 	0.038977 	4926 	0.038739
40.75 	0.048063 	4931 	0.047944
40.77 	0.040089 	4939 	0.039970
40.79 	0.038790 	4924 	0.038195
40.81 	0.048168 	4941 	0.047457
40.83 	0.040179 	4928 	0.039822
40.85 	0.044273 	4924 	0.044035
40.87 	0.045455 	4928 	0.045098
40.89 	0.041371 	4931 	0.041015
40.91 	0.038797 	4923 	0.038203
40.93 	0.044386 	4934 	0.043674
40.95 	0.047018 	4913 	0.046541
40.97 	0.041024 	4924 	0.040786
40.99 	0.041430 	4924 	0.040102
41.01 	0.041327 	4912 	0.041089
41.03 	0.038532 	4905 	0.038293
41.05 	0.041532 	4936 	0.040820
41.07 	0.042799 	4930 	0.042324
41.09 	0.040089 	4939 	0.039615
41.11 	0.041945 	4935 	0.041233
41.13 	0.041126 	4936 	0.041126
41.15 	0.039061 	4941 	0.038705
41.17 	0.040940 	4934 	0.040347
41.19 	0.043611 	4930 	0.043254
41.21 	0.041726 	4937 	0.040895
41.23 	0.039684 	4939 	0.039447
41.25 	0.041557 	4933 	0.041201
41.27 	0.046238 	4931 	0.045763
41.29 	0.044237 	4928 	0.043762
41.31 	0.039530 	4933 	0.038580
41.33 	0.038282 	4937 	0.038164
41.35 	0.037870 	4938 	0.037227
41.37 	0.041836 	4924 	0.041360
41.39 	0.037503 	4933 	0.037265
41.41 	0.038368 	4926 	0.038011
41.43 	0.037127 	4929 	0.036890
41.45 	0.042125 	4914 	0.041529
41.47 	0.042022 	4926 	0.040952
41.49 	0.042518 	4892 	0.041800
41.51 	0.037247 	4940 	0.036891
41.53 	0.043083 	4944 	0.042846
41.55 	0.039919 	4935 	0.039563
41.57 	0.039061 	4941 	0.038705
41.59 	0.040341 	4933 	0.039866
41.61 	0.038562 	4953 	0.037971
41.63 	0.037465 	4938 	0.036753
41.65 	0.039359 	4929 	0.038765
41.67 	0.044130 	4940 	0.043280
41.69 	0.042248 	4947 	0.041656
41.71 	0.035874 	4934 	0.035399
41.73 	0.039100 	4936 	0.038626
41.75 	0.041793 	4929 	0.041556
41.77 	0.041490 	4941 	0.040996
41.79 	0.033374 	4944 	0.033018
41.81 	0.044368 	4936 	0.043893
41.83 	0.040381 	4928 	0.040025
41.85 	0.038874 	4939 	0.038518
41.87 	0.037690 	4935 	0.037334
41.89 	0.040543 	4933 	0.040068
41.91 	0.043558 	4936 	0.042964
41.93 	0.040146 	4932 	0.039196
41.95 	0.040965 	4931 	0.040609
41.97 	0.037648 	4914 	0.037409
41.99 	0.040979 	4905 	0.040262
42.01 	0.039862 	4942 	0.039388
42.03 	0.042316 	4939 	0.042079
42.05 	0.033724 	4952 	0.033605
42.07 	0.036459 	4937 	0.036341
42.09 	0.034559 	4948 	0.033474
42.11 	0.040849 	4945 	0.040376
42.13 	0.039232 	4945 	0.038521
42.15 	0.043337 	4938 	0.043337
42.17 	0.035584 	4918 	0.035226
42.19 	0.037897 	4908 	0.037659
42.21 	0.043052 	4901 	0.042933
42.23 	0.033933 	4892 	0.033574
42.25 	0.038454 	4889 	0.037495
42.27 	0.038777 	4874 	0.038176
42.29 	0.032901 	4863 	0.032661
42.31 	0.036045 	4855 	0.035563
42.33 	0.037029 	4834 	0.036666
42.35 	0.035552 	4838 	0.035189
42.37 	0.039752 	4830 	0.039388
42.39 	0.035387 	4804 	0.035021
42.41 	0.037261 	4804 	0.036895
42.43 	0.040484 	4792 	0.039506
42.45 	0.039363 	4776 	0.038628
42.47 	0.035047 	4765 	0.034433
42.49 	0.041133 	4765 	0.040887
42.51 	0.038372 	4743 	0.037878
42.53 	0.044416 	4728 	0.043921
42.55 	0.045667 	4708 	0.044920
42.57 	0.034038 	4730 	0.033790
42.59 	0.039332 	4729 	0.039084
42.61 	0.035047 	4708 	0.034798
42.63 	0.039711 	4709 	0.039462
42.65 	0.044824 	4685 	0.044449
42.67 	0.043126 	4684 	0.042375
42.69 	0.042576 	4674 	0.041949
42.71 	0.041175 	4663 	0.040421
42.73 	0.039224 	4640 	0.038972
42.75 	0.037687 	4617 	0.037433
42.77 	0.038696 	4600 	0.038441
42.79 	0.040812 	4582 	0.040173
42.81 	0.037703 	4562 	0.036932
42.83 	0.044533 	4536 	0.043499
42.85 	0.037102 	4528 	0.036844
42.87 	0.041565 	4499 	0.040914
42.89 	0.032366 	4480 	0.032366
42.91 	0.040844 	4456 	0.040449
42.93 	0.034188 	4446 	0.034056
42.95 	0.042120 	4416 	0.041987
42.97 	0.035674 	4401 	0.035274
42.99 	0.034892 	4385 	0.034892
43.01 	0.035297 	4363 	0.035163
43.03 	0.041080 	4333 	0.040404
43.05 	0.034220 	4325 	0.033949
43.07 	0.038641 	4296 	0.038232
43.09 	0.040859 	4283 	0.040586
43.11 	0.043243 	4255 	0.042555
43.13 	0.038471 	4237 	0.038056
43.15 	0.037803 	4206 	0.037362
43.17 	0.035894 	4179 	0.035473
43.19 	0.037196 	4194 	0.036777
43.21 	0.039070 	4172 	0.038789
43.23 	0.036591 	4154 	0.036168
43.25 	0.040145 	4135 	0.039720
43.27 	0.038733 	4105 	0.038591
43.29 	0.034878 	4100 	0.034735
43.31 	0.036038 	4079 	0.035607
43.33 	0.037768 	4051 	0.037768
43.35 	0.035714 	4032 	0.035278
43.37 	0.035367 	4015 	0.035076
43.39 	0.038731 	4002 	0.037852
43.41 	0.037009 	3972 	0.036714
43.43 	0.035354 	3960 	0.035058
43.45 	0.041931 	3935 	0.041187
43.47 	0.036725 	3921 	0.035829
43.49 	0.046446 	3897 	0.045544
43.51 	0.031726 	3877 	0.031121
43.53 	0.048926 	3863 	0.047713
43.55 	0.037112 	2964 	0.036914
43.57 	0.040661 	2238 	0.040138
43.59 	0.036082 	1746 	0.035411
43.61 	0.037750 	1351 	0.037316
43.63 	0.052947 	1001 	0.052362
43.65 	0.039301 	687 	0.039301
43.67 	0.031873 	502 	0.031873
43.69 	0.043597 	367 	0.043597
43.71 	0.029289 	239 	0.029289
43.73 	0.016667 	120 	0.016667
43.75 	0.187500 	16 	0.187500