File: Example_Data/25SC_s1_0044.000.dat
#F C:\frames\spec\25SC_s1_0044.000
#C title =s:44 frm:0 25SC_s1
#C wavelength =0.15406

#S 1  fr_average C:\frames\spec\25SC_s1_0044.000 C:\win32app\speccom\mask.axs chi 0 180 0 360 0.02
#C 2 theta =0.000000 to 180 deg
#C   q   =0.000000 to 81.568 nm^-1
#C  chi  =0.000000 to 360 deg
#C collumns:
#C  1 position (2theta or chi in degrees)
#C  2 average intensity (sum of all counts in the region divided with number of pixels)
#C  3 Number of pixels in region)
#C  4 error (sum of sqrt(intensity) for all pixels divided by number)
#N 4
#L TTh  Int  N_pix  Err
32.99 	0.049180 	61 	0.049180
33.01 	0.063001 	873 	0.061659
33.03 	0.055356 	1391 	0.054935
33.05 	0.063745 	1757 	0.063078
33.07 	0.065366 	2050 	0.064509
33.09 	0.056242 	2347 	0.055743
33.11 	0.055060 	2579 	0.054152
33.13 	0.061224 	2793 	0.060176
33.15 	0.062021 	2999 	0.060653
33.17 	0.060606 	3201 	0.059874
33.19 	0.063136 	3342 	0.062435
33.21 	0.059371 	3436 	0.057496
33.23 	0.056202 	3523 	0.055204
33.25 	0.063400 	3612 	0.061129
33.27 	0.058678 	3630 	0.057871
33.29 	0.067708 	3648 	0.066584
33.31 	0.054645 	3660 	0.053524
33.33 	0.062398 	3686 	0.060968
33.35 	0.070384 	3694 	0.069274
33.37 	0.061389 	3714 	0.060128
33.39 	0.056315 	3729 	0.055530
33.41 	0.059626 	3740 	0.058843
33.43 	0.050253 	3761 	0.049630
33.45 	0.062285 	3773 	0.060887
33.47 	0.062401 	3798 	0.061476
33.49 	0.058546 	3809 	0.057136
33.51 	0.060550 	3815 	0.059783
33.53 	0.056756 	3841 	0.055536
33.55 	0.062972 	3843 	0.061575
33.57 	0.056745 	3877 	0.055813
33.59 	0.057732 	3880 	0.056977
33.61 	0.062676 	3909 	0.061177
33.63 	0.060219 	3919 	0.058850
33.65 	0.066650 	3931 	0.065160
33.67 	0.056146 	3954 	0.055405
33.69 	0.060207 	3953 	0.059466
33.71 	0.061887 	3975 	0.061150
33.73 	0.066683 	4004 	0.064757
33.75 	0.058015 	3999 	0.057282
33.77 	0.060621 	4025 	0.059311
33.79 	0.059886 	4041 	0.057857
33.81 	0.056464 	4038 	0.055738
33.83 	0.055309 	4050 	0.054296
33.85 	0.061966 	4099 	0.060537
33.87 	0.058380 	4111 	0.057810
33.89 	0.058238 	4121 	0.057243
33.91 	0.061943 	4149 	0.061237
33.93 	0.061913 	4151 	0.061348
33.95 	0.070318 	4181 	0.068193
33.97 	0.055370 	4190 	0.054391
33.99 	0.063810 	4200 	0.062833
34.01 	0.057441 	4213 	0.056885
34.03 	0.059614 	4244 	0.058371
34.05 	0.061618 	4252 	0.059827
34.07 	0.051546 	4268 	0.050723
34.09 	0.061829 	4286 	0.060872
34.11 	0.056718 	4302 	0.055901
34.13 	0.061049 	4308 	0.060097
34.15 	0.059571 	4331 	0.058489
34.17 	0.061379 	4350 	0.059763
34.19 	0.058918 	4362 	0.057978
34.21 	0.060398 	4371 	0.059192
34.23 	0.056681 	4393 	0.056148
34.25 	0.056540 	4404 	0.055741
34.27 	0.067164 	4422 	0.066502
34.29 	0.058399 	4435 	0.057210
34.31 	0.061014 	4458 	0.060094
34.33 	0.058600 	4471 	0.057028
34.35 	0.050178 	4484 	0.049656
34.37 	0.058339 	4491 	0.056622
34.39 	0.058196 	4502 	0.057676
34.41 	0.062970 	4526 	0.061934
34.43 	0.062789 	4539 	0.061219
34.45 	0.056670 	4535 	0.055895
34.47 	0.053789 	4592 	0.053279
34.49 	0.059387 	4597 	0.058367
34.51 	0.054928 	4606 	0.054165
34.53 	0.052552 	4643 	0.051921
34.55 	0.054275 	4643 	0.053392
34.57 	0.057940 	4660 	0.056662
34.59 	0.056471 	4675 	0.055719
34.61 	0.056206 	4697 	0.054959
34.63 	0.055414 	4710 	0.054399
34.65 	0.057403 	4721 	0.056410
34.67 	0.068340 	4741 	0.067104
34.69 	0.062263 	4754 	0.061524
34.71 	0.065044 	4766 	0.063672
34.73 	0.059118 	4787 	0.058139
34.75 	0.052829 	4808 	0.052098
34.77 	0.061436 	4818 	0.059836
34.79 	0.053690 	4824 	0.052476
34.81 	0.053044 	4845 	0.051956
34.83 	0.052448 	4862 	0.051484
34.85 	0.056891 	4869 	0.056048
34.87 	0.060394 	4868 	0.059432
34.89 	0.060016 	4882 	0.059056
34.91 	0.057149 	4882 	0.055709
34.93 	0.054705 	4899 	0.054107
34.95 	0.059918 	4890 	0.058840
34.97 	0.050184 	4902 	0.049447
34.99 	0.057178 	4897 	0.055862
35.01 	0.056470 	4923 	0.055994
35.03 	0.061097 	4943 	0.060148
35.05 	0.061047 	4947 	0.060199
35.07 	0.062146 	4940 	0.060960
35.09 	0.057541 	4953 	0.056713
35.11 	0.057611 	4947 	0.056525
35.13 	0.051634 	4958 	0.051279
35.15 	0.053069 	4937 	0.051645
35.17 	0.061868 	4946 	0.060921
35.19 	0.059288 	4942 	0.058221
35.21 	0.056623 	4945 	0.055557
35.23 	0.061881 	4945 	0.061051
35.25 	0.060085 	4943 	0.058880
35.27 	0.061439 	4948 	0.060729
35.29 	0.060870 	4945 	0.060021
35.31 	0.060004 	4933 	0.059054
35.33 	0.052802 	4943 	0.051972
35.35 	0.062121 	4942 	0.061172
35.37 	0.057906 	4939 	0.056701
35.39 	0.054601 	4945 	0.053890
35.41 	0.058059 	4926 	0.056989
35.43 	0.053720 	4933 	0.052394
35.45 	0.060766 	4937 	0.059935
35.47 	0.055770 	4931 	0.054700
35.49 	0.056008 	4910 	0.054657
35.51 	0.058668 	4926 	0.057598
35.53 	0.064457 	4949 	0.063037
35.55 	0.058645 	4945 	0.057934
35.57 	0.055950 	4933 	0.055237
35.59 	0.053185 	4945 	0.052237
35.61 	0.058883 	4942 	0.058172
35.63 	0.056443 	4943 	0.055732
35.65 	0.059656 	4945 	0.058709
35.67 	0.058681 	4942 	0.057377
35.69 	0.060251 	4946 	0.059185
35.71 	0.059348 	4937 	0.058399
35.73 	0.056929 	4936 	0.055861
35.75 	0.060028 	4931 	0.059316
35.77 	0.049687 	4951 	0.048839
35.79 	0.059408 	4932 	0.058695
35.81 	0.058585 	4933 	0.057516
35.83 	0.060857 	4946 	0.059318
35.85 	0.060182 	4935 	0.058877
35.87 	0.058704 	4923 	0.057633
35.89 	0.059789 	4934 	0.059314
35.91 	0.051756 	4927 	0.051280
35.93 	0.058047 	4927 	0.057096
35.95 	0.060199 	4917 	0.059365
35.97 	0.064332 	4912 	0.062901
35.99 	0.054667 	4939 	0.053955
36.01 	0.058621 	4930 	0.058027
36.03 	0.054623 	4943 	0.052944
36.05 	0.060870 	4945 	0.059922
36.07 	0.056894 	4939 	0.056064
36.09 	0.060121 	4940 	0.059410
36.11 	0.055589 	4929 	0.054995
36.13 	0.062930 	4942 	0.061626
36.15 	0.051022 	4939 	0.049936
36.17 	0.064975 	4925 	0.063428
36.19 	0.061943 	4940 	0.060639
36.21 	0.058024 	4929 	0.056954
36.23 	0.055319 	4935 	0.054469
36.25 	0.057478 	4941 	0.056411
36.27 	0.061523 	4925 	0.060571
36.29 	0.055567 	4931 	0.055092
36.31 	0.058847 	4928 	0.057064
36.33 	0.063248 	4933 	0.062060
36.35 	0.061879 	4929 	0.061284
36.37 	0.061142 	4923 	0.060309
36.39 	0.061979 	4921 	0.061146
36.41 	0.060049 	4896 	0.059211
36.43 	0.056209 	4928 	0.054288
36.45 	0.058621 	4930 	0.057076
36.47 	0.057131 	4936 	0.056182
36.49 	0.056455 	4942 	0.055744
36.51 	0.056558 	4933 	0.055964
36.53 	0.056848 	4943 	0.055781
36.55 	0.056424 	4927 	0.055473
36.57 	0.057762 	4934 	0.056694
36.59 	0.053857 	4939 	0.052908
36.61 	0.056581 	4931 	0.055611
36.63 	0.051511 	4931 	0.050560
36.65 	0.057583 	4932 	0.056514
36.67 	0.056389 	4930 	0.055795
36.69 	0.059444 	4929 	0.057899
36.71 	0.057509 	4921 	0.056675
36.73 	0.059898 	4925 	0.058352
36.75 	0.058252 	4944 	0.057305
36.77 	0.062614 	4919 	0.061285
36.79 	0.062995 	4921 	0.061567
36.81 	0.054109 	4916 	0.052917
36.83 	0.063479 	4915 	0.062645
36.85 	0.055125 	4898 	0.054168
36.87 	0.053196 	4944 	0.052366
36.89 	0.051261 	4916 	0.050665
36.91 	0.055050 	4941 	0.054082
36.93 	0.051724 	4930 	0.051249
36.95 	0.058180 	4933 	0.056636
36.97 	0.054520 	4934 	0.054045
36.99 	0.059574 	4935 	0.058981
37.01 	0.061423 	4933 	0.060592
37.03 	0.056864 	4924 	0.055556
37.05 	0.059468 	4927 	0.058279
37.07 	0.057548 	4935 	0.056005
37.09 	0.061485 	4928 	0.060515
37.11 	0.060385 	4935 	0.059673
37.13 	0.055443 	4924 	0.054234
37.15 	0.060297 	4909 	0.059581
37.17 	0.062221 	4934 	0.061015
37.19 	0.064365 	4925 	0.062819
37.21 	0.054708 	4917 	0.054351
37.23 	0.062424 	4918 	0.061828
37.25 	0.054164 	4911 	0.053091
37.27 	0.055170 	4894 	0.054451
37.29 	0.058012 	4930 	0.057062
37.31 	0.053495 	4935 	0.053021
37.33 	0.051959 	4927 	0.051126
37.35 	0.055488 	4938 	0.054539
37.37 	0.056221 	4927 	0.055626
37.39 	0.051511 	4931 	0.049966
37.41 	0.059217 	4931 	0.058029
37.43 	0.056772 	4932 	0.055703
37.45 	0.053615 	4924 	0.052901
37.47 	0.057415 	4929 	0.056940
37.49 	0.054641 	4923 	0.053809
37.51 	0.062842 	4933 	0.061061
37.53 	0.056719 	4919 	0.055885
37.55 	0.053550 	4930 	0.052480
37.57 	0.055025 	4925 	0.053955
37.59 	0.053306 	4915 	0.052472
37.61 	0.058919 	4922 	0.057372
37.63 	0.058752 	4919 	0.057085
37.65 	0.053884 	4918 	0.052693
37.67 	0.056281 	4904 	0.055206
37.69 	0.058187 	4898 	0.057689
37.71 	0.057415 	4929 	0.056346
37.73 	0.059241 	4929 	0.058409
37.75 	0.058300 	4940 	0.057351
37.77 	0.053862 	4920 	0.053147
37.79 	0.053753 	4930 	0.053158
37.81 	0.059193 	4933 	0.057649
37.83 	0.060976 	4920 	0.059408
37.85 	0.061560 	4922 	0.060370
37.87 	0.058919 	4939 	0.058326
37.89 	0.058883 	4925 	0.058170
37.91 	0.057404 	4930 	0.056928
37.93 	0.057939 	4919 	0.057105
37.95 	0.057102 	4921 	0.056626
37.97 	0.059850 	4929 	0.058424
37.99 	0.057614 	4912 	0.057018
38.01 	0.057224 	4928 	0.056511
38.03 	0.060501 	4909 	0.059546
38.05 	0.055838 	4925 	0.055342
38.07 	0.063353 	4909 	0.061921
38.09 	0.058016 	4878 	0.057275
38.11 	0.058156 	4935 	0.057068
38.13 	0.065222 	4937 	0.064035
38.15 	0.057137 	4918 	0.056303
38.17 	0.060243 	4930 	0.059055
38.19 	0.059432 	4930 	0.058719
38.21 	0.061954 	4923 	0.061121
38.23 	0.073917 	4938 	0.072849
38.25 	0.073419 	4917 	0.071989
38.27 	0.070791 	4930 	0.069841
38.29 	0.069456 	4924 	0.067552
38.31 	0.066775 	4927 	0.064715
38.33 	0.080016 	4924 	0.078064
38.35 	0.074472 	4928 	0.073284
38.37 	0.076970 	4924 	0.075542
38.39 	0.078224 	4909 	0.076314
38.41 	0.079220 	4923 	0.078030
38.43 	0.081367 	4916 	0.078269
38.45 	0.081537 	4918 	0.080108
38.47 	0.083350 	4907 	0.081082
38.49 	0.080992 	4877 	0.078951
38.51 	0.082522 	4932 	0.081097
38.53 	0.085007 	4929 	0.082848
38.55 	0.082253 	4936 	0.080354
38.57 	0.080845 	4923 	0.079179
38.59 	0.077985 	4924 	0.076677
38.61 	0.076175 	4936 	0.074870
38.63 	0.071690 	4924 	0.070381
38.65 	0.072590 	4918 	0.071022
38.67 	0.068665 	4937 	0.067360
38.69 	0.073547 	4922 	0.071862
38.71 	0.072299 	4924 	0.070495
38.73 	0.070964 	4918 	0.069773
38.75 	0.062716 	4927 	0.061626
38.77 	0.057282 	4923 	0.055478
38.79 	0.058573 	4934 	0.057505
38.81 	0.046824 	4912 	0.046228
38.83 	0.052246 	4919 	0.051651
38.85 	0.058428 	4912 	0.057474
38.87 	0.054368 	4911 	0.053771
38.89 	0.057790 	4897 	0.056933
38.91 	0.053845 	4903 	0.052889
38.93 	0.048400 	4938 	0.047570
38.95 	0.052257 	4918 	0.051304
38.97 	0.049280 	4931 	0.047973
38.99 	0.042536 	4937 	0.042299
39.01 	0.047377 	4918 	0.047139
39.03 	0.050466 	4934 	0.049991
39.05 	0.046294 	4925 	0.045442
39.07 	0.053412 	4924 	0.052222
39.09 	0.042454 	4923 	0.041621
39.11 	0.052119 	4931 	0.051268
39.13 	0.046516 	4923 	0.045683
39.15 	0.051068 	4915 	0.050115
39.17 	0.045777 	4937 	0.045065
39.19 	0.044539 	4917 	0.044182
39.21 	0.044196 	4910 	0.043838
39.23 	0.046294 	4925 	0.045918
39.25 	0.047338 	4922 	0.046624
39.27 	0.046029 	4910 	0.045293
39.29 	0.042644 	4901 	0.042405
39.31 	0.047912 	4884 	0.047552
39.33 	0.050497 	4931 	0.049665
39.35 	0.040122 	4935 	0.039647
39.37 	0.051938 	4929 	0.051938
39.39 	0.049300 	4929 	0.048230
39.41 	0.043196 	4931 	0.042602
39.43 	0.047436 	4933 	0.047198
39.45 	0.050558 	4925 	0.050083
39.47 	0.051188 	4923 	0.050355
39.49 	0.043989 	4933 	0.043396
39.51 	0.047319 	4924 	0.046962
39.53 	0.046516 	4923 	0.045445
39.55 	0.050213 	4919 	0.049380
39.57 	0.049260 	4933 	0.048666
39.59 	0.045195 	4912 	0.044718
39.61 	0.042860 	4923 	0.042384
39.63 	0.050386 	4922 	0.049315
39.65 	0.054202 	4926 	0.053251
39.67 	0.042133 	4913 	0.041656
39.69 	0.046786 	4916 	0.046071
39.71 	0.043922 	4895 	0.043324
39.73 	0.040546 	4908 	0.039711
39.75 	0.048904 	4928 	0.047834
39.77 	0.044580 	4935 	0.044223
39.79 	0.047706 	4926 	0.047111
39.81 	0.040390 	4927 	0.040152
39.83 	0.044386 	4934 	0.043417
39.85 	0.047290 	4927 	0.046934
39.87 	0.039391 	4925 	0.038677
39.89 	0.042156 	4934 	0.041682
39.91 	0.043478 	4922 	0.042645
39.93 	0.043346 	4937 	0.042634
39.95 	0.048016 	4915 	0.047420
39.97 	0.043222 	4928 	0.042985
39.99 	0.047242 	4932 	0.046886
40.01 	0.041277 	4918 	0.041158
40.03 	0.044643 	4928 	0.043930
40.05 	0.045556 	4917 	0.044841
40.07 	0.045298 	4923 	0.044822
40.09 	0.043531 	4916 	0.043035
40.11 	0.041497 	4916 	0.040524
40.13 	0.039216 	4896 	0.039096
40.15 	0.044372 	4913 	0.043895
40.17 	0.045049 	4928 	0.044811
40.19 	0.038750 	4929 	0.038631
40.21 	0.042148 	4935 	0.041554
40.23 	0.043390 	4932 	0.042915
40.25 	0.042073 	4920 	0.041716
40.27 	0.041523 	4937 	0.040930
40.29 	0.042419 	4927 	0.041706
40.31 	0.040292 	4939 	0.039580
40.33 	0.038727 	4932 	0.038608
40.35 	0.045944 	4919 	0.045468
40.37 	0.046054 	4929 	0.045203
40.39 	0.041168 	4931 	0.040931
40.41 	0.046294 	4925 	0.044986
40.43 	0.043072 	4922 	0.042834
40.45 	0.042570 	4933 	0.041739
40.47 	0.046157 	4918 	0.045085
40.49 	0.044255 	4926 	0.043898
40.51 	0.048761 	4922 	0.048146
40.53 	0.039870 	4916 	0.039512
40.55 	0.039120 	4908 	0.038762
40.57 	0.042740 	4890 	0.042261
40.59 	0.040510 	4937 	0.039917
40.61 	0.040932 	4935 	0.040339
40.63 	0.039757 	4930 	0.039281
40.65 	0.041726 	4937 	0.041251
40.67 	0.036496 	4932 	0.036140
40.69 	0.043954 	4937 	0.043479
40.71 	0.045012 	4932 	0.044656
40.73 	0.041616 	4926 	0.041140
40.75 	0.037112 	4931 	0.036993
40.77 	0.045151 	4939 	0.044676
40.79 	0.045491 	4924 	0.044659
40.81 	0.048573 	4941 	0.047862
40.83 	0.040990 	4928 	0.040515
40.85 	0.037977 	4924 	0.037858
40.87 	0.045049 	4928 	0.044217
40.89 	0.041168 	4931 	0.040693
40.91 	0.042657 	4923 	0.042062
40.93 	0.044386 	4934 	0.043792
40.95 	0.038469 	4913 	0.037973
40.97 	0.038587 	4924 	0.037992
40.99 	0.033712 	4924 	0.033356
41.01 	0.040717 	4912 	0.040478
41.03 	0.038940 	4905 	0.038701
41.05 	0.046799 	4936 	0.045968
41.07 	0.041176 	4930 	0.040820
41.09 	0.043329 	4939 	0.042261
41.11 	0.037690 	4935 	0.037453
41.13 	0.040721 	4936 	0.039772
41.15 	0.042906 	4941 	0.042551
41.17 	0.039116 	4934 	0.038879
41.19 	0.047059 	4930 	0.046227
41.21 	0.038687 	4937 	0.038094
41.23 	0.047176 	4939 	0.046938
41.25 	0.036894 	4933 	0.036657
41.27 	0.041574 	4931 	0.041099
41.29 	0.045657 	4928 	0.045301
41.31 	0.045003 	4933 	0.044409
41.33 	0.044561 	4937 	0.043711
41.35 	0.042122 	4938 	0.041272
41.37 	0.038993 	4924 	0.038755
41.39 	0.048855 	4933 	0.048142
41.41 	0.039992 	4926 	0.039278
41.43 	0.043011 	4929 	0.042773
41.45 	0.040090 	4914 	0.039613
41.47 	0.038571 	4926 	0.038214
41.49 	0.035159 	4892 	0.035040
41.51 	0.045142 	4940 	0.044430
41.53 	0.041464 	4944 	0.041109
41.55 	0.042756 	4935 	0.041925
41.57 	0.042097 	4941 	0.041385
41.59 	0.038313 	4933 	0.038195
41.61 	0.039774 	4953 	0.039301
41.63 	0.037870 	4938 	0.037395
41.65 	0.043011 	4929 	0.041941
41.67 	0.035020 	4940 	0.034783
41.69 	0.041237 	4947 	0.040645
41.71 	0.037900 	4934 	0.037663
41.73 	0.036669 	4936 	0.036669
41.75 	0.037127 	4929 	0.036890
41.77 	0.039061 	4941 	0.038824
41.79 	0.042071 	4944 	0.041597
41.81 	0.040519 	4936 	0.039807
41.83 	0.043831 	4928 	0.043475
41.85 	0.040089 	4939 	0.039852
41.87 	0.042148 	4935 	0.042029
41.89 	0.040341 	4933 	0.039272
41.91 	0.039303 	4936 	0.038947
41.93 	0.046431 	4932 	0.045481
41.95 	0.039140 	4931 	0.038784
41.97 	0.042328 	4914 	0.041970
41.99 	0.035474 	4905 	0.035116
42.01 	0.042493 	4942 	0.041900
42.03 	0.043531 	4939 	0.042938
42.05 	0.035541 	4952 	0.034950
42.07 	0.038282 	4937 	0.037926
42.09 	0.039814 	4948 	0.039577
42.11 	0.038220 	4945 	0.038102
42.13 	0.033569 	4945 	0.033214
42.15 	0.036047 	4938 	0.035928
42.17 	0.039650 	4918 	0.038578
42.19 	0.035860 	4908 	0.035502
42.21 	0.040400 	4901 	0.039802
42.23 	0.037612 	4892 	0.037493
42.25 	0.040295 	4889 	0.040295
42.27 	0.042470 	4874 	0.041749
42.29 	0.041538 	4863 	0.040936
42.31 	0.035633 	4855 	0.035271
42.33 	0.040132 	4834 	0.039769
42.35 	0.039686 	4838 	0.039323
42.37 	0.037888 	4830 	0.037888
42.39 	0.037469 	4804 	0.037225
42.41 	0.039967 	4804 	0.039845
42.43 	0.034432 	4792 	0.034310
42.45 	0.038945 	4776 	0.038454
42.47 	0.041343 	4765 	0.040974
42.49 	0.035887 	4765 	0.035764
42.51 	0.039427 	4743 	0.039056
42.53 	0.033841 	4728 	0.033325
42.55 	0.043543 	4708 	0.042921
42.57 	0.036575 	4730 	0.036451
42.59 	0.037006 	4729 	0.036139
42.61 	0.035259 	4708 	0.035010
42.63 	0.039924 	4709 	0.039550
42.65 	0.036286 	4685 	0.035036
42.67 	0.042272 	4684 	0.041896
42.69 	0.041292 	4674 	0.041042
42.71 	0.039245 	4663 	0.038994
42.73 	0.041595 	4640 	0.041090
42.75 	0.035954 	4617 	0.035700
42.77 	0.035870 	4600 	0.035870
42.79 	0.036229 	4582 	0.035589
42.81 	0.040991 	4562 	0.040328
42.83 	0.044974 	4536 	0.044328
42.85 	0.038428 	4528 	0.038039
42.87 	0.036008 	4499 	0.035617
42.89 	0.041964 	4480 	0.041834
42.91 	0.037702 	4456 	0.037439
42.93 	0.037112 	4446 	0.036980
42.95 	0.033514 	4416 	0.032851
42.97 	0.032265 	4401 	0.032132
42.99 	0.038312 	4385 	0.037778
43.01 	0.042860 	4363 	0.042592
43.03 	0.039926 	4333 	0.039791
43.05 	0.040925 	4325 	0.040925
43.07 	0.035149 	4296 	0.034604
43.09 	0.039692 	4283 	0.039145
43.11 	0.044888 	4255 	0.044613
43.13 	0.038943 	4237 	0.038666
43.15 	0.038516 	4206 	0.038099
43.17 	0.043312 	4179 	0.042471
43.19 	0.034812 	4194 	0.034253
43.21 	0.037632 	4172 	0.037070
43.23 	0.037313 	4154 	0.037313
43.25 	0.042322 	4135 	0.041755
43.27 	0.041657 	4105 	0.040943
43.29 	0.033171 	4100 	0.032885
43.31 	0.039470 	4079 	0.039327
43.33 	0.035547 	4051 	0.035258
43.35 	0.039435 	4032 	0.038708
43.37 	0.037858 	4015 	0.037274
43.39 	0.033483 	4002 	0.033044
43.41 	0.039778 	3972 	0.039336
43.43 	0.037121 	3960 	0.036973
43.45 	0.041677 	3935 	0.041380
43.47 	0.034940 	3921 	0.034641
43.49 	0.036952 	3897 	0.036801
43.51 	0.040237 	3877 	0.039482
43.53 	0.039607 	3863 	0.039455
43.55 	0.042173 	2964 	0.041382
43.57 	0.042895 	2238 	0.042110
43.59 	0.037801 	1746 	0.037801
43.61 	0.042191 	1351 	0.042191
43.63 	0.038961 	1001 	0.038961
43.65 	0.027656 	687 	0.025951
43.67 	0.037849 	502 	0.037849
43.69 	0.035422 	367 	0.035422
43.71 	0.041841 	239 	0.041841
43.73 	0.041667 	120 	0.041667
43.75 	0.062500 	16 	0.062500