File: Example_Data/25SC_s1_0043.004.dat
#F C:\frames\spec\25SC_s1_0043.004
#C title =s:43 frm:4 25SC_s1
#C wavelength =0.15406

#S 1  fr_average C:\frames\spec\25SC_s1_0043.004 C:\win32app\speccom\mask.axs chi 0 180 0 360 0.02
#C 2 theta =0.000000 to 180 deg
#C   q   =0.000000 to 81.568 nm^-1
#C  chi  =0.000000 to 360 deg
#C collumns:
#C  1 position (2theta or chi in degrees)
#C  2 average intensity (sum of all counts in the region divided with number of pixels)
#C  3 Number of pixels in region)
#C  4 error (sum of sqrt(intensity) for all pixels divided by number)
#N 4
#L TTh  Int  N_pix  Err
32.99 	0.032787 	61 	0.032787
33.01 	0.043528 	873 	0.042857
33.03 	0.050324 	1391 	0.049481
33.05 	0.055208 	1757 	0.054208
33.07 	0.059024 	2050 	0.057263
33.09 	0.066042 	2347 	0.064045
33.11 	0.056611 	2579 	0.055930
33.13 	0.058360 	2793 	0.056892
33.15 	0.061354 	2999 	0.060572
33.17 	0.052796 	3201 	0.052247
33.19 	0.058049 	3342 	0.056822
33.21 	0.063446 	3436 	0.062252
33.23 	0.055918 	3523 	0.055087
33.25 	0.053987 	3612 	0.053014
33.27 	0.053168 	3630 	0.052523
33.29 	0.057840 	3648 	0.057037
33.31 	0.052186 	3660 	0.051039
33.33 	0.056701 	3686 	0.055748
33.35 	0.061992 	3694 	0.060565
33.37 	0.053043 	3714 	0.052254
33.39 	0.055511 	3729 	0.054725
33.41 	0.057487 	3740 	0.056234
33.43 	0.061952 	3761 	0.061017
33.45 	0.054333 	3773 	0.052911
33.47 	0.060558 	3798 	0.059941
33.49 	0.056708 	3809 	0.055145
33.51 	0.060026 	3815 	0.058798
33.53 	0.064046 	3841 	0.063283
33.55 	0.064533 	3843 	0.063466
33.57 	0.060356 	3877 	0.058669
33.59 	0.055928 	3880 	0.054544
33.61 	0.055001 	3909 	0.054402
33.63 	0.059964 	3919 	0.058470
33.65 	0.054693 	3931 	0.053799
33.67 	0.057410 	3954 	0.056225
33.69 	0.056160 	3953 	0.055567
33.71 	0.051069 	3975 	0.050480
33.73 	0.054695 	4004 	0.053964
33.75 	0.066517 	3999 	0.065052
33.77 	0.058882 	4025 	0.057427
33.79 	0.064341 	4041 	0.063181
33.81 	0.052501 	4038 	0.051486
33.83 	0.056543 	4050 	0.055531
33.85 	0.059771 	4099 	0.058342
33.87 	0.062272 	4111 	0.061275
33.89 	0.059209 	4121 	0.058072
33.91 	0.058327 	4149 	0.057904
33.93 	0.063358 	4151 	0.062512
33.95 	0.053337 	4181 	0.052356
33.97 	0.054654 	4190 	0.053535
33.99 	0.056667 	4200 	0.055272
34.01 	0.059577 	4213 	0.058303
34.03 	0.058435 	4244 	0.057607
34.05 	0.057855 	4252 	0.057442
34.07 	0.063964 	4268 	0.063141
34.09 	0.065796 	4286 	0.064566
34.11 	0.063226 	4302 	0.062682
34.13 	0.051996 	4308 	0.051180
34.15 	0.060032 	4331 	0.059063
34.17 	0.054023 	4350 	0.053215
34.19 	0.054791 	4362 	0.053851
34.21 	0.057195 	4371 	0.056257
34.23 	0.062827 	4393 	0.062160
34.25 	0.057221 	4404 	0.056423
34.27 	0.058571 	4422 	0.056849
34.29 	0.055017 	4435 	0.053960
34.31 	0.059668 	4458 	0.058617
34.33 	0.064191 	4471 	0.062750
34.35 	0.061106 	4484 	0.060322
34.37 	0.056112 	4491 	0.055047
34.39 	0.059085 	4502 	0.058434
34.41 	0.062528 	4526 	0.062010
34.43 	0.053977 	4539 	0.053073
34.45 	0.057111 	4535 	0.055949
34.47 	0.055967 	4592 	0.054925
34.49 	0.063520 	4597 	0.063010
34.51 	0.059271 	4606 	0.057744
34.53 	0.061598 	4643 	0.060295
34.55 	0.054275 	4643 	0.053644
34.57 	0.061803 	4660 	0.060294
34.59 	0.061390 	4675 	0.060242
34.61 	0.061742 	4697 	0.060245
34.63 	0.051380 	4710 	0.050738
34.65 	0.062910 	4721 	0.061918
34.67 	0.057583 	4741 	0.056224
34.69 	0.058687 	4754 	0.057805
34.71 	0.061897 	4766 	0.061405
34.73 	0.056821 	4787 	0.056209
34.75 	0.059900 	4808 	0.058438
34.77 	0.054379 	4818 	0.053650
34.79 	0.053483 	4824 	0.052633
34.81 	0.062539 	4845 	0.061813
34.83 	0.055533 	4862 	0.054448
34.85 	0.052167 	4869 	0.051204
34.87 	0.055259 	4868 	0.054898
34.89 	0.058173 	4882 	0.056973
34.91 	0.058583 	4882 	0.057363
34.93 	0.054909 	4899 	0.054192
34.95 	0.058282 	4890 	0.057204
34.97 	0.052836 	4902 	0.051999
34.99 	0.059220 	4897 	0.058024
35.01 	0.058501 	4923 	0.057430
35.03 	0.059883 	4943 	0.058678
35.05 	0.067314 	4947 	0.065774
35.07 	0.060121 	4940 	0.058936
35.09 	0.060771 	4953 	0.059589
35.11 	0.058824 	4947 	0.057876
35.13 	0.060307 	4958 	0.059243
35.15 	0.061778 	4937 	0.060355
35.17 	0.052972 	4946 	0.052498
35.19 	0.058883 	4942 	0.058053
35.21 	0.059454 	4945 	0.058388
35.23 	0.058241 	4945 	0.057273
35.25 	0.057253 	4943 	0.055949
35.27 	0.059418 	4948 	0.058333
35.29 	0.054803 	4945 	0.054329
35.31 	0.059396 	4933 	0.058921
35.33 	0.055230 	4943 	0.054045
35.35 	0.061109 	4942 	0.060398
35.37 	0.056489 	4939 	0.055778
35.39 	0.057634 	4945 	0.056094
35.41 	0.061916 	4926 	0.060846
35.43 	0.062842 	4933 	0.061655
35.45 	0.053676 	4937 	0.052490
35.47 	0.055770 	4931 	0.055057
35.49 	0.058656 	4910 	0.057582
35.51 	0.060292 	4926 	0.059440
35.53 	0.058396 	4949 	0.057666
35.55 	0.054803 	4945 	0.053855
35.57 	0.056355 	4933 	0.054930
35.59 	0.054398 	4945 	0.053668
35.61 	0.057871 	4942 	0.056923
35.63 	0.063120 	4943 	0.061934
35.65 	0.063701 	4945 	0.062378
35.67 	0.049575 	4942 	0.049219
35.69 	0.064092 	4946 	0.063500
35.71 	0.056715 	4937 	0.056121
35.73 	0.056726 	4936 	0.055895
35.75 	0.055972 	4931 	0.054784
35.77 	0.052515 	4951 	0.051568
35.79 	0.056164 	4932 	0.055332
35.81 	0.060207 	4933 	0.059119
35.83 	0.059846 	4946 	0.059373
35.85 	0.057953 	4935 	0.057004
35.87 	0.055657 	4923 	0.054586
35.89 	0.053304 	4934 	0.052354
35.91 	0.053785 	4927 	0.052596
35.93 	0.058859 	4927 	0.058245
35.95 	0.055725 	4917 	0.054653
35.97 	0.062704 	4912 	0.061511
35.99 	0.059931 	4939 	0.058864
36.01 	0.058621 	4930 	0.057195
36.03 	0.054623 	4943 	0.054267
36.05 	0.062083 	4945 	0.060424
36.07 	0.054464 	4939 	0.053140
36.09 	0.057490 	4940 	0.056423
36.11 	0.053763 	4929 	0.052437
36.13 	0.058681 	4942 	0.057851
36.15 	0.057502 	4939 	0.056434
36.17 	0.053604 	4925 	0.052653
36.19 	0.059312 	4940 	0.058482
36.21 	0.060256 	4929 	0.059067
36.23 	0.062411 	4935 	0.061462
36.25 	0.050799 	4941 	0.049970
36.27 	0.062538 	4925 	0.061111
36.29 	0.053539 	4931 	0.052826
36.31 	0.059862 	4928 	0.058911
36.33 	0.061626 	4933 	0.060795
36.35 	0.057821 	4929 	0.056751
36.37 	0.056267 	4923 	0.055791
36.39 	0.059744 	4921 	0.059030
36.41 	0.055147 	4896 	0.054310
36.43 	0.057630 	4928 	0.056441
36.45 	0.057201 	4930 	0.056250
36.47 	0.054092 	4936 	0.053143
36.49 	0.064346 	4942 	0.063398
36.51 	0.056761 	4933 	0.055454
36.53 	0.058467 	4943 	0.057874
36.55 	0.064136 	4927 	0.062947
36.57 	0.054925 	4934 	0.054094
36.59 	0.054667 	4939 	0.053718
36.61 	0.057595 	4931 	0.056882
36.63 	0.053944 	4931 	0.052756
36.65 	0.058191 	4932 	0.057479
36.67 	0.060041 	4930 	0.058952
36.69 	0.055792 	4929 	0.054723
36.71 	0.048161 	4921 	0.047804
36.73 	0.059898 	4925 	0.058590
36.75 	0.059061 	4944 	0.058232
36.77 	0.053466 	4919 	0.052752
36.79 	0.059134 	4921 	0.057944
36.81 	0.046379 	4916 	0.045664
36.83 	0.057782 	4915 	0.057186
36.85 	0.056554 	4898 	0.055717
36.87 	0.057443 	4944 	0.056495
36.89 	0.058177 	4916 	0.057582
36.91 	0.058288 	4941 	0.057102
36.93 	0.055172 	4930 	0.053984
36.95 	0.058382 	4933 	0.057789
36.97 	0.053506 	4934 	0.052794
36.99 	0.053698 	4935 	0.052986
37.01 	0.051085 	4933 	0.050491
37.03 	0.056255 	4924 	0.055660
37.05 	0.052365 	4927 	0.051889
37.07 	0.051064 	4935 	0.050352
37.09 	0.048904 	4928 	0.048548
37.11 	0.050051 	4935 	0.049082
37.13 	0.059708 	4924 	0.058994
37.15 	0.051538 	4909 	0.050464
37.17 	0.057154 	4934 	0.056086
37.19 	0.048934 	4925 	0.047982
37.21 	0.054301 	4917 	0.053467
37.23 	0.055714 	4918 	0.054880
37.25 	0.049481 	4911 	0.049004
37.27 	0.053126 	4894 	0.052269
37.29 	0.051521 	4930 	0.050314
37.31 	0.053901 	4935 	0.053307
37.33 	0.060889 	4927 	0.059700
37.35 	0.050830 	4938 	0.050237
37.37 	0.052567 	4927 	0.051616
37.39 	0.053539 	4931 	0.052945
37.41 	0.051308 	4931 	0.050476
37.43 	0.051703 	4932 	0.051228
37.45 	0.056052 	4924 	0.055457
37.47 	0.056401 	4929 	0.055569
37.49 	0.051188 	4923 	0.050712
37.51 	0.053112 	4933 	0.051687
37.53 	0.051230 	4919 	0.050992
37.55 	0.051927 	4930 	0.051452
37.57 	0.052589 	4925 	0.051380
37.59 	0.059410 	4915 	0.058337
37.61 	0.054246 	4922 	0.053651
37.63 	0.055906 	4919 	0.055310
37.65 	0.059780 	4918 	0.058828
37.67 	0.054649 	4904 	0.054291
37.69 	0.054716 	4898 	0.053640
37.71 	0.053358 	4929 	0.052526
37.73 	0.053561 	4929 	0.053085
37.75 	0.054049 	4940 	0.052863
37.77 	0.051423 	4920 	0.050827
37.79 	0.058824 	4930 	0.057992
37.81 	0.052909 	4933 	0.052553
37.83 	0.055691 	4920 	0.055453
37.85 	0.053230 	4922 	0.052278
37.87 	0.056084 	4939 	0.055610
37.89 	0.053604 	4925 	0.052653
37.91 	0.056795 	4930 	0.055607
37.93 	0.051840 	4919 	0.050768
37.95 	0.056899 	4921 	0.056423
37.97 	0.053155 	4929 	0.052085
37.99 	0.062093 	4912 	0.061139
38.01 	0.057427 	4928 	0.056357
38.03 	0.060501 	4909 	0.059169
38.05 	0.054619 	4925 	0.053906
38.07 	0.056020 	4909 	0.055065
38.09 	0.049405 	4878 	0.048445
38.11 	0.050659 	4935 	0.050065
38.13 	0.053879 	4937 	0.053523
38.15 	0.054900 	4918 	0.054067
38.17 	0.060041 	4930 	0.059090
38.19 	0.058418 	4930 	0.057111
38.21 	0.060126 	4923 	0.058559
38.23 	0.061361 	4938 	0.060511
38.25 	0.056945 	4917 	0.056230
38.27 	0.057201 	4930 	0.056607
38.29 	0.057880 	4924 	0.056571
38.31 	0.052770 	4927 	0.051819
38.33 	0.054021 	4924 	0.053069
38.35 	0.058036 	4928 	0.057085
38.37 	0.062957 	4924 	0.061410
38.39 	0.061927 	4909 	0.060495
38.41 	0.065001 	4923 	0.063811
38.43 	0.064483 	4916 	0.063530
38.45 	0.061407 	4918 	0.060435
38.47 	0.073161 	4907 	0.071589
38.49 	0.067665 	4877 	0.066944
38.51 	0.066302 	4932 	0.064976
38.53 	0.068371 	4929 	0.066687
38.55 	0.073339 	4936 	0.071302
38.57 	0.062970 	4923 	0.061661
38.59 	0.056458 	4924 	0.055506
38.61 	0.068882 	4936 	0.066963
38.63 	0.061332 	4924 	0.060143
38.65 	0.065880 	4918 	0.064928
38.67 	0.059955 	4937 	0.059125
38.69 	0.059732 	4922 	0.058899
38.71 	0.060317 	4924 	0.059841
38.73 	0.055917 	4918 	0.055441
38.75 	0.058656 	4927 	0.057586
38.77 	0.049157 	4923 	0.048800
38.79 	0.059384 	4934 	0.058434
38.81 	0.058428 	4912 	0.057951
38.83 	0.057939 	4919 	0.056629
38.85 	0.054967 	4912 	0.053894
38.87 	0.056811 	4911 	0.055976
38.89 	0.060854 	4897 	0.059897
38.91 	0.057312 	4903 	0.056953
38.93 	0.052450 	4938 	0.051501
38.95 	0.051850 	4918 	0.050897
38.97 	0.053742 	4931 	0.053148
38.99 	0.054689 	4937 	0.053740
39.01 	0.057340 	4918 	0.056626
39.03 	0.056952 	4934 	0.056477
39.05 	0.055025 	4925 	0.053717
39.07 	0.056458 	4924 	0.055625
39.09 	0.054438 	4923 	0.053724
39.11 	0.051105 	4931 	0.050274
39.13 	0.051798 	4923 	0.050965
39.15 	0.047813 	4915 	0.047098
39.17 	0.057120 	4937 	0.056289
39.19 	0.052064 	4917 	0.050992
39.21 	0.052749 	4910 	0.051656
39.23 	0.052995 	4925 	0.052281
39.25 	0.053027 	4922 	0.052670
39.27 	0.056008 	4910 	0.054795
39.29 	0.053458 	4901 	0.052244
39.31 	0.053645 	4884 	0.052905
39.33 	0.051511 	4931 	0.051036
39.35 	0.054711 	4935 	0.053406
39.37 	0.054169 	4929 	0.053337
39.39 	0.055995 	4929 	0.055401
39.41 	0.053133 	4931 	0.051708
39.43 	0.055139 	4933 	0.054189
39.45 	0.052386 	4925 	0.050721
39.47 	0.057485 	4923 	0.056533
39.49 	0.047030 	4933 	0.045843
39.51 	0.053006 	4924 	0.052034
39.53 	0.055251 	4923 	0.054537
39.55 	0.054076 	4919 	0.053838
39.57 	0.050679 	4933 	0.049710
39.59 	0.056596 	4912 	0.055404
39.61 	0.055048 	4923 	0.054453
39.63 	0.051605 	4922 	0.050891
39.65 	0.057856 	4926 	0.056786
39.67 	0.054753 	4913 	0.053322
39.69 	0.054516 	4916 	0.053920
39.71 	0.053933 	4895 	0.053215
39.73 	0.053382 	4908 	0.052666
39.75 	0.060268 	4928 	0.059436
39.77 	0.048430 	4935 	0.047124
39.79 	0.058262 	4926 	0.057549
39.81 	0.055409 	4927 	0.054101
39.83 	0.050263 	4934 	0.049670
39.85 	0.058047 	4927 	0.056621
39.87 	0.056447 	4925 	0.055713
39.89 	0.052290 	4934 	0.051815
39.91 	0.048964 	4922 	0.048012
39.93 	0.055904 	4937 	0.054817
39.95 	0.059003 	4915 	0.058050
39.97 	0.051745 	4928 	0.051151
39.99 	0.054339 	4932 	0.053745
40.01 	0.057950 	4918 	0.057593
40.03 	0.050528 	4928 	0.049814
40.05 	0.052471 	4917 	0.051637
40.07 	0.052204 	4923 	0.051609
40.09 	0.050244 	4916 	0.050006
40.11 	0.050244 	4916 	0.049767
40.13 	0.056373 	4896 	0.055774
40.15 	0.051700 	4913 	0.050746
40.17 	0.054586 	4928 	0.053992
40.19 	0.050314 	4929 	0.049720
40.21 	0.052482 	4935 	0.051533
40.23 	0.051500 	4932 	0.050788
40.25 	0.054878 	4920 	0.054402
40.27 	0.049018 	4937 	0.048662
40.29 	0.051959 	4927 	0.051007
40.31 	0.056489 	4939 	0.055422
40.33 	0.052109 	4932 	0.051990
40.35 	0.050417 	4919 	0.049464
40.37 	0.050517 	4929 	0.049923
40.39 	0.047658 	4931 	0.046826
40.41 	0.047107 	4925 	0.047107
40.43 	0.049573 	4922 	0.048859
40.45 	0.049463 	4933 	0.048750
40.47 	0.052054 	4918 	0.051696
40.49 	0.042631 	4926 	0.042036
40.51 	0.048354 	4922 	0.047521
40.53 	0.050448 	4916 	0.049613
40.55 	0.054401 	4908 	0.053207
40.57 	0.053170 	4890 	0.052331
40.59 	0.052056 	4937 	0.051463
40.61 	0.053495 	4935 	0.052427
40.63 	0.052535 	4930 	0.051704
40.65 	0.053879 	4937 	0.052930
40.67 	0.044607 	4932 	0.044250
40.69 	0.053879 	4937 	0.053167
40.71 	0.046431 	4932 	0.045462
40.73 	0.052984 	4926 	0.052508
40.75 	0.052525 	4931 	0.052050
40.77 	0.051427 	4939 	0.050597
40.79 	0.051178 	4924 	0.050583
40.81 	0.053228 	4941 	0.052260
40.83 	0.048904 	4928 	0.048548
40.85 	0.051381 	4924 	0.050905
40.87 	0.052760 	4928 	0.052047
40.89 	0.051511 	4931 	0.050917
40.91 	0.051798 	4923 	0.051203
40.93 	0.055938 	4934 	0.055107
40.95 	0.049461 	4913 	0.048864
40.97 	0.054833 	4924 	0.054239
40.99 	0.054021 	4924 	0.053426
41.01 	0.052524 	4912 	0.051928
41.03 	0.048114 	4905 	0.047278
41.05 	0.055308 	4936 	0.054596
41.07 	0.047667 	4930 	0.047192
41.09 	0.055477 	4939 	0.054409
41.11 	0.049240 	4935 	0.048152
41.13 	0.051256 	4936 	0.050781
41.15 	0.042704 	4941 	0.042348
41.17 	0.057560 	4934 	0.055541
41.19 	0.045436 	4930 	0.044228
41.21 	0.046790 	4937 	0.045959
41.23 	0.049808 	4939 	0.048977
41.25 	0.049666 	4933 	0.049072
41.27 	0.053133 	4931 	0.052777
41.29 	0.054586 	4928 	0.053397
41.31 	0.054733 	4933 	0.054021
41.33 	0.054081 	4937 	0.053251
41.35 	0.052248 	4938 	0.051655
41.37 	0.043461 	4924 	0.042985
41.39 	0.055544 	4933 	0.055188
41.41 	0.049939 	4926 	0.049206
41.43 	0.045851 	4929 	0.044900
41.45 	0.050265 	4914 	0.049549
41.47 	0.051360 	4926 	0.050409
41.49 	0.051922 	4892 	0.050844
41.51 	0.047976 	4940 	0.047146
41.53 	0.049757 	4944 	0.049046
41.55 	0.043364 	4935 	0.042889
41.57 	0.052216 	4941 	0.051386
41.59 	0.050274 	4933 	0.049799
41.61 	0.056531 	4953 	0.055822
41.63 	0.047185 	4938 	0.046711
41.65 	0.051735 	4929 	0.050170
41.67 	0.047773 	4940 	0.046943
41.69 	0.053568 	4947 	0.052621
41.71 	0.043778 	4934 	0.042947
41.73 	0.048217 	4936 	0.048099
41.75 	0.047271 	4929 	0.046202
41.77 	0.049180 	4941 	0.048588
41.79 	0.050162 	4944 	0.049214
41.81 	0.057942 	4936 	0.056755
41.83 	0.050528 	4928 	0.049814
41.85 	0.049605 	4939 	0.048775
41.87 	0.047822 	4935 	0.046635
41.89 	0.047233 	4933 	0.045808
41.91 	0.049838 	4936 	0.049007
41.93 	0.048662 	4932 	0.047830
41.95 	0.049483 	4931 	0.048651
41.97 	0.047823 	4914 	0.047207
41.99 	0.043017 	4905 	0.042659
42.01 	0.047552 	4942 	0.047196
42.03 	0.050618 	4939 	0.049550
42.05 	0.044830 	4952 	0.044594
42.07 	0.045372 	4937 	0.045115
42.09 	0.045877 	4948 	0.045640
42.11 	0.045703 	4945 	0.044992
42.13 	0.044287 	4945 	0.043576
42.15 	0.045362 	4938 	0.045007
42.17 	0.047987 	4918 	0.047391
42.19 	0.044214 	4908 	0.043378
42.21 	0.056111 	4901 	0.054557
42.23 	0.044563 	4892 	0.044084
42.25 	0.040704 	4889 	0.040105
42.27 	0.049036 	4874 	0.047834
42.29 	0.049147 	4863 	0.048544
42.31 	0.047992 	4855 	0.047630
42.33 	0.048614 	4834 	0.047766
42.35 	0.045267 	4838 	0.044419
42.37 	0.046584 	4830 	0.045614
42.39 	0.045171 	4804 	0.044439
42.41 	0.044338 	4804 	0.043972
42.43 	0.044240 	4792 	0.043629
42.45 	0.046482 	4776 	0.045501
42.47 	0.044911 	4765 	0.044050
42.49 	0.044911 	4765 	0.044173
42.51 	0.047017 	4743 	0.046399
42.53 	0.046108 	4728 	0.045737
42.55 	0.048003 	4708 	0.047257
42.57 	0.047357 	4730 	0.046614
42.59 	0.056883 	4729 	0.055768
42.61 	0.044393 	4708 	0.043397
42.63 	0.046931 	4709 	0.046185
42.65 	0.046105 	4685 	0.044854
42.67 	0.055722 	4684 	0.055346
42.69 	0.043646 	4674 	0.043520
42.71 	0.046751 	4663 	0.046123
42.73 	0.045905 	4640 	0.045526
42.75 	0.046784 	4617 	0.046022
42.77 	0.043696 	4600 	0.043314
42.79 	0.048887 	4582 	0.048248
42.81 	0.046909 	4562 	0.046652
42.83 	0.048501 	4536 	0.047726
42.85 	0.045274 	4528 	0.044498
42.87 	0.046232 	4499 	0.045972
42.89 	0.046652 	4480 	0.045584
42.91 	0.046230 	4456 	0.045704
42.93 	0.044984 	4446 	0.044567
42.95 	0.046649 	4416 	0.046118
42.97 	0.041127 	4401 	0.040728
42.99 	0.048347 	4385 	0.047812
43.01 	0.048820 	4363 	0.048417
43.03 	0.049850 	4333 	0.049174
43.05 	0.048324 	4325 	0.047646
43.07 	0.049348 	4296 	0.048530
43.09 	0.047630 	4283 	0.047220
43.11 	0.050999 	4255 	0.050723
43.13 	0.050507 	4237 	0.049954
43.15 	0.046362 	4206 	0.045945
43.17 	0.042355 	4179 	0.041210
43.19 	0.047926 	4194 	0.046669
43.21 	0.050575 	4172 	0.050435
43.23 	0.044054 	4154 	0.043631
43.25 	0.045949 	4135 	0.045383
43.27 	0.042875 	4105 	0.042161
43.29 	0.045366 	4100 	0.044223
43.31 	0.050257 	4079 	0.049683
43.33 	0.045668 	4051 	0.044945
43.35 	0.042411 	4032 	0.041684
43.37 	0.047073 	4015 	0.046782
43.39 	0.045477 	4002 	0.044453
43.41 	0.051108 	3972 	0.050813
43.43 	0.051010 	3960 	0.050714
43.45 	0.042948 	3935 	0.042799
43.47 	0.045652 	3921 	0.045502
43.49 	0.045163 	3897 	0.044562
43.51 	0.050297 	3877 	0.049843
43.53 	0.045560 	3863 	0.044651
43.55 	0.044534 	2964 	0.044139
43.57 	0.040214 	2238 	0.039953
43.59 	0.058992 	1746 	0.058321
43.61 	0.043671 	1351 	0.043238
43.63 	0.051948 	1001 	0.051363
43.65 	0.056769 	687 	0.055916
43.67 	0.047809 	502 	0.047809
43.69 	0.040872 	367 	0.040872
43.71 	0.037657 	239 	0.037657
43.73 	0.058333 	120 	0.053452
43.75 	0.062500 	16 	0.062500