File: Example_Data/25SC_s1_0014.000.dat
#F C:\frames\spec\25SC_s1_0014.000
#C title =s:14 frm:0 25SC_s1
#C wavelength =0.15406

#S 1  fr_average C:\frames\spec\25SC_s1_0014.000 C:\win32app\speccom\mask.axs chi 0 180 0 360 0.02
#C 2 theta =0.000000 to 180 deg
#C   q   =0.000000 to 81.568 nm^-1
#C  chi  =0.000000 to 360 deg
#C collumns:
#C  1 position (2theta or chi in degrees)
#C  2 average intensity (sum of all counts in the region divided with number of pixels)
#C  3 Number of pixels in region)
#C  4 error (sum of sqrt(intensity) for all pixels divided by number)
#N 4
#L TTh  Int  N_pix  Err
32.99 	0.081967 	61 	0.081967
33.01 	0.071019 	873 	0.070348
33.03 	0.074047 	1391 	0.073205
33.05 	0.055208 	1757 	0.054541
33.07 	0.053171 	2050 	0.052028
33.09 	0.069450 	2347 	0.068702
33.11 	0.063978 	2579 	0.063297
33.13 	0.063373 	2793 	0.062744
33.15 	0.056019 	2999 	0.054847
33.17 	0.064667 	3201 	0.062837
33.19 	0.055955 	3342 	0.055604
33.21 	0.048312 	3436 	0.047289
33.23 	0.062163 	3523 	0.060140
33.25 	0.060354 	3612 	0.058246
33.27 	0.061708 	3630 	0.060740
33.29 	0.059211 	3648 	0.057123
33.31 	0.053552 	3660 	0.053392
33.33 	0.061584 	3686 	0.060605
33.35 	0.056037 	3694 	0.054927
33.37 	0.056274 	3714 	0.055144
33.39 	0.054706 	3729 	0.053267
33.41 	0.066845 	3740 	0.064965
33.43 	0.058495 	3761 	0.057872
33.45 	0.065465 	3773 	0.064378
33.47 	0.063718 	3798 	0.063101
33.49 	0.061171 	3809 	0.059941
33.51 	0.060813 	3815 	0.059277
33.53 	0.058578 	3841 	0.057791
33.55 	0.061931 	3843 	0.060254
33.57 	0.061130 	3877 	0.059619
33.59 	0.060309 	3880 	0.058926
33.61 	0.053978 	3909 	0.053229
33.63 	0.058433 	3919 	0.057985
33.65 	0.062579 	3931 	0.061834
33.67 	0.064492 	3954 	0.064047
33.69 	0.060713 	3953 	0.060269
33.71 	0.064151 	3975 	0.063119
33.73 	0.054196 	4004 	0.053611
33.75 	0.060015 	3999 	0.059136
33.77 	0.058634 	4025 	0.057760
33.79 	0.065578 	4041 	0.064128
33.81 	0.065627 	4038 	0.064466
33.83 	0.067407 	4050 	0.065672
33.85 	0.061234 	4099 	0.059925
33.87 	0.062515 	4111 	0.061637
33.89 	0.058966 	4121 	0.058682
33.91 	0.057122 	4149 	0.055852
33.93 	0.061431 	4151 	0.060725
33.95 	0.067687 	4181 	0.066566
33.97 	0.061814 	4190 	0.060416
33.99 	0.056429 	4200 	0.055592
34.01 	0.054118 	4213 	0.053284
34.03 	0.058907 	4244 	0.057802
34.05 	0.061148 	4252 	0.060321
34.07 	0.061153 	4268 	0.059895
34.09 	0.053896 	4286 	0.052940
34.11 	0.061599 	4302 	0.059965
34.13 	0.066620 	4308 	0.065125
34.15 	0.055645 	4331 	0.054969
34.17 	0.062759 	4350 	0.061547
34.19 	0.054333 	4362 	0.053661
34.21 	0.059254 	4371 	0.058450
34.23 	0.056909 	4393 	0.056109
34.25 	0.060627 	4404 	0.059829
34.27 	0.057440 	4422 	0.056645
34.29 	0.058625 	4435 	0.057832
34.31 	0.052939 	4458 	0.051099
34.33 	0.055021 	4471 	0.054104
34.35 	0.055085 	4484 	0.054432
34.37 	0.060343 	4491 	0.058735
34.39 	0.048645 	4502 	0.047322
34.41 	0.055678 	4526 	0.054643
34.43 	0.059264 	4539 	0.058210
34.45 	0.062404 	4535 	0.061499
34.47 	0.061847 	4592 	0.060954
34.49 	0.058516 	4597 	0.057370
34.51 	0.062310 	4606 	0.061038
34.53 	0.052121 	4643 	0.051364
34.55 	0.054706 	4643 	0.054201
34.57 	0.062446 	4660 	0.061692
34.59 	0.062032 	4675 	0.060904
34.61 	0.057058 	4697 	0.056434
34.63 	0.060934 	4710 	0.059815
34.65 	0.055709 	4721 	0.054716
34.67 	0.055474 	4741 	0.054588
34.69 	0.056794 	4754 	0.055809
34.71 	0.061267 	4766 	0.060284
34.73 	0.053269 	4787 	0.052413
34.75 	0.057820 	4808 	0.056967
34.77 	0.062889 	4818 	0.061065
34.79 	0.053690 	4824 	0.052840
34.81 	0.055315 	4845 	0.054106
34.83 	0.057178 	4862 	0.056335
34.85 	0.059971 	4869 	0.059249
34.87 	0.056081 	4868 	0.054637
34.89 	0.053257 	4882 	0.052657
34.91 	0.056944 	4882 	0.055984
34.93 	0.061237 	4899 	0.059922
34.95 	0.052965 	4890 	0.052366
34.97 	0.059568 	4902 	0.058731
34.99 	0.052481 	4897 	0.051763
35.01 	0.057892 	4923 	0.057416
35.03 	0.057253 	4943 	0.056423
35.05 	0.057004 	4947 	0.056531
35.07 	0.057085 	4940 	0.055662
35.09 	0.054512 	4953 	0.054039
35.11 	0.056802 	4947 	0.055736
35.13 	0.057483 	4958 	0.056183
35.15 	0.057120 	4937 	0.056526
35.17 	0.056207 	4946 	0.055141
35.19 	0.061716 	4942 	0.060412
35.21 	0.056218 	4945 	0.055745
35.23 	0.055410 	4945 	0.054324
35.25 	0.056646 	4943 	0.056172
35.27 	0.054365 	4948 	0.053892
35.29 	0.059252 	4945 	0.058423
35.31 	0.053720 	4933 	0.053007
35.33 	0.058467 	4943 	0.057637
35.35 	0.060704 	4942 	0.060230
35.37 	0.054464 	4939 	0.053871
35.39 	0.060870 	4945 	0.060001
35.41 	0.057247 	4926 	0.056534
35.43 	0.060815 	4933 	0.059252
35.45 	0.054689 	4937 	0.053977
35.47 	0.061854 	4931 	0.060309
35.49 	0.056212 	4910 	0.055854
35.51 	0.061916 	4926 	0.061084
35.53 	0.054152 	4949 	0.053068
35.55 	0.056623 	4945 	0.055557
35.57 	0.060409 	4933 	0.059460
35.59 	0.060263 	4945 	0.058329
35.61 	0.056860 	4942 	0.055911
35.63 	0.060894 	4943 	0.059690
35.65 	0.060667 	4945 	0.059127
35.67 	0.061514 	4942 	0.060190
35.69 	0.060857 	4946 	0.059673
35.71 	0.058538 	4937 	0.057232
35.73 	0.055511 	4936 	0.053730
35.75 	0.061448 	4931 	0.060735
35.77 	0.057564 	4951 	0.056736
35.79 	0.054947 	4932 	0.054116
35.81 	0.057977 	4933 	0.057146
35.83 	0.056005 	4946 	0.055176
35.85 	0.058967 	4935 	0.058136
35.87 	0.056267 	4923 	0.055315
35.89 	0.062424 	4934 	0.061237
35.91 	0.055003 	4927 	0.053457
35.93 	0.058656 	4927 	0.057824
35.95 	0.057962 	4917 	0.056632
35.97 	0.059243 	4912 	0.058527
35.99 	0.056084 	4939 	0.055353
36.01 	0.062677 	4930 	0.061489
36.03 	0.060085 	4943 	0.059137
36.05 	0.057634 	4945 	0.056331
36.07 	0.063373 	4939 	0.062306
36.09 	0.055263 	4940 	0.054552
36.11 	0.061270 	4929 	0.060438
36.13 	0.059085 	4942 	0.058611
36.15 	0.058919 	4939 	0.057851
36.17 	0.059695 	4925 	0.058982
36.19 	0.056073 	4940 	0.054768
36.21 	0.059444 	4929 	0.058731
36.23 	0.059980 	4935 	0.059268
36.25 	0.050799 	4941 	0.049851
36.27 	0.058883 	4925 	0.058407
36.29 	0.060637 	4931 	0.059924
36.31 	0.061688 	4928 	0.060856
36.33 	0.061220 	4933 	0.060389
36.35 	0.066139 	4929 	0.063842
36.37 	0.057485 	4923 	0.056414
36.39 	0.060557 	4921 	0.059604
36.41 	0.061275 	4896 	0.060078
36.43 	0.063718 	4928 	0.062885
36.45 	0.060243 	4930 	0.058818
36.47 	0.061588 	4936 	0.060402
36.49 	0.059288 	4942 	0.057865
36.51 	0.059193 	4933 	0.057649
36.53 	0.061299 	4943 	0.060331
36.55 	0.057845 	4927 	0.057250
36.57 	0.057560 	4934 	0.056254
36.59 	0.054262 	4939 	0.053432
36.61 	0.061448 	4931 	0.060022
36.63 	0.064287 	4931 	0.062980
36.65 	0.062652 	4932 	0.061108
36.67 	0.067343 	4930 	0.066273
36.69 	0.058633 	4929 	0.057325
36.71 	0.062589 	4921 	0.061399
36.73 	0.062741 	4925 	0.060838
36.75 	0.056230 	4944 	0.055163
36.77 	0.062004 	4919 	0.061171
36.79 	0.061166 	4921 	0.060195
36.81 	0.059194 	4916 	0.058599
36.83 	0.059207 	4915 	0.058253
36.85 	0.055941 	4898 	0.055104
36.87 	0.068770 	4944 	0.067230
36.89 	0.059601 	4916 	0.058648
36.91 	0.061121 	4941 	0.059936
36.93 	0.058824 	4930 	0.057754
36.95 	0.056355 	4933 	0.054911
36.97 	0.052898 	4934 	0.052067
36.99 	0.056535 	4935 	0.055823
37.01 	0.060409 	4933 	0.059816
37.03 	0.062145 	4924 	0.061074
37.05 	0.057845 	4927 	0.056774
37.07 	0.058967 	4935 	0.057879
37.09 	0.062500 	4928 	0.061192
37.11 	0.058764 	4935 	0.057933
37.13 	0.055037 	4924 	0.054561
37.15 	0.058668 	4909 	0.057236
37.17 	0.055736 	4934 	0.054667
37.19 	0.057056 	4925 	0.055866
37.21 	0.056945 	4917 	0.056230
37.23 	0.056324 	4918 	0.055013
37.25 	0.066382 	4911 	0.064473
37.27 	0.056600 	4894 	0.055523
37.29 	0.060852 	4930 	0.059625
37.31 	0.060588 	4935 	0.060113
37.33 	0.060483 	4927 	0.059413
37.35 	0.055691 	4938 	0.054504
37.37 	0.063933 	4927 	0.063220
37.39 	0.056986 	4931 	0.056155
37.41 	0.059217 	4931 	0.058623
37.43 	0.060219 	4932 	0.059249
37.45 	0.058489 	4924 	0.057399
37.47 	0.054575 	4929 	0.054100
37.49 	0.058704 	4923 	0.057871
37.51 	0.056761 	4933 	0.055692
37.53 	0.065257 	4919 	0.064543
37.55 	0.060852 	4930 	0.059901
37.57 	0.069036 	4925 	0.067232
37.59 	0.060427 	4915 	0.059474
37.61 	0.056887 	4922 	0.056173
37.63 	0.055092 	4919 	0.054259
37.65 	0.054290 	4918 	0.053218
37.67 	0.058728 	4904 	0.057533
37.69 	0.063904 	4898 	0.062588
37.71 	0.053358 	4929 	0.052288
37.73 	0.062690 	4929 	0.061126
37.75 	0.058704 	4940 	0.057874
37.77 	0.064024 	4920 	0.063191
37.79 	0.054361 	4930 	0.053648
37.81 	0.054936 	4933 	0.054580
37.83 	0.051423 	4920 	0.050470
37.85 	0.054653 	4922 	0.053581
37.87 	0.053250 	4939 	0.051826
37.89 	0.057868 	4925 	0.056798
37.91 	0.052941 	4930 	0.052347
37.93 	0.056516 	4919 	0.055424
37.95 	0.052632 	4921 	0.052036
37.97 	0.050314 	4929 	0.049958
37.99 	0.050896 	4912 	0.050061
38.01 	0.052354 	4928 	0.051760
38.03 	0.055001 	4909 	0.054166
38.05 	0.057056 	4925 	0.055747
38.07 	0.059279 	4909 	0.058324
38.09 	0.056171 	4878 	0.054950
38.11 	0.057345 	4935 	0.055902
38.13 	0.054689 	4937 	0.053977
38.15 	0.055510 	4918 	0.054438
38.17 	0.060649 	4930 	0.059461
38.19 	0.058012 	4930 	0.056943
38.21 	0.057282 	4923 	0.056568
38.23 	0.063183 	4938 	0.061503
38.25 	0.055522 	4917 	0.054926
38.27 	0.054767 	4930 	0.054054
38.29 	0.053818 	4924 	0.052509
38.31 	0.062919 	4927 	0.062086
38.33 	0.061738 	4924 	0.060787
38.35 	0.057224 	4928 	0.056154
38.37 	0.051787 	4924 	0.051173
38.39 	0.067223 	4909 	0.066150
38.41 	0.059110 	4923 	0.057801
38.43 	0.065907 	4916 	0.065192
38.45 	0.065067 	4918 	0.063638
38.47 	0.067455 	4907 	0.065406
38.49 	0.066229 	4877 	0.065008
38.51 	0.062044 	4932 	0.060737
38.53 	0.075269 	4929 	0.074199
38.55 	0.075162 	4936 	0.073738
38.57 	0.074954 	4923 	0.073764
38.59 	0.080626 	4924 	0.079416
38.61 	0.067869 	4936 	0.066563
38.63 	0.073517 	4924 	0.071852
38.65 	0.081334 	4918 	0.078594
38.67 	0.070083 	4937 	0.068659
38.69 	0.078830 	4922 	0.077997
38.71 	0.083266 	4924 	0.081481
38.73 	0.079301 	4918 	0.077732
38.75 	0.072661 	4927 	0.071710
38.77 	0.077595 	4923 	0.076524
38.79 	0.082286 	4934 	0.080149
38.81 	0.078379 	4912 	0.076710
38.83 	0.080504 	4919 	0.078837
38.85 	0.077769 	4912 	0.076099
38.87 	0.076359 	4911 	0.074312
38.89 	0.071064 	4897 	0.069150
38.91 	0.071589 	4903 	0.069319
38.93 	0.064196 	4938 	0.062654
38.95 	0.068117 	4918 	0.066688
38.97 	0.065504 	4931 	0.064672
38.99 	0.061171 	4937 	0.059984
39.01 	0.061814 	4918 	0.060861
39.03 	0.052290 	4934 	0.050866
39.05 	0.065178 	4925 	0.064107
39.07 	0.057271 	4924 	0.056795
39.09 	0.048954 	4923 	0.048359
39.11 	0.049280 	4931 	0.048567
39.13 	0.048141 	4923 	0.047546
39.15 	0.046592 	4915 	0.045877
39.17 	0.049625 	4937 	0.048913
39.19 	0.052674 	4917 	0.051721
39.21 	0.047658 	4910 	0.046823
39.23 	0.044264 	4925 	0.043788
39.25 	0.045916 	4922 	0.045202
39.27 	0.044399 	4910 	0.043544
39.29 	0.044481 	4901 	0.043644
39.31 	0.053849 	4884 	0.053130
39.33 	0.051308 	4931 	0.050200
39.35 	0.048632 	4935 	0.048395
39.37 	0.043822 	4929 	0.043347
39.39 	0.044837 	4929 	0.044124
39.41 	0.045630 	4931 	0.045273
39.43 	0.048652 	4933 	0.047939
39.45 	0.041421 	4925 	0.041064
39.47 	0.043876 	4923 	0.043162
39.49 	0.056558 	4933 	0.055014
39.51 	0.048335 	4924 	0.047482
39.53 	0.041032 	4923 	0.040556
39.55 	0.051637 	4919 	0.050565
39.57 	0.047638 	4933 	0.046688
39.59 	0.043974 	4912 	0.043616
39.61 	0.050782 	4923 	0.049711
39.63 	0.045307 	4922 	0.044831
39.65 	0.049127 	4926 	0.048295
39.67 	0.046611 	4913 	0.046492
39.69 	0.040277 	4916 	0.039800
39.71 	0.044944 	4895 	0.044585
39.73 	0.047881 	4908 	0.047404
39.75 	0.043831 	4928 	0.043118
39.77 	0.041337 	4935 	0.041219
39.79 	0.047503 	4926 	0.047146
39.81 	0.046276 	4927 	0.046157
39.83 	0.048237 	4934 	0.047999
39.85 	0.043637 	4927 	0.043162
39.87 	0.047107 	4925 	0.046631
39.89 	0.044183 	4934 	0.043946
39.91 	0.043885 	4922 	0.042932
39.93 	0.040308 	4937 	0.039952
39.95 	0.045168 	4915 	0.044572
39.97 	0.040787 	4928 	0.040668
39.99 	0.046229 	4932 	0.045991
40.01 	0.044530 	4918 	0.043697
40.03 	0.046672 	4928 	0.045583
40.05 	0.045963 	4917 	0.045367
40.07 	0.039813 	4923 	0.039099
40.09 	0.043531 	4916 	0.042816
40.11 	0.040887 	4916 	0.040172
40.13 	0.045343 	4896 	0.044506
40.15 	0.041930 	4913 	0.041453
40.17 	0.042411 	4928 	0.041460
40.19 	0.037127 	4929 	0.037008
40.21 	0.042553 	4935 	0.042197
40.23 	0.044607 	4932 	0.043775
40.25 	0.041260 	4920 	0.041260
40.27 	0.040916 	4937 	0.040441
40.29 	0.041810 	4927 	0.041216
40.31 	0.043531 	4939 	0.042701
40.33 	0.046431 	4932 	0.045719
40.35 	0.044115 	4919 	0.043519
40.37 	0.043619 	4929 	0.043025
40.39 	0.033665 	4931 	0.033546
40.41 	0.043249 	4925 	0.042892
40.43 	0.041447 	4922 	0.040475
40.45 	0.036286 	4933 	0.036049
40.47 	0.043514 	4918 	0.042918
40.49 	0.044052 	4926 	0.043576
40.51 	0.039212 	4922 	0.038379
40.53 	0.046989 	4916 	0.046513
40.55 	0.037694 	4908 	0.037336
40.57 	0.040491 	4890 	0.040491
40.59 	0.038080 	4937 	0.037605
40.61 	0.045187 	4935 	0.044713
40.63 	0.049493 	4930 	0.049136
40.65 	0.039903 	4937 	0.039191
40.67 	0.041768 	4932 	0.041412
40.69 	0.043549 	4937 	0.042481
40.71 	0.039943 	4932 	0.039112
40.73 	0.040195 	4926 	0.039719
40.75 	0.040560 	4931 	0.040203
40.77 	0.043329 	4939 	0.042854
40.79 	0.044273 	4924 	0.043678
40.81 	0.038656 	4941 	0.038419
40.83 	0.037744 	4928 	0.036793
40.85 	0.040211 	4924 	0.040092
40.87 	0.043222 	4928 	0.042985
40.89 	0.042993 	4931 	0.042756
40.91 	0.041235 	4923 	0.040521
40.93 	0.045805 	4934 	0.044736
40.95 	0.043558 	4913 	0.042604
40.97 	0.042851 	4924 	0.042613
40.99 	0.039602 	4924 	0.039483
41.01 	0.038884 	4912 	0.038527
41.03 	0.042202 	4905 	0.041485
41.05 	0.040519 	4936 	0.039925
41.07 	0.044219 	4930 	0.043863
41.09 	0.042316 	4939 	0.041842
41.11 	0.041743 	4935 	0.041387
41.13 	0.041126 	4936 	0.040652
41.15 	0.041692 	4941 	0.041218
41.17 	0.036076 	4934 	0.035957
41.19 	0.041988 	4930 	0.041394
41.21 	0.031598 	4937 	0.031124
41.23 	0.043734 	4939 	0.043141
41.25 	0.035881 	4933 	0.035643
41.27 	0.037112 	4931 	0.036281
41.29 	0.036932 	4928 	0.036337
41.31 	0.039530 	4933 	0.039055
41.33 	0.042131 	4937 	0.041281
41.35 	0.040907 	4938 	0.040433
41.37 	0.038587 	4924 	0.037873
41.39 	0.048449 	4933 	0.047855
41.41 	0.043443 	4926 	0.043086
41.43 	0.043619 	4929 	0.043382
41.45 	0.045788 	4914 	0.045172
41.47 	0.039586 	4926 	0.039110
41.49 	0.049060 	4892 	0.048221
41.51 	0.043725 	4940 	0.043013
41.53 	0.042476 	4944 	0.041646
41.55 	0.038906 	4935 	0.038550
41.57 	0.040275 	4941 	0.039801
41.59 	0.043584 	4933 	0.043109
41.61 	0.039370 	4953 	0.038424
41.63 	0.040502 	4938 	0.040028
41.65 	0.045648 	4929 	0.045054
41.67 	0.045547 	4940 	0.044479
41.69 	0.041439 	4947 	0.040966
41.71 	0.043981 	4934 	0.043506
41.73 	0.047002 	4936 	0.046527
41.75 	0.036519 	4929 	0.036162
41.77 	0.038251 	4941 	0.037777
41.79 	0.042476 	4944 	0.042120
41.81 	0.044165 	4936 	0.043453
41.83 	0.042817 	4928 	0.042579
41.85 	0.036647 	4939 	0.036410
41.87 	0.037487 	4935 	0.037131
41.89 	0.042976 	4933 	0.042363
41.91 	0.038898 	4936 	0.038779
41.93 	0.043390 	4932 	0.042796
41.95 	0.039749 	4931 	0.039491
41.97 	0.039072 	4914 	0.038834
41.99 	0.037105 	4905 	0.036986
42.01 	0.042291 	4942 	0.041105
42.03 	0.045353 	4939 	0.044760
42.05 	0.042003 	4952 	0.041885
42.07 	0.041928 	4937 	0.041454
42.09 	0.044260 	4948 	0.043313
42.11 	0.040040 	4945 	0.039192
42.13 	0.039838 	4945 	0.039364
42.15 	0.042527 	4938 	0.042171
42.17 	0.039854 	4918 	0.039139
42.19 	0.038916 	4908 	0.038797
42.21 	0.040604 	4901 	0.040006
42.23 	0.038430 	4892 	0.038310
42.25 	0.033340 	4889 	0.032981
42.27 	0.037136 	4874 	0.037016
42.29 	0.041744 	4863 	0.041262
42.31 	0.039341 	4855 	0.038858
42.33 	0.036616 	4834 	0.036373
42.35 	0.035965 	4838 	0.035965
42.37 	0.037267 	4830 	0.036661
42.39 	0.043714 	4804 	0.043348
42.41 	0.040383 	4804 	0.039895
42.43 	0.037980 	4792 	0.037735
42.45 	0.036851 	4776 	0.036728
42.47 	0.041133 	4765 	0.040130
42.49 	0.039454 	4765 	0.039208
42.51 	0.038794 	4743 	0.038671
42.53 	0.042301 	4728 	0.041929
42.55 	0.042693 	4708 	0.042320
42.57 	0.039746 	4730 	0.039375
42.59 	0.041023 	4729 	0.040404
42.61 	0.036958 	4708 	0.036710
42.63 	0.044808 	4709 	0.044310
42.65 	0.043330 	4685 	0.043080
42.67 	0.034799 	4684 	0.034174
42.69 	0.040650 	4674 	0.040024
42.71 	0.040317 	4663 	0.039438
42.73 	0.042026 	4640 	0.041647
42.75 	0.034005 	4617 	0.033878
42.77 	0.041304 	4600 	0.041050
42.79 	0.034046 	4582 	0.033791
42.81 	0.037703 	4562 	0.037318
42.83 	0.039021 	4536 	0.039021
42.85 	0.037544 	4528 	0.037027
42.87 	0.041120 	4499 	0.040730
42.89 	0.043973 	4480 	0.043450
42.91 	0.037478 	4456 	0.036689
42.93 	0.041610 	4446 	0.041215
42.95 	0.039855 	4416 	0.039324
42.97 	0.039764 	4401 	0.039231
42.99 	0.035576 	4385 	0.035041
43.01 	0.039422 	4363 	0.039288
43.03 	0.034618 	4333 	0.034348
43.05 	0.036763 	4325 	0.036221
43.07 	0.036313 	4296 	0.036040
43.09 	0.041793 	4283 	0.041246
43.11 	0.041128 	4255 	0.040440
43.13 	0.031154 	4237 	0.031016
43.15 	0.036852 	4206 	0.036434
43.17 	0.035654 	4179 	0.035514
43.19 	0.038865 	4194 	0.038283
43.21 	0.040029 	4172 	0.039023
43.23 	0.039480 	4154 	0.039057
43.25 	0.040629 	4135 	0.039920
43.27 	0.039951 	4105 	0.039238
43.29 	0.042195 	4100 	0.041624
43.31 	0.035548 	4079 	0.035117
43.33 	0.039250 	4051 	0.038816
43.35 	0.043651 	4032 	0.043506
43.37 	0.035866 	4015 	0.035282
43.39 	0.033983 	4002 	0.033544
43.41 	0.036002 	3972 	0.035707
43.43 	0.031818 	3960 	0.031522
43.45 	0.039644 	3935 	0.039495
43.47 	0.038001 	3921 	0.037254
43.49 	0.039004 	3897 	0.038253
43.51 	0.034563 	3877 	0.033958
43.53 	0.036241 	3863 	0.035331
43.55 	0.028003 	2964 	0.028003
43.57 	0.031725 	2238 	0.031725
43.59 	0.041237 	1746 	0.040902
43.61 	0.045152 	1351 	0.044213
43.63 	0.027972 	1001 	0.027972
43.65 	0.037846 	687 	0.036993
43.67 	0.039841 	502 	0.038674
43.69 	0.021798 	367 	0.021798
43.71 	0.054393 	239 	0.054393
43.73 	0.041667 	120 	0.041667
43.75 	0.000000 	16 	0.000000