File: Example_Data/25SC_s1_0019.001.dat
#F C:\frames\spec\25SC_s1_0019.001
#C title =s:19 frm:1 25SC_s1
#C wavelength =0.15406

#S 1  fr_average C:\frames\spec\25SC_s1_0019.001 C:\win32app\speccom\mask.axs chi 0 180 0 360 0.02
#C 2 theta =0.000000 to 180 deg
#C   q   =0.000000 to 81.568 nm^-1
#C  chi  =0.000000 to 360 deg
#C collumns:
#C  1 position (2theta or chi in degrees)
#C  2 average intensity (sum of all counts in the region divided with number of pixels)
#C  3 Number of pixels in region)
#C  4 error (sum of sqrt(intensity) for all pixels divided by number)
#N 4
#L TTh  Int  N_pix  Err
32.99 	0.032787 	61 	0.032787
33.01 	0.073310 	873 	0.073310
33.03 	0.056794 	1391 	0.056373
33.05 	0.060330 	1757 	0.059663
33.07 	0.054634 	2050 	0.054063
33.09 	0.065616 	2347 	0.064118
33.11 	0.055836 	2579 	0.054927
33.13 	0.064447 	2793 	0.063608
33.15 	0.065355 	2999 	0.064378
33.17 	0.059356 	3201 	0.057892
33.19 	0.060742 	3342 	0.059690
33.21 	0.059662 	3436 	0.057759
33.23 	0.052228 	3523 	0.051896
33.25 	0.057586 	3612 	0.056748
33.27 	0.059780 	3630 	0.058301
33.29 	0.053454 	3648 	0.052651
33.31 	0.063115 	3660 	0.062128
33.33 	0.050733 	3686 	0.049620
33.35 	0.051705 	3694 	0.051071
33.37 	0.055197 	3714 	0.054092
33.39 	0.073746 	3729 	0.071704
33.41 	0.056417 	3740 	0.056260
33.43 	0.055039 	3761 	0.053948
33.45 	0.061224 	3773 	0.059827
33.47 	0.053186 	3798 	0.052877
33.49 	0.062746 	3809 	0.061823
33.51 	0.052425 	3815 	0.052118
33.53 	0.061703 	3841 	0.061093
33.55 	0.060630 	3843 	0.059410
33.57 	0.054424 	3877 	0.054121
33.59 	0.050515 	3880 	0.049157
33.61 	0.061397 	3909 	0.060498
33.63 	0.055882 	3919 	0.055284
33.65 	0.057237 	3931 	0.056492
33.67 	0.060445 	3954 	0.060149
33.69 	0.062484 	3953 	0.061002
33.71 	0.056352 	3975 	0.055910
33.73 	0.056194 	4004 	0.055316
33.75 	0.059515 	3999 	0.058782
33.77 	0.060621 	4025 	0.060185
33.79 	0.063351 	4041 	0.062457
33.81 	0.057454 	4038 	0.055690
33.83 	0.055062 	4050 	0.053760
33.85 	0.058551 	4099 	0.057265
33.87 	0.061056 	4111 	0.060343
33.89 	0.054113 	4121 	0.053118
33.91 	0.055435 	4149 	0.055153
33.93 	0.062395 	4151 	0.061407
33.95 	0.056446 	4181 	0.056026
33.97 	0.057279 	4190 	0.056440
33.99 	0.063095 	4200 	0.061979
34.01 	0.061476 	4213 	0.060086
34.03 	0.056079 	4244 	0.055113
34.05 	0.052211 	4252 	0.051109
34.07 	0.055295 	4268 	0.054883
34.09 	0.061129 	4286 	0.059489
34.11 	0.061134 	4302 	0.060045
34.13 	0.062210 	4308 	0.061394
34.15 	0.053106 	4331 	0.052159
34.17 	0.058851 	4350 	0.058581
34.19 	0.053874 	4362 	0.053740
34.21 	0.054450 	4371 	0.053646
34.23 	0.058047 	4393 	0.057358
34.25 	0.057448 	4404 	0.055830
34.27 	0.052465 	4422 	0.051405
34.29 	0.055468 	4435 	0.054411
34.31 	0.051593 	4458 	0.051330
34.33 	0.065086 	4471 	0.063754
34.35 	0.053524 	4484 	0.052870
34.37 	0.053218 	4491 	0.052435
34.39 	0.054865 	4502 	0.053563
34.41 	0.050817 	4526 	0.049912
34.43 	0.056620 	4539 	0.055846
34.45 	0.051599 	4535 	0.050953
34.47 	0.057709 	4592 	0.057454
34.49 	0.056124 	4597 	0.055486
34.51 	0.052757 	4606 	0.052249
34.53 	0.058152 	4643 	0.056638
34.55 	0.058583 	4643 	0.057573
34.57 	0.055579 	4660 	0.054553
34.59 	0.054759 	4675 	0.054258
34.61 	0.058335 	4697 	0.057442
34.63 	0.051380 	4710 	0.050489
34.65 	0.058250 	4721 	0.057010
34.67 	0.061379 	4741 	0.060515
34.69 	0.058687 	4754 	0.058071
34.71 	0.058330 	4766 	0.057961
34.73 	0.056821 	4787 	0.056453
34.75 	0.060732 	4808 	0.059514
34.77 	0.050021 	4818 	0.049778
34.79 	0.055141 	4824 	0.054291
34.81 	0.052632 	4845 	0.051282
34.83 	0.052653 	4862 	0.052171
34.85 	0.062436 	4869 	0.061353
34.87 	0.063476 	4868 	0.062633
34.89 	0.054076 	4882 	0.052977
34.91 	0.061655 	4882 	0.060575
34.93 	0.055317 	4899 	0.054480
34.95 	0.055010 	4890 	0.054291
34.97 	0.055896 	4902 	0.055059
34.99 	0.050643 	4897 	0.049567
35.01 	0.054235 	4923 	0.052926
35.03 	0.054420 	4943 	0.053709
35.05 	0.057206 	4947 	0.056121
35.07 	0.055668 	4940 	0.055312
35.09 	0.060166 	4953 	0.058727
35.11 	0.058217 	4947 	0.057743
35.13 	0.053247 	4958 	0.052302
35.15 	0.058335 	4937 	0.057030
35.17 	0.054387 	4946 	0.052729
35.19 	0.052408 	4942 	0.051341
35.21 	0.059858 	4945 	0.059148
35.23 	0.061072 	4945 	0.059413
35.25 	0.056039 	4943 	0.055328
35.27 	0.058205 	4948 	0.056528
35.29 	0.057027 	4945 	0.056198
35.31 	0.058180 	4933 	0.057230
35.33 	0.061906 	4943 	0.060839
35.35 	0.053420 	4942 	0.052827
35.37 	0.057906 	4939 	0.056720
35.39 	0.055207 	4945 	0.054023
35.41 	0.057044 	4926 	0.055736
35.43 	0.061626 	4933 	0.061270
35.45 	0.054689 	4937 	0.053839
35.47 	0.057595 	4931 	0.055575
35.49 	0.061711 	4910 	0.060876
35.51 	0.060292 	4926 	0.059222
35.53 	0.053546 	4949 	0.052580
35.55 	0.056016 	4945 	0.055305
35.57 	0.058990 	4933 	0.057803
35.59 	0.044085 	4945 	0.043848
35.61 	0.065561 	4942 	0.064593
35.63 	0.057860 	4943 	0.057030
35.65 	0.063094 	4945 	0.061673
35.67 	0.059692 	4942 	0.058863
35.69 	0.056005 	4946 	0.054939
35.71 	0.055499 	4937 	0.054669
35.73 	0.054295 	4936 	0.053464
35.75 	0.056784 	4931 	0.056427
35.77 	0.055140 	4951 	0.054430
35.79 	0.053933 	4932 	0.052845
35.81 	0.059193 	4933 	0.058006
35.83 	0.052770 	4946 	0.051803
35.85 	0.058764 	4935 	0.058052
35.87 	0.056876 	4923 	0.056043
35.89 	0.057357 	4934 	0.056526
35.91 	0.059265 	4927 	0.058433
35.93 	0.055612 	4927 	0.054542
35.95 	0.063047 	4917 	0.061855
35.97 	0.061279 	4912 	0.060563
35.99 	0.058919 	4939 	0.057614
36.01 	0.060852 	4930 	0.059664
36.03 	0.061501 	4943 	0.060316
36.05 	0.055814 	4945 	0.054866
36.07 	0.058514 	4939 	0.057446
36.09 	0.056478 	4940 	0.055292
36.11 	0.056401 	4929 	0.055807
36.13 	0.055443 	4942 	0.054001
36.15 	0.051022 	4939 	0.049955
36.17 	0.059289 	4925 	0.057842
36.19 	0.051012 	4940 	0.050518
36.21 	0.060459 	4929 	0.059627
36.23 	0.062411 	4935 	0.062055
36.25 	0.061728 	4941 	0.060543
36.27 	0.059695 	4925 	0.058268
36.29 	0.061042 	4931 	0.060567
36.31 	0.061080 	4928 	0.060604
36.33 	0.053923 	4933 	0.053091
36.35 	0.057415 	4929 	0.056702
36.37 	0.053829 	4923 	0.052857
36.39 	0.055070 	4921 	0.054118
36.41 	0.058007 	4896 	0.057408
36.43 	0.057833 	4928 	0.056644
36.45 	0.056998 	4930 	0.055691
36.47 	0.053485 	4936 	0.052654
36.49 	0.055645 	4942 	0.054530
36.51 	0.047638 	4933 	0.046926
36.53 	0.064738 	4943 	0.063316
36.55 	0.058453 	4927 	0.058216
36.57 	0.050872 	4934 	0.050159
36.59 	0.057502 	4939 	0.056671
36.61 	0.053944 	4931 	0.053113
36.63 	0.054958 	4931 	0.054364
36.65 	0.059408 	4932 	0.058577
36.67 	0.054970 	4930 	0.054138
36.69 	0.059241 	4929 	0.058290
36.71 	0.059541 	4921 	0.058450
36.73 	0.061929 	4925 	0.061096
36.75 	0.059264 	4944 	0.058671
36.77 	0.057125 	4919 	0.056292
36.79 	0.060557 	4921 	0.059247
36.81 	0.054719 	4916 	0.054123
36.83 	0.055748 	4915 	0.054794
36.85 	0.059412 	4898 	0.058575
36.87 	0.059668 	4944 	0.058602
36.89 	0.057771 	4916 	0.056221
36.91 	0.054645 	4941 	0.054171
36.93 	0.055984 	4930 	0.055152
36.95 	0.056152 	4933 	0.055321
36.97 	0.052898 	4934 	0.052542
36.99 	0.054306 	4935 	0.053594
37.01 	0.060409 	4933 	0.060053
37.03 	0.057067 	4924 	0.055759
37.05 	0.058656 	4927 	0.057467
37.07 	0.057751 	4935 	0.057276
37.09 	0.056412 	4928 	0.055343
37.11 	0.057143 	4935 	0.056431
37.13 	0.061942 	4924 	0.060633
37.15 	0.058260 	4909 	0.057286
37.17 	0.057560 	4934 	0.056491
37.19 	0.057665 	4925 	0.056832
37.21 	0.050844 	4917 	0.049534
37.23 	0.053274 	4918 	0.051963
37.25 	0.052331 	4911 	0.051139
37.27 	0.059665 	4894 	0.058707
37.29 	0.052130 	4930 	0.051536
37.31 	0.061398 	4935 	0.060192
37.33 	0.054191 	4927 	0.053716
37.35 	0.060956 	4938 	0.060125
37.37 	0.055409 	4927 	0.055052
37.39 	0.055364 	4931 	0.054869
37.41 	0.055364 	4931 	0.054176
37.43 	0.057380 	4932 	0.056074
37.45 	0.053818 	4924 	0.052985
37.47 	0.058430 	4929 	0.057360
37.49 	0.053016 	4923 	0.052422
37.51 	0.052706 	4933 	0.051400
37.53 	0.056312 	4919 	0.055955
37.55 	0.056187 	4930 	0.055117
37.57 	0.058883 	4925 	0.057575
37.59 	0.051068 	4915 	0.050949
37.61 	0.057091 	4922 	0.056139
37.63 	0.052043 	4919 	0.051686
37.65 	0.056934 	4918 	0.055862
37.67 	0.056892 	4904 	0.056176
37.69 	0.057983 	4898 	0.057504
37.71 	0.059241 	4929 	0.058409
37.73 	0.056198 	4929 	0.055604
37.75 	0.056883 	4940 	0.056171
37.77 	0.054065 	4920 	0.053470
37.79 	0.057606 	4930 	0.056518
37.81 	0.055544 	4933 	0.054951
37.83 	0.058130 	4920 	0.057297
37.85 	0.056481 	4922 	0.055033
37.87 	0.052642 	4939 	0.051931
37.89 	0.052183 	4925 	0.051707
37.91 	0.060243 	4930 	0.058936
37.93 	0.052653 	4919 	0.051105
37.95 	0.054054 	4921 	0.053102
37.97 	0.055792 	4929 	0.055198
37.99 	0.056393 	4912 	0.055319
38.01 	0.053166 	4928 	0.052195
38.03 	0.058464 	4909 	0.057629
38.05 	0.057462 	4925 	0.056867
38.07 	0.056020 	4909 	0.055304
38.09 	0.058426 	4878 	0.057345
38.11 	0.057143 	4935 	0.055600
38.13 	0.053879 	4937 	0.053167
38.15 	0.054494 	4918 	0.053898
38.17 	0.060649 	4930 	0.059817
38.19 	0.053347 	4930 	0.052277
38.21 	0.060938 	4923 	0.060225
38.23 	0.053665 	4938 	0.053072
38.25 	0.053285 	4917 	0.053046
38.27 	0.057809 	4930 	0.056383
38.29 	0.060520 	4924 	0.059192
38.31 	0.059468 	4927 	0.058141
38.33 	0.060520 	4924 	0.059549
38.35 	0.060065 	4928 	0.059114
38.37 	0.059098 	4924 	0.058741
38.39 	0.063353 	4909 	0.062279
38.41 	0.062360 	4923 	0.061646
38.43 	0.065907 	4916 	0.064477
38.45 	0.062627 	4918 	0.061674
38.47 	0.061137 	4907 	0.060063
38.49 	0.065819 	4877 	0.064598
38.51 	0.071168 	4932 	0.070099
38.53 	0.073849 	4929 	0.071928
38.55 	0.070705 	4936 	0.069281
38.57 	0.067845 	4923 	0.066536
38.59 	0.067425 	4924 	0.066473
38.61 	0.065032 	4936 	0.064202
38.63 	0.075751 	4924 	0.074324
38.65 	0.069744 	4918 	0.068672
38.67 	0.072109 	4937 	0.070447
38.69 	0.069687 	4922 	0.067644
38.71 	0.068846 	4924 	0.067637
38.73 	0.079097 	4918 	0.076695
38.75 	0.070022 	4927 	0.068358
38.77 	0.071095 	4923 	0.070262
38.79 	0.071950 	4934 	0.071000
38.81 	0.068404 	4912 	0.067211
38.83 	0.063631 	4919 	0.062559
38.85 	0.064332 	4912 	0.063259
38.87 	0.062105 	4911 	0.060793
38.89 	0.060037 	4897 	0.058342
38.91 	0.058536 	4903 	0.057341
38.93 	0.057108 	4938 	0.056040
38.95 	0.058967 	4918 	0.058014
38.97 	0.053742 	4931 	0.052791
38.99 	0.059955 	4937 	0.058393
39.01 	0.054087 	4918 	0.053491
39.03 	0.048845 	4934 	0.048132
39.05 	0.051574 	4925 	0.050741
39.07 	0.050772 	4924 	0.050653
39.09 	0.048954 	4923 	0.048359
39.11 	0.053133 	4931 	0.052302
39.13 	0.045907 	4923 	0.045193
39.15 	0.045371 	4915 	0.045014
39.17 	0.046384 	4937 	0.046147
39.19 	0.047387 	4917 	0.047148
39.21 	0.048880 	4910 	0.048403
39.23 	0.047919 	4925 	0.047443
39.25 	0.044697 	4922 	0.044221
39.27 	0.045010 	4910 	0.044772
39.29 	0.048357 	4901 	0.047760
39.31 	0.046683 	4884 	0.046083
39.33 	0.043805 	4931 	0.043092
39.35 	0.050051 	4935 	0.049082
39.37 	0.050112 	4929 	0.049161
39.39 	0.046865 	4929 	0.046271
39.41 	0.041979 	4931 	0.041623
39.43 	0.045814 	4933 	0.045101
39.45 	0.048528 	4925 	0.047457
39.47 	0.048141 	4923 	0.047051
39.49 	0.041962 	4933 	0.041725
39.51 	0.043258 	4924 	0.042782
39.53 	0.047329 	4923 	0.046615
39.55 	0.046148 	4919 	0.044957
39.57 	0.049666 	4933 	0.048815
39.59 	0.043363 	4912 	0.043125
39.61 	0.044079 	4923 	0.043841
39.63 	0.048151 	4922 	0.047437
39.65 	0.044864 	4926 	0.044388
39.67 	0.044372 	4913 	0.044014
39.69 	0.045362 	4916 	0.044766
39.71 	0.045965 	4895 	0.045247
39.73 	0.046659 	4908 	0.045942
39.75 	0.046672 	4928 	0.045721
39.77 	0.044782 	4935 	0.044426
39.79 	0.040195 	4926 	0.039600
39.81 	0.049929 	4927 	0.049453
39.83 	0.039116 	4934 	0.038879
39.85 	0.044043 	4927 	0.043092
39.87 	0.041421 	4925 	0.040827
39.89 	0.049047 	4934 	0.048216
39.91 	0.046119 	4922 	0.045881
39.93 	0.041321 	4937 	0.040965
39.95 	0.045168 	4915 	0.044572
39.97 	0.057630 	4928 	0.055728
39.99 	0.045012 	4932 	0.044418
40.01 	0.045344 	4918 	0.044986
40.03 	0.046672 	4928 	0.046315
40.05 	0.046776 	4917 	0.046062
40.07 	0.047938 	4923 	0.047700
40.09 	0.048007 	4916 	0.047530
40.11 	0.042514 	4916 	0.042395
40.13 	0.044935 	4896 	0.044456
40.15 	0.041115 	4913 	0.040519
40.17 	0.043425 	4928 	0.043069
40.19 	0.048489 	4929 	0.048132
40.21 	0.042756 	4935 	0.042281
40.23 	0.040349 	4932 	0.039992
40.25 	0.039634 	4920 	0.038920
40.27 	0.045777 	4937 	0.045302
40.29 	0.040390 	4927 	0.040033
40.31 	0.046568 	4939 	0.046331
40.33 	0.041768 	4932 	0.041055
40.35 	0.040862 	4919 	0.040624
40.37 	0.040982 	4929 	0.040388
40.39 	0.038329 	4931 	0.037973
40.41 	0.036751 	4925 	0.035899
40.43 	0.041447 	4922 	0.040971
40.45 	0.042368 	4933 	0.042011
40.47 	0.041480 	4918 	0.040647
40.49 	0.042022 	4926 	0.041665
40.51 	0.043275 	4922 	0.042680
40.53 	0.044548 	4916 	0.044072
40.55 	0.041769 	4908 	0.041052
40.57 	0.041922 	4890 	0.041683
40.59 	0.039903 	4937 	0.039665
40.61 	0.043769 	4935 	0.042938
40.63 	0.038337 	4930 	0.037861
40.65 	0.034636 	4937 	0.033925
40.67 	0.040957 	4932 	0.040363
40.69 	0.043549 	4937 	0.043193
40.71 	0.042174 	4932 	0.041698
40.73 	0.042022 	4926 	0.041427
40.75 	0.045021 	4931 	0.044427
40.77 	0.047985 	4939 	0.047155
40.79 	0.041836 	4924 	0.041241
40.81 	0.039870 	4941 	0.039633
40.83 	0.047281 	4928 	0.046805
40.85 	0.040820 	4924 	0.040464
40.87 	0.042614 	4928 	0.041782
40.89 	0.042385 	4931 	0.041197
40.91 	0.043469 	4923 	0.043112
40.93 	0.044589 	4934 	0.044114
40.95 	0.040505 	4913 	0.039531
40.97 	0.041024 	4924 	0.040786
40.99 	0.038383 	4924 	0.038145
41.01 	0.044178 	4912 	0.043343
41.03 	0.039959 	4905 	0.039362
41.05 	0.033630 	4936 	0.033037
41.07 	0.037525 	4930 	0.036793
41.09 	0.044746 	4939 	0.043916
41.11 	0.042351 	4935 	0.041757
41.13 	0.044571 	4936 	0.044096
41.15 	0.038656 	4941 	0.038300
41.17 	0.037090 	4934 	0.036852
41.19 	0.036714 	4930 	0.036476
41.21 	0.043549 	4937 	0.043430
41.23 	0.039279 	4939 	0.039161
41.25 	0.039530 	4933 	0.039173
41.27 	0.045630 	4931 	0.044917
41.29 	0.040990 	4928 	0.040515
41.31 	0.039530 	4933 	0.038817
41.33 	0.039700 	4937 	0.039226
41.35 	0.038680 	4938 	0.038561
41.37 	0.041633 	4924 	0.041157
41.39 	0.042368 	4933 	0.041893
41.41 	0.040804 	4926 	0.040566
41.43 	0.052952 	4929 	0.052001
41.45 	0.039479 	4914 	0.038764
41.47 	0.041210 	4926 	0.040853
41.49 	0.038430 	4892 	0.037712
41.51 	0.044130 	4940 	0.042924
41.53 	0.041667 	4944 	0.041193
41.55 	0.041743 	4935 	0.041030
41.57 	0.039668 	4941 	0.039312
41.59 	0.044192 	4933 	0.043717
41.61 	0.043206 	4953 	0.042851
41.63 	0.038275 	4938 	0.037800
41.65 	0.044837 	4929 	0.044361
41.67 	0.042105 	4940 	0.041631
41.69 	0.043461 	4947 	0.042869
41.71 	0.039724 	4934 	0.039487
41.73 	0.044976 	4936 	0.044264
41.75 	0.041996 	4929 	0.041164
41.77 	0.037847 	4941 	0.037372
41.79 	0.043285 	4944 	0.042811
41.81 	0.036062 	4936 	0.035706
41.83 	0.041802 	4928 	0.041445
41.85 	0.037052 	4939 	0.036578
41.87 	0.037082 	4935 	0.036607
41.89 	0.038313 	4933 	0.038195
41.91 	0.038898 	4936 	0.038779
41.93 	0.038118 	4932 	0.037643
41.95 	0.039343 	4931 	0.038749
41.97 	0.041311 	4914 	0.041191
41.99 	0.043017 	4905 	0.042778
42.01 	0.043302 	4942 	0.042473
42.03 	0.042114 	4939 	0.041521
42.05 	0.039984 	4952 	0.039866
42.07 	0.040105 	4937 	0.040105
42.09 	0.041431 	4948 	0.040957
42.11 	0.037412 	4945 	0.036464
42.13 	0.038827 	4945 	0.038590
42.15 	0.043540 	4938 	0.043065
42.17 	0.038227 	4918 	0.037274
42.19 	0.038305 	4908 	0.037589
42.21 	0.039176 	4901 	0.039056
42.23 	0.035364 	4892 	0.035364
42.25 	0.039272 	4889 	0.038793
42.27 	0.039803 	4874 	0.039202
42.29 	0.040510 	4863 	0.040149
42.31 	0.029042 	4855 	0.028922
42.33 	0.039926 	4834 	0.039562
42.35 	0.035345 	4838 	0.035103
42.37 	0.039337 	4830 	0.038489
42.39 	0.038718 	4804 	0.038474
42.41 	0.035387 	4804 	0.035021
42.43 	0.038397 	4792 	0.038275
42.45 	0.037060 	4776 	0.037060
42.47 	0.037146 	4765 	0.036777
42.49 	0.037775 	4765 	0.036915
42.51 	0.038372 	4743 	0.038002
42.53 	0.036591 	4728 	0.036095
42.55 	0.034410 	4708 	0.034016
42.57 	0.041226 	4730 	0.041102
42.59 	0.039755 	4729 	0.039383
42.61 	0.045242 	4708 	0.044371
42.63 	0.038437 	4709 	0.038437
42.65 	0.043757 	4685 	0.042881
42.67 	0.039496 	4684 	0.039371
42.69 	0.037655 	4674 	0.037404
42.71 	0.034098 	4663 	0.033847
42.73 	0.040948 	4640 	0.040443
42.75 	0.040502 	4617 	0.039995
42.77 	0.041087 	4600 	0.040832
42.79 	0.037102 	4582 	0.036590
42.81 	0.036607 	4562 	0.036350
42.83 	0.041667 	4536 	0.041279
42.85 	0.037544 	4528 	0.037285
42.87 	0.041565 	4499 	0.041044
42.89 	0.034152 	4480 	0.033760
42.91 	0.041068 	4456 	0.040805
42.93 	0.038012 	4446 	0.037616
42.95 	0.038723 	4416 	0.038060
42.97 	0.042036 	4401 	0.041770
42.99 	0.037400 	4385 	0.037133
43.01 	0.040339 	4363 	0.040071
43.03 	0.033464 	4333 	0.033329
43.05 	0.038844 	4325 	0.038302
43.07 	0.034916 	4296 	0.034507
43.09 	0.033855 	4283 	0.033308
43.11 	0.039013 	4255 	0.038738
43.13 	0.035638 	4237 	0.035085
43.15 	0.033761 	4206 	0.033343
43.17 	0.039483 	4179 	0.038782
43.19 	0.037911 	4194 	0.037632
43.21 	0.035714 	4172 	0.035433
43.23 	0.041647 	4154 	0.041059
43.25 	0.041838 	4135 	0.041413
43.27 	0.039464 	4105 	0.039036
43.29 	0.037805 	4100 	0.037519
43.31 	0.040941 	4079 	0.039913
43.33 	0.040978 	4051 	0.040544
43.35 	0.039931 	4032 	0.039495
43.37 	0.039103 	4015 	0.038666
43.39 	0.040230 	4002 	0.039937
43.41 	0.042296 	3972 	0.042149
43.43 	0.038889 	3960 	0.038445
43.45 	0.038374 	3935 	0.037927
43.47 	0.038256 	3921 	0.037509
43.49 	0.039518 	3897 	0.039067
43.51 	0.033531 	3877 	0.033380
43.53 	0.039865 	3863 	0.039714
43.55 	0.032726 	2964 	0.032528
43.57 	0.038427 	2238 	0.038427
43.59 	0.034364 	1746 	0.033693
43.61 	0.031828 	1351 	0.031828
43.63 	0.036963 	1001 	0.036378
43.65 	0.034934 	687 	0.034934
43.67 	0.047809 	502 	0.046642
43.69 	0.040872 	367 	0.039276
43.71 	0.025105 	239 	0.025105
43.73 	0.025000 	120 	0.025000
43.75 	0.000000 	16 	0.000000