File: Example_Data/25SC_s1_0046.003.dat
#F C:\frames\spec\25SC_s1_0046.003
#C title =s:46 frm:3 25SC_s1
#C wavelength =0.15406

#S 1  fr_average C:\frames\spec\25SC_s1_0046.003 C:\win32app\speccom\mask.axs chi 0 180 0 360 0.02
#C 2 theta =0.000000 to 180 deg
#C   q   =0.000000 to 81.568 nm^-1
#C  chi  =0.000000 to 360 deg
#C collumns:
#C  1 position (2theta or chi in degrees)
#C  2 average intensity (sum of all counts in the region divided with number of pixels)
#C  3 Number of pixels in region)
#C  4 error (sum of sqrt(intensity) for all pixels divided by number)
#N 4
#L TTh  Int  N_pix  Err
32.99 	0.081967 	61 	0.072364
33.01 	0.045819 	873 	0.045819
33.03 	0.058950 	1391 	0.057687
33.05 	0.052931 	1757 	0.052264
33.07 	0.061951 	2050 	0.059951
33.09 	0.065616 	2347 	0.065117
33.11 	0.052346 	2579 	0.051437
33.13 	0.059792 	2793 	0.058953
33.15 	0.062354 	2999 	0.060987
33.17 	0.051859 	3201 	0.050944
33.19 	0.057451 	3342 	0.056750
33.21 	0.058498 	3436 	0.057646
33.23 	0.059041 	3523 	0.058708
33.25 	0.054817 	3612 	0.054493
33.27 	0.050413 	3630 	0.049768
33.29 	0.057018 	3648 	0.056375
33.31 	0.056011 	3660 	0.055051
33.33 	0.065111 	3686 	0.063655
33.35 	0.054683 	3694 	0.053415
33.37 	0.057889 	3714 	0.057731
33.39 	0.061142 	3729 	0.060357
33.41 	0.053743 	3740 	0.052804
33.43 	0.060888 	3761 	0.060421
33.45 	0.068646 	3773 	0.066757
33.47 	0.062401 	3798 	0.061476
33.49 	0.050932 	3809 	0.049984
33.51 	0.063434 	3815 	0.062513
33.53 	0.061442 	3841 	0.060375
33.55 	0.058288 	3843 	0.057831
33.57 	0.057261 	3877 	0.056354
33.59 	0.063402 	3880 	0.062647
33.61 	0.057304 	3909 	0.056080
33.63 	0.059709 	3919 	0.058812
33.65 	0.055965 	3931 	0.055518
33.67 	0.057410 	3954 	0.055929
33.69 	0.062484 	3953 	0.061447
33.71 	0.058616 	3975 	0.057585
33.73 	0.063187 	4004 	0.062748
33.75 	0.063016 	3999 	0.061551
33.77 	0.057888 	4025 	0.056578
33.79 	0.057906 	4041 	0.056602
33.81 	0.063398 	4038 	0.062527
33.83 	0.065432 	4050 	0.064420
33.85 	0.061966 	4099 	0.060657
33.87 	0.060083 	4111 	0.059085
33.89 	0.063819 	4121 	0.062114
33.91 	0.053507 	4149 	0.053083
33.93 	0.054445 	4151 	0.053457
33.95 	0.054532 	4181 	0.053972
33.97 	0.057279 	4190 	0.055881
33.99 	0.057619 	4200 	0.055760
34.01 	0.060764 	4213 	0.059652
34.03 	0.053252 	4244 	0.053114
34.05 	0.060913 	4252 	0.059512
34.07 	0.058810 	4268 	0.057849
34.09 	0.051797 	4286 	0.050840
34.11 	0.056950 	4302 	0.055452
34.13 	0.055942 	4308 	0.054991
34.15 	0.052413 	4331 	0.051038
34.17 	0.055402 	4350 	0.054572
34.19 	0.050665 	4362 	0.049859
34.21 	0.056051 	4371 	0.055113
34.23 	0.063738 	4393 	0.063071
34.25 	0.058810 	4404 	0.057613
34.27 	0.054274 	4422 	0.053612
34.29 	0.060428 	4435 	0.059900
34.31 	0.051368 	4458 	0.051106
34.33 	0.053679 	4471 	0.052893
34.35 	0.058207 	4484 	0.057292
34.37 	0.057894 	4491 	0.056328
34.39 	0.056641 	4502 	0.055340
34.41 	0.059434 	4526 	0.057601
34.43 	0.059705 	4539 	0.058801
34.45 	0.061522 	4535 	0.060488
34.47 	0.055749 	4592 	0.054984
34.49 	0.063737 	4597 	0.062463
34.51 	0.061007 	4606 	0.060499
34.53 	0.062890 	4643 	0.061503
34.55 	0.059660 	4643 	0.058777
34.57 	0.065021 	4660 	0.063492
34.59 	0.060321 	4675 	0.059444
34.61 	0.055142 	4697 	0.054393
34.63 	0.061571 	4710 	0.060079
34.65 	0.060369 	4721 	0.058859
34.67 	0.056106 	4741 	0.054871
34.69 	0.060581 	4754 	0.059205
34.71 	0.054553 	4766 	0.054061
34.73 	0.056194 	4787 	0.054583
34.75 	0.066140 	4808 	0.065287
34.77 	0.057908 	4818 	0.057057
34.79 	0.057007 	4824 	0.056521
34.81 	0.063983 	4845 	0.063137
34.83 	0.058001 	4862 	0.056314
34.85 	0.057301 	4869 	0.056579
34.87 	0.058956 	4868 	0.058114
34.89 	0.056944 	4882 	0.055984
34.91 	0.062474 	4882 	0.061634
34.93 	0.057563 	4899 	0.056606
34.95 	0.056851 	4890 	0.056372
34.97 	0.056304 	4902 	0.055348
34.99 	0.055340 	4897 	0.054024
35.01 	0.055454 	4923 	0.054264
35.03 	0.054420 	4943 	0.053472
35.05 	0.056196 	4947 	0.055248
35.07 	0.056275 	4940 	0.055564
35.09 	0.059762 	4953 	0.059289
35.11 	0.059834 	4947 	0.058413
35.13 	0.059903 	4958 	0.058722
35.15 	0.055499 	4937 	0.054906
35.17 	0.053376 	4946 	0.052666
35.19 	0.058681 	4942 	0.057614
35.21 	0.064105 	4945 	0.063039
35.23 	0.066330 	4945 	0.065027
35.25 	0.058467 	4943 	0.057637
35.27 	0.060226 	4948 	0.059398
35.29 	0.060263 	4945 	0.059315
35.31 	0.049868 	4933 	0.048562
35.33 	0.060692 	4943 	0.059625
35.35 	0.057062 	4942 	0.056351
35.37 	0.059526 	4939 	0.058340
35.39 	0.063094 	4945 	0.061436
35.41 	0.059277 	4926 	0.057969
35.43 	0.050071 	4933 	0.049596
35.45 	0.060158 	4937 	0.059446
35.47 	0.056986 	4931 	0.056254
35.49 	0.065173 	4910 	0.063980
35.51 	0.061104 	4926 	0.059796
35.53 	0.056981 	4949 	0.056034
35.55 	0.059858 	4945 	0.058674
35.57 	0.060612 	4933 	0.060018
35.59 	0.059050 	4945 	0.057865
35.61 	0.055241 	4942 	0.054767
35.63 	0.055230 	4943 	0.054519
35.65 	0.059858 	4945 	0.058536
35.67 	0.054229 	4942 	0.053854
35.69 	0.063081 	4946 	0.061186
35.71 	0.062386 	4937 	0.061200
35.73 	0.059562 	4936 	0.058119
35.75 	0.057798 	4931 	0.056313
35.77 	0.056150 	4951 	0.055322
35.79 	0.055556 	4932 	0.053992
35.81 	0.055544 	4933 	0.054238
35.83 	0.061868 	4946 	0.060191
35.85 	0.056738 	4935 	0.056381
35.87 	0.058704 	4923 	0.057871
35.89 	0.059587 	4934 	0.058874
35.91 	0.051959 	4927 	0.050889
35.93 	0.054394 	4927 	0.054156
35.95 	0.058572 	4917 	0.057738
35.97 	0.058836 	4912 	0.057385
35.99 	0.058919 	4939 	0.058089
36.01 	0.059635 	4930 	0.058684
36.03 	0.057455 	4943 	0.057099
36.05 	0.060061 	4945 	0.058857
36.07 	0.052642 	4939 	0.051456
36.09 	0.056680 	4940 	0.055850
36.11 	0.053155 	4929 	0.052679
36.13 	0.055645 	4942 	0.054934
36.15 	0.059931 	4939 	0.059457
36.17 	0.058274 	4925 	0.057065
36.19 	0.056478 	4940 	0.055292
36.21 	0.052343 	4929 	0.051868
36.23 	0.053495 	4935 	0.052546
36.25 	0.056871 	4941 	0.055804
36.27 	0.060711 	4925 	0.059640
36.29 	0.054756 	4931 	0.053924
36.31 	0.054180 	4928 	0.053348
36.33 	0.058585 	4933 	0.057160
36.35 	0.056807 	4929 	0.055480
36.37 	0.059720 	4923 	0.058411
36.39 	0.053648 	4921 	0.053291
36.41 	0.055351 	4896 	0.054394
36.43 	0.058644 	4928 	0.057218
36.45 	0.055984 	4930 	0.055033
36.47 	0.060170 	4936 	0.059102
36.49 	0.055038 	4942 	0.054308
36.51 	0.051895 	4933 	0.051302
36.53 	0.059883 	4943 	0.058816
36.55 	0.058859 	4927 	0.058384
36.57 	0.053709 	4934 	0.053353
36.59 	0.054869 	4939 	0.054158
36.61 	0.055972 	4931 	0.054765
36.63 	0.055972 	4931 	0.055378
36.65 	0.060219 	4932 	0.058794
36.67 	0.055578 	4930 	0.054252
36.69 	0.053358 	4929 	0.052882
36.71 	0.054867 	4921 	0.053438
36.73 	0.050761 	4925 	0.050642
36.75 	0.058050 	4944 	0.056865
36.77 	0.054686 	4919 	0.053376
36.79 	0.054257 	4921 	0.053662
36.81 	0.055330 	4916 	0.053900
36.83 	0.051272 	4915 	0.050676
36.85 	0.057779 	4898 	0.057300
36.87 	0.058050 	4944 	0.056865
36.89 	0.053092 	4916 	0.051900
36.91 	0.059907 	4941 	0.058702
36.93 	0.048682 	4930 	0.047375
36.95 	0.051490 	4933 	0.051252
36.97 	0.052696 	4934 	0.052102
36.99 	0.057548 	4935 	0.056599
37.01 	0.052706 	4933 	0.051974
37.03 	0.054833 	4924 	0.054001
37.05 	0.055003 	4927 	0.054409
37.07 	0.055927 	4935 	0.054977
37.09 	0.054586 	4928 	0.053160
37.11 	0.053698 	4935 	0.052748
37.13 	0.056661 	4924 	0.055947
37.15 	0.054390 	4909 	0.053316
37.17 	0.060600 	4934 	0.059413
37.19 	0.054416 	4925 	0.053188
37.21 	0.052471 	4917 	0.051399
37.23 	0.055714 	4918 	0.054265
37.25 	0.049074 	4911 	0.048119
37.27 	0.051492 	4894 	0.050654
37.29 	0.055375 	4930 	0.054662
37.31 	0.055117 	4935 	0.054523
37.33 	0.053582 	4927 	0.053345
37.35 	0.050628 	4938 	0.050153
37.37 	0.054394 	4927 	0.053324
37.39 	0.049888 	4931 	0.049413
37.41 	0.050902 	4931 	0.050665
37.43 	0.058191 	4932 	0.057241
37.45 	0.052600 	4924 	0.051648
37.47 	0.055589 	4929 	0.054401
37.49 	0.053423 	4923 	0.052432
37.51 	0.056355 	4933 	0.055405
37.53 	0.053060 	4919 	0.051849
37.55 	0.049087 	4930 	0.048018
37.57 	0.052183 	4925 	0.051707
37.59 	0.056358 	4915 	0.055762
37.61 	0.048354 	4922 	0.047521
37.63 	0.057939 	4919 	0.057700
37.65 	0.049614 	4918 	0.048423
37.67 	0.058524 	4904 	0.057090
37.69 	0.053491 	4898 	0.052654
37.71 	0.051735 	4929 	0.051259
37.73 	0.049909 	4929 	0.049433
37.75 	0.055466 	4940 	0.054517
37.77 	0.048780 	4920 	0.048304
37.79 	0.052535 	4930 	0.051110
37.81 	0.052706 	4933 	0.051756
37.83 	0.051829 	4920 	0.050857
37.85 	0.046932 	4922 	0.046099
37.87 	0.049403 	4939 	0.048810
37.89 	0.052995 	4925 	0.052043
37.91 	0.052535 	4930 	0.051546
37.93 	0.050823 	4919 	0.049752
37.95 	0.053038 	4921 	0.051491
37.97 	0.047271 	4929 	0.046915
37.99 	0.049064 	4912 	0.048706
38.01 	0.053369 	4928 	0.052655
38.03 	0.051538 	4909 	0.050444
38.05 	0.047513 	4925 	0.046442
38.07 	0.049297 	4909 	0.048343
38.09 	0.052686 	4878 	0.051965
38.11 	0.052685 	4935 	0.052091
38.13 	0.055499 	4937 	0.054293
38.15 	0.050020 	4918 	0.049544
38.17 	0.053753 	4930 	0.053515
38.19 	0.051318 	4930 	0.051081
38.21 	0.054438 	4923 	0.053486
38.23 	0.049008 	4938 	0.048770
38.25 	0.055318 	4917 	0.054365
38.27 	0.054970 	4930 	0.053999
38.29 	0.049553 	4924 	0.049077
38.31 	0.052770 	4927 	0.051819
38.33 	0.061942 	4924 	0.060276
38.35 	0.056615 	4928 	0.056021
38.37 	0.055037 	4924 	0.054204
38.39 	0.058057 	4909 	0.056983
38.41 	0.052813 	4923 	0.052218
38.43 	0.057364 	4916 	0.056410
38.45 	0.059374 	4918 	0.058421
38.47 	0.061137 	4907 	0.060043
38.49 	0.055362 	4877 	0.054521
38.51 	0.067721 	4932 	0.066652
38.53 	0.055184 	4929 	0.055065
38.55 	0.055308 	4936 	0.054596
38.57 	0.061345 	4923 	0.060512
38.59 	0.048741 	4924 	0.048146
38.61 	0.065438 	4936 	0.064844
38.63 	0.062551 	4924 	0.061123
38.65 	0.051240 	4918 	0.050287
38.67 	0.061778 	4937 	0.060286
38.69 	0.052215 	4922 	0.050905
38.71 	0.055240 	4924 	0.053931
38.73 	0.053680 	4918 	0.053085
38.75 	0.050335 	4927 	0.049622
38.77 	0.055048 	4923 	0.054215
38.79 	0.047831 	4934 	0.047238
38.81 	0.050896 	4912 	0.049703
38.83 	0.055702 	4919 	0.054512
38.85 	0.051507 	4912 	0.050195
38.87 	0.049888 	4911 	0.049172
38.89 	0.048193 	4897 	0.047236
38.91 	0.050581 	4903 	0.049984
38.93 	0.051843 	4938 	0.051012
38.95 	0.049410 	4918 	0.048557
38.97 	0.049483 	4931 	0.048532
38.99 	0.050638 	4937 	0.049926
39.01 	0.047580 	4918 	0.046389
39.03 	0.042967 	4934 	0.042017
39.05 	0.049543 	4925 	0.048948
39.07 	0.042242 	4924 	0.041766
39.09 	0.047126 	4923 	0.046531
39.11 	0.047049 	4931 	0.046337
39.13 	0.048345 	4923 	0.047155
39.15 	0.051068 	4915 	0.050711
39.17 	0.051246 	4937 	0.051008
39.19 	0.045556 	4917 	0.045080
39.21 	0.058248 	4910 	0.056698
39.23 	0.048731 	4925 	0.048136
39.25 	0.048761 	4922 	0.048027
39.27 	0.044603 	4910 	0.044006
39.29 	0.048153 	4901 	0.046958
39.31 	0.050164 	4884 	0.049804
39.33 	0.054147 	4931 	0.053296
39.35 	0.046606 	4935 	0.046131
39.37 	0.049909 	4929 	0.049196
39.39 	0.047271 	4929 	0.046677
39.41 	0.045427 	4931 	0.044477
39.43 	0.049666 	4933 	0.048458
39.45 	0.050761 	4925 	0.050048
39.47 	0.047329 	4923 	0.046734
39.49 	0.048044 	4933 	0.047688
39.51 	0.044273 	4924 	0.043916
39.53 	0.047126 	4923 	0.046888
39.55 	0.048790 	4919 	0.048314
39.57 	0.048247 	4933 	0.047534
39.59 	0.045603 	4912 	0.044768
39.61 	0.051391 	4923 	0.050915
39.63 	0.048354 	4922 	0.047878
39.65 	0.048315 	4926 	0.047483
39.67 	0.053531 	4913 	0.052578
39.69 	0.050041 	4916 	0.049445
39.71 	0.051277 	4895 	0.050200
39.73 	0.045029 	4908 	0.044193
39.75 	0.045657 	4928 	0.044944
39.77 	0.045187 	4935 	0.044475
39.79 	0.044864 	4926 	0.044507
39.81 	0.044449 	4927 	0.043003
39.83 	0.052898 	4934 	0.052305
39.85 	0.043840 	4927 	0.043364
39.87 	0.042234 	4925 	0.041639
39.89 	0.046615 	4934 	0.045903
39.91 	0.044697 	4922 	0.043983
39.93 	0.050030 	4937 	0.049200
39.95 	0.047406 	4915 	0.046214
39.97 	0.047687 	4928 	0.046617
39.99 	0.048256 	4932 	0.048019
40.01 	0.044530 	4918 	0.044173
40.03 	0.039976 	4928 	0.039857
40.05 	0.050437 	4917 	0.049842
40.07 	0.041641 	4923 	0.041146
40.09 	0.040887 	4916 	0.040529
40.11 	0.048413 	4916 	0.047579
40.13 	0.049632 	4896 	0.048795
40.15 	0.052310 	4913 	0.051456
40.17 	0.045049 	4928 	0.044573
40.19 	0.049503 	4929 	0.048909
40.21 	0.051064 	4935 	0.050352
40.23 	0.048256 	4932 	0.047781
40.25 	0.046951 	4920 	0.046356
40.27 	0.047600 	4937 	0.046888
40.29 	0.050335 	4927 	0.049740
40.31 	0.047985 	4939 	0.047748
40.33 	0.051500 	4932 	0.050669
40.35 	0.047977 	4919 	0.047263
40.37 	0.041996 	4929 	0.041521
40.39 	0.042993 	4931 	0.041805
40.41 	0.042234 	4925 	0.041877
40.43 	0.043885 	4922 	0.043528
40.45 	0.042570 	4933 	0.041838
40.47 	0.046157 	4918 	0.045681
40.49 	0.041413 	4926 	0.040918
40.51 	0.047338 	4922 	0.046624
40.53 	0.047396 	4916 	0.046681
40.55 	0.042176 	4908 	0.041818
40.57 	0.041718 	4890 	0.041478
40.59 	0.043346 	4937 	0.043346
40.61 	0.038501 	4935 	0.037907
40.63 	0.042799 	4930 	0.042443
40.65 	0.044967 	4937 	0.044373
40.67 	0.051703 	4932 	0.050753
40.69 	0.043549 	4937 	0.043311
40.71 	0.052109 	4932 	0.051158
40.73 	0.044255 	4926 	0.043541
40.75 	0.051511 	4931 	0.051036
40.77 	0.046771 	4939 	0.046296
40.79 	0.041227 	4924 	0.040731
40.81 	0.047966 	4941 	0.047136
40.83 	0.047890 	4928 	0.047533
40.85 	0.045898 	4924 	0.045184
40.87 	0.048093 	4928 	0.047260
40.89 	0.040763 	4931 	0.040169
40.91 	0.045907 	4923 	0.045550
40.93 	0.042359 	4934 	0.041766
40.95 	0.043965 	4913 	0.043369
40.97 	0.035337 	4924 	0.034980
40.99 	0.048335 	4924 	0.047502
41.01 	0.046621 	4912 	0.045905
41.03 	0.047503 	4905 	0.046667
41.05 	0.047407 	4936 	0.047051
41.07 	0.048276 	4930 	0.047306
41.09 	0.039077 	4939 	0.038721
41.11 	0.044377 	4935 	0.043902
41.13 	0.043558 	4936 	0.042964
41.15 	0.043513 	4941 	0.042328
41.17 	0.038711 	4934 	0.038236
41.19 	0.041785 	4930 	0.041191
41.21 	0.043346 	4937 	0.042872
41.23 	0.044746 	4939 	0.044509
41.25 	0.045206 	4933 	0.044731
41.27 	0.043196 	4931 	0.042721
41.29 	0.044643 	4928 	0.044167
41.31 	0.043989 	4933 	0.043277
41.33 	0.046992 	4937 	0.046636
41.35 	0.043742 	4938 	0.043505
41.37 	0.045288 	4924 	0.044674
41.39 	0.045814 	4933 	0.044983
41.41 	0.044661 	4926 	0.044542
41.43 	0.046257 	4929 	0.045306
41.45 	0.041718 	4914 	0.041241
41.47 	0.043849 	4926 	0.043611
41.49 	0.042110 	4892 	0.041631
41.51 	0.048178 	4940 	0.047348
41.53 	0.043285 	4944 	0.043048
41.55 	0.043161 	4935 	0.042568
41.57 	0.044930 	4941 	0.044219
41.59 	0.043584 	4933 	0.042872
41.61 	0.047244 	4953 	0.046298
41.63 	0.043135 	4938 	0.042542
41.65 	0.046865 	4929 	0.046271
41.67 	0.042510 	4940 	0.041917
41.69 	0.036992 	4947 	0.036637
41.71 	0.040738 	4934 	0.040144
41.73 	0.036062 	4936 	0.035706
41.75 	0.040982 	4929 	0.040388
41.77 	0.044525 	4941 	0.044051
41.79 	0.036610 	4944 	0.036610
41.81 	0.044571 	4936 	0.044214
41.83 	0.045657 	4928 	0.045063
41.85 	0.043936 	4939 	0.043462
41.87 	0.038095 	4935 	0.037620
41.89 	0.040949 	4933 	0.039999
41.91 	0.040721 	4936 	0.040247
41.93 	0.044201 	4932 	0.043726
41.95 	0.042993 	4931 	0.042399
41.97 	0.045381 	4914 	0.044785
41.99 	0.044241 	4905 	0.044002
42.01 	0.042291 	4942 	0.041698
42.03 	0.039482 	4939 	0.039126
42.05 	0.042811 	4952 	0.042101
42.07 	0.043346 	4937 	0.042872
42.09 	0.043856 	4948 	0.043146
42.11 	0.044287 	4945 	0.043576
42.13 	0.035187 	4945 	0.034832
42.15 	0.038477 	4938 	0.037765
42.17 	0.043717 	4918 	0.043479
42.19 	0.047474 	4908 	0.046638
42.21 	0.046725 	4901 	0.046367
42.23 	0.043540 	4892 	0.042942
42.25 	0.040499 	4889 	0.040020
42.27 	0.035289 	4874 	0.035049
42.29 	0.041744 	4863 	0.041122
42.31 	0.036869 	4855 	0.036628
42.33 	0.041994 	4834 	0.041873
42.35 	0.035759 	4838 	0.035274
42.37 	0.043892 	4830 	0.043165
42.39 	0.041632 	4804 	0.040900
42.41 	0.040799 	4804 	0.040434
42.43 	0.037354 	4792 	0.037232
42.45 	0.041457 	4776 	0.040721
42.47 	0.045121 	4765 	0.044752
42.49 	0.045540 	4765 	0.044803
42.51 	0.037318 	4743 	0.036701
42.53 	0.042513 	4728 	0.041893
42.55 	0.046729 	4708 	0.046231
42.57 	0.039746 	4730 	0.039499
42.59 	0.042081 	4729 	0.041338
42.61 	0.042906 	4708 	0.042284
42.63 	0.039711 	4709 	0.038820
42.65 	0.039061 	4685 	0.038561
42.67 	0.043553 	4684 	0.042156
42.69 	0.040436 	4674 	0.039935
42.71 	0.044392 	4663 	0.044015
42.73 	0.042026 	4640 	0.040890
42.75 	0.042668 	4617 	0.042161
42.77 	0.040652 	4600 	0.040015
42.79 	0.037975 	4582 	0.037463
42.81 	0.042306 	4562 	0.041792
42.83 	0.041667 	4536 	0.039945
42.85 	0.037986 	4528 	0.037986
42.87 	0.042454 	4499 	0.042193
42.89 	0.039732 	4480 	0.039209
42.91 	0.041293 	4456 	0.040504
42.93 	0.040711 	4446 	0.040447
42.95 	0.039402 	4416 	0.039004
42.97 	0.038173 	4401 	0.037375
42.99 	0.046294 	4385 	0.045760
43.01 	0.044236 	4363 	0.043967
43.03 	0.037157 	4333 	0.036751
43.05 	0.044624 	4325 	0.044083
43.07 	0.040968 	4296 	0.040287
43.09 	0.046696 	4283 	0.046012
43.11 	0.039248 	4255 	0.038835
43.13 	0.041775 	4237 	0.041222
43.15 	0.041845 	4206 	0.041126
43.17 	0.040440 	4179 	0.039739
43.19 	0.042442 	4194 	0.042023
43.21 	0.037152 	4172 	0.036310
43.23 	0.040684 	4154 	0.040402
43.25 	0.043773 	4135 	0.042923
43.27 	0.033861 	4105 	0.033861
43.29 	0.040732 	4100 	0.040446
43.31 	0.037754 	4079 	0.037036
43.33 	0.042459 	4051 	0.041880
43.35 	0.038690 	4032 	0.038400
43.37 	0.036364 	4015 	0.036072
43.39 	0.041729 	4002 	0.041144
43.41 	0.033988 	3972 	0.033398
43.43 	0.042929 	3960 	0.042486
43.45 	0.037357 	3935 	0.037208
43.47 	0.039531 	3921 	0.038909
43.49 	0.042853 	3897 	0.042703
43.51 	0.039464 	3877 	0.039161
43.53 	0.041936 	3863 	0.041026
43.55 	0.042173 	2964 	0.041777
43.57 	0.046023 	2238 	0.045500
43.59 	0.044674 	1746 	0.044674
43.61 	0.039230 	1351 	0.038363
43.63 	0.054945 	1001 	0.053775
43.65 	0.043668 	687 	0.041963
43.67 	0.029880 	502 	0.029880
43.69 	0.035422 	367 	0.035422
43.71 	0.029289 	239 	0.029289
43.73 	0.058333 	120 	0.058333
43.75 	0.000000 	16 	0.000000