File: Example_Data/25SC_s1_0027.002.dat
#F C:\frames\spec\25SC_s1_0027.002
#C title =s:27 frm:2 25SC_s1
#C wavelength =0.15406

#S 1  fr_average C:\frames\spec\25SC_s1_0027.002 C:\win32app\speccom\mask.axs chi 0 180 0 360 0.02
#C 2 theta =0.000000 to 180 deg
#C   q   =0.000000 to 81.568 nm^-1
#C  chi  =0.000000 to 360 deg
#C collumns:
#C  1 position (2theta or chi in degrees)
#C  2 average intensity (sum of all counts in the region divided with number of pixels)
#C  3 Number of pixels in region)
#C  4 error (sum of sqrt(intensity) for all pixels divided by number)
#N 4
#L TTh  Int  N_pix  Err
32.99 	0.032787 	61 	0.032787
33.01 	0.068729 	873 	0.068729
33.03 	0.055356 	1391 	0.055356
33.05 	0.057484 	1757 	0.056151
33.07 	0.065366 	2050 	0.063937
33.09 	0.068172 	2347 	0.067174
33.11 	0.058938 	2579 	0.057802
33.13 	0.062657 	2793 	0.061398
33.15 	0.053018 	2999 	0.052041
33.17 	0.061543 	3201 	0.060049
33.19 	0.058648 	3342 	0.057771
33.21 	0.060827 	3436 	0.059974
33.23 	0.055067 	3523 	0.054235
33.25 	0.052879 	3612 	0.052393
33.27 	0.049587 	3630 	0.048941
33.29 	0.057840 	3648 	0.057358
33.31 	0.055191 	3660 	0.054231
33.33 	0.058058 	3686 	0.057263
33.35 	0.055495 	3694 	0.053751
33.37 	0.064890 	3714 	0.062997
33.39 	0.058729 	3729 	0.058075
33.41 	0.056150 	3740 	0.055523
33.43 	0.061420 	3761 	0.060330
33.45 	0.057249 	3773 	0.056007
33.47 	0.053976 	3798 	0.053359
33.49 	0.049357 	3809 	0.049203
33.51 	0.062647 	3815 	0.061854
33.53 	0.061442 	3841 	0.060375
33.55 	0.053084 	3843 	0.052169
33.57 	0.060098 	3877 	0.059040
33.59 	0.056701 	3880 	0.056097
33.61 	0.055769 	3909 	0.055169
33.63 	0.054351 	3919 	0.053155
33.65 	0.052150 	3931 	0.051255
33.67 	0.058928 	3954 	0.058163
33.69 	0.054136 	3953 	0.053395
33.71 	0.060377 	3975 	0.058904
33.73 	0.055445 	4004 	0.055006
33.75 	0.059015 	3999 	0.058136
33.77 	0.061118 	4025 	0.060075
33.79 	0.056174 	4041 	0.055015
33.81 	0.056959 	4038 	0.056234
33.83 	0.060741 	4050 	0.059873
33.85 	0.063918 	4099 	0.062775
33.87 	0.060083 	4111 	0.059228
33.89 	0.054113 	4121 	0.053402
33.91 	0.062425 	4149 	0.061436
33.93 	0.055167 	4151 	0.054744
33.95 	0.055489 	4181 	0.054929
33.97 	0.053222 	4190 	0.052803
33.99 	0.055714 	4200 	0.055156
34.01 	0.058865 	4213 	0.058448
34.03 	0.051838 	4244 	0.051562
34.05 	0.052681 	4252 	0.051717
34.07 	0.051546 	4268 	0.050586
34.09 	0.053196 	4286 	0.052103
34.11 	0.061599 	4302 	0.060646
34.13 	0.051996 	4308 	0.051180
34.15 	0.057723 	4331 	0.057047
34.17 	0.061379 	4350 	0.060302
34.19 	0.054562 	4362 	0.054025
34.21 	0.057424 	4371 	0.056598
34.23 	0.058502 	4393 	0.056902
34.25 	0.057902 	4404 	0.056971
34.27 	0.059249 	4422 	0.057792
34.29 	0.056595 	4435 	0.055274
34.31 	0.057425 	4458 	0.056505
34.33 	0.063073 	4471 	0.062134
34.35 	0.053301 	4484 	0.052386
34.37 	0.052550 	4491 	0.051636
34.39 	0.048867 	4502 	0.047696
34.41 	0.053690 	4526 	0.053043
34.43 	0.053316 	4539 	0.052929
34.45 	0.056009 	4535 	0.055105
34.47 	0.052047 	4592 	0.051006
34.49 	0.050033 	4597 	0.049013
34.51 	0.052323 	4606 	0.051433
34.53 	0.057937 	4643 	0.056927
34.55 	0.059444 	4643 	0.058561
34.57 	0.055794 	4660 	0.055417
34.59 	0.061176 	4675 	0.060299
34.61 	0.061954 	4697 	0.060458
34.63 	0.049045 	4710 	0.048423
34.65 	0.049778 	4721 	0.049033
34.67 	0.060325 	4741 	0.059213
34.69 	0.061632 	4754 	0.060647
34.71 	0.055602 	4766 	0.054619
34.73 	0.055985 	4787 	0.055373
34.75 	0.055948 	4808 	0.054974
34.77 	0.051889 	4818 	0.050795
34.79 	0.057214 	4824 	0.055635
34.81 	0.059856 	4845 	0.058405
34.83 	0.058618 	4862 	0.057774
34.85 	0.055453 	4869 	0.054972
34.87 	0.053615 	4868 	0.052653
34.89 	0.056329 	4882 	0.055849
34.91 	0.057354 	4882 	0.056754
34.93 	0.059196 	4899 	0.058478
34.95 	0.055624 	4890 	0.055145
34.97 	0.053040 	4902 	0.052323
34.99 	0.054932 	4897 	0.053975
35.01 	0.056063 	4923 	0.054616
35.03 	0.057455 	4943 	0.056151
35.05 	0.053366 	4947 	0.052655
35.07 	0.056275 	4940 	0.055564
35.09 	0.056128 	4953 	0.055181
35.11 	0.059834 	4947 	0.059005
35.13 	0.053046 	4958 	0.051982
35.15 	0.056309 	4937 	0.055123
35.17 	0.054792 	4946 	0.053607
35.19 	0.057467 	4942 	0.056143
35.21 	0.053185 	4945 	0.052099
35.23 	0.055814 	4945 	0.054472
35.25 	0.055432 	4943 	0.054602
35.27 	0.053153 	4948 	0.052206
35.29 	0.055612 	4945 	0.054546
35.31 	0.050476 	4933 	0.049645
35.33 	0.056443 	4943 	0.055851
35.35 	0.059692 	4942 	0.058744
35.37 	0.059324 	4939 	0.058019
35.39 	0.059050 	4945 	0.058576
35.41 	0.055420 	4926 	0.053993
35.43 	0.060612 	4933 	0.059306
35.45 	0.064209 	4937 	0.063003
35.47 	0.061042 	4931 	0.060072
35.49 	0.051935 	4910 	0.050861
35.51 	0.054405 	4926 	0.053335
35.53 	0.052940 	4949 	0.051993
35.55 	0.057027 	4945 	0.056297
35.57 	0.050882 	4933 	0.049932
35.59 	0.058241 	4945 	0.056701
35.61 	0.058478 	4942 	0.057293
35.63 	0.058669 	4943 	0.057958
35.65 	0.059858 	4945 	0.059266
35.67 	0.054027 	4942 	0.053197
35.69 	0.054185 	4946 	0.053356
35.71 	0.053676 	4937 	0.053320
35.73 	0.058347 	4936 	0.057516
35.75 	0.056175 	4931 	0.055462
35.77 	0.056554 	4951 	0.056318
35.79 	0.060016 	4932 	0.058828
35.81 	0.058788 	4933 	0.057957
35.83 	0.054387 	4946 	0.053203
35.85 	0.057953 	4935 	0.057004
35.87 	0.057892 	4923 	0.056940
35.89 	0.047629 	4934 	0.047273
35.91 	0.059874 	4927 	0.058666
35.93 	0.059468 	4927 	0.058616
35.95 	0.055115 	4917 	0.054400
35.97 	0.055985 	4912 	0.055151
35.99 	0.048593 	4939 	0.048356
36.01 	0.056998 	4930 	0.055909
36.03 	0.055027 	4943 	0.053487
36.05 	0.058038 	4945 	0.057209
36.07 	0.059121 	4939 	0.058410
36.09 	0.056275 	4940 	0.055801
36.11 	0.059038 	4929 	0.057850
36.13 	0.061311 	4942 	0.060244
36.15 	0.057502 	4939 	0.056315
36.17 	0.055635 	4925 	0.054921
36.19 	0.059312 	4940 	0.058126
36.21 	0.050112 	4929 	0.049260
36.23 	0.056332 	4935 	0.055027
36.25 	0.063145 	4941 	0.062671
36.27 	0.052386 	4925 	0.051910
36.29 	0.058812 	4931 	0.057980
36.31 	0.060674 	4928 	0.059485
36.33 	0.053314 	4933 	0.052602
36.35 	0.057415 	4929 	0.056445
36.37 	0.055251 	4923 	0.054299
36.39 	0.058118 	4921 	0.056075
36.41 	0.054943 	4896 	0.054823
36.43 	0.051948 	4928 	0.051354
36.45 	0.053347 	4930 	0.052872
36.47 	0.054295 	4936 	0.052970
36.49 	0.059085 	4942 	0.058967
36.51 	0.056963 	4933 	0.056607
36.53 	0.054825 	4943 	0.053995
36.55 	0.054597 	4927 	0.054003
36.57 	0.052088 	4934 	0.051256
36.59 	0.059526 	4939 	0.058577
36.61 	0.058406 	4931 	0.057812
36.63 	0.049686 	4931 	0.048616
36.65 	0.052920 	4932 	0.052445
36.67 	0.060243 	4930 	0.058936
36.69 	0.052343 	4929 	0.051511
36.71 	0.055070 	4921 	0.053880
36.73 	0.054822 	4925 	0.053871
36.75 	0.056230 	4944 	0.055282
36.77 	0.051230 	4919 	0.050992
36.79 	0.048567 	4921 	0.047734
36.81 	0.054109 	4916 	0.053275
36.83 	0.057782 	4915 	0.056590
36.85 	0.055125 	4898 	0.054527
36.87 	0.059466 	4944 	0.058025
36.89 	0.057771 	4916 	0.056817
36.91 	0.055252 	4941 	0.054422
36.93 	0.058621 	4930 	0.057670
36.95 	0.054936 	4933 	0.053392
36.97 	0.054722 	4934 	0.054010
36.99 	0.056332 	4935 	0.055501
37.01 	0.055342 	4933 	0.054392
37.03 	0.051178 	4924 	0.050464
37.05 	0.051350 	4927 	0.050517
37.07 	0.052482 	4935 	0.051751
37.09 	0.054180 	4928 	0.053110
37.11 	0.051469 	4935 	0.050757
37.13 	0.052193 	4924 	0.050766
37.15 	0.056631 	4909 	0.055676
37.17 	0.046615 	4934 	0.046140
37.19 	0.054010 	4925 	0.053297
37.21 	0.056742 	4917 	0.056027
37.23 	0.047987 	4918 	0.047015
37.25 	0.050092 	4911 	0.049495
37.27 	0.050879 	4894 	0.049682
37.29 	0.054158 	4930 	0.053326
37.31 	0.049037 	4935 	0.048563
37.33 	0.052973 	4927 	0.052022
37.35 	0.052450 	4938 	0.051145
37.37 	0.048914 	4927 	0.047963
37.39 	0.052930 	4931 	0.052099
37.41 	0.048874 	4931 	0.048399
37.43 	0.054136 	4932 	0.052810
37.45 	0.052193 	4924 	0.051004
37.47 	0.052343 	4929 	0.051868
37.49 	0.052813 	4923 	0.052218
37.51 	0.056761 	4933 	0.056167
37.53 	0.054686 	4919 	0.053971
37.55 	0.046653 	4930 	0.045821
37.57 	0.053198 	4925 	0.052484
37.59 	0.052696 	4915 	0.051623
37.61 	0.049370 	4922 	0.048537
37.63 	0.053060 	4919 	0.052226
37.65 	0.050224 	4918 	0.049509
37.67 	0.055057 	4904 	0.054579
37.69 	0.047979 	4898 	0.047022
37.71 	0.050517 	4929 	0.049923
37.73 	0.050923 	4929 	0.050448
37.75 	0.050000 	4940 	0.049289
37.77 	0.050000 	4920 	0.049286
37.79 	0.047870 	4930 	0.046920
37.81 	0.053517 	4933 	0.052923
37.83 	0.051626 	4920 	0.049940
37.85 	0.052824 	4922 	0.052467
37.87 	0.047783 	4939 	0.047309
37.89 	0.058680 	4925 	0.057729
37.91 	0.051116 	4930 	0.050284
37.93 	0.054279 	4919 	0.053426
37.95 	0.049787 	4921 	0.049072
37.97 	0.049706 	4929 	0.048755
37.99 	0.046621 	4912 	0.045666
38.01 	0.047484 	4928 	0.046771
38.03 	0.050112 	4909 	0.049396
38.05 	0.052386 	4925 	0.051315
38.07 	0.049908 	4909 	0.049312
38.09 	0.053506 	4878 	0.052665
38.11 	0.052685 	4935 	0.052448
38.13 	0.052056 	4937 	0.051107
38.15 	0.051240 	4918 	0.050049
38.17 	0.050507 	4930 	0.049794
38.19 	0.052130 	4930 	0.051516
38.21 	0.051391 	4923 	0.050440
38.23 	0.052045 	4938 	0.051096
38.25 	0.052878 	4917 	0.051429
38.27 	0.059635 	4930 	0.058684
38.29 	0.051584 	4924 	0.050870
38.31 	0.053785 	4927 	0.053072
38.33 	0.055849 	4924 	0.054997
38.35 	0.053977 	4928 	0.053621
38.37 	0.058489 	4924 	0.057537
38.39 	0.058057 	4909 	0.056863
38.41 	0.057282 	4923 	0.055954
38.43 	0.061229 	4916 	0.060037
38.45 	0.061814 	4918 	0.060623
38.47 	0.062767 	4907 	0.061574
38.49 	0.054132 	4877 	0.053051
38.51 	0.060827 	4932 	0.059402
38.53 	0.062893 	4929 	0.061447
38.55 	0.059562 	4936 	0.058237
38.57 	0.056267 	4923 	0.055791
38.59 	0.054833 	4924 	0.054120
38.61 	0.061588 	4936 	0.061114
38.63 	0.059301 	4924 	0.058231
38.65 	0.066694 	4918 	0.064768
38.67 	0.054689 	4937 	0.053859
38.69 	0.056075 	4922 	0.055361
38.71 	0.053412 	4924 	0.052460
38.73 	0.060594 	4918 	0.059760
38.75 	0.055206 	4927 	0.054374
38.77 	0.055251 	4923 	0.055013
38.79 	0.056749 	4934 	0.055661
38.81 	0.047842 	4912 	0.046530
38.83 	0.053669 	4919 	0.053312
38.85 	0.050896 	4912 	0.050299
38.87 	0.049074 	4911 	0.048596
38.89 	0.051052 	4897 	0.050214
38.91 	0.051805 	4903 	0.051447
38.93 	0.050020 	4938 	0.049546
38.95 	0.054900 	4918 	0.053947
38.97 	0.048672 	4931 	0.047959
38.99 	0.043144 	4937 	0.042788
39.01 	0.045750 	4918 	0.045393
39.03 	0.047223 	4934 	0.046630
39.05 	0.044670 	4925 	0.043837
39.07 	0.045491 	4924 	0.045135
39.09 	0.048548 	4923 	0.047715
39.11 	0.048672 	4931 	0.047959
39.13 	0.042251 	4923 	0.041894
39.15 	0.046185 	4915 	0.045112
39.17 	0.048005 	4937 	0.047174
39.19 	0.043116 	4917 	0.042520
39.21 	0.047047 	4910 	0.046570
39.23 	0.050152 	4925 	0.049082
39.25 	0.041650 	4922 	0.041293
39.27 	0.039715 	4910 	0.039238
39.29 	0.039584 	4901 	0.039225
39.31 	0.041769 	4884 	0.041409
39.33 	0.048469 	4931 	0.047756
39.35 	0.047214 	4935 	0.046264
39.37 	0.044837 	4929 	0.044480
39.39 	0.042605 	4929 	0.042130
39.41 	0.045832 	4931 	0.045595
39.43 	0.040746 	4933 	0.040152
39.45 	0.046904 	4925 	0.045833
39.47 	0.043063 	4923 	0.042944
39.49 	0.046827 	4933 	0.046234
39.51 	0.040211 	4924 	0.039497
39.53 	0.042048 	4923 	0.041691
39.55 	0.040862 	4919 	0.040624
39.57 	0.045814 	4933 	0.045576
39.59 	0.043363 	4912 	0.042648
39.61 	0.040219 	4923 	0.039981
39.63 	0.048761 	4922 	0.048047
39.65 	0.048112 	4926 	0.047517
39.67 	0.040301 	4913 	0.039586
39.69 	0.043328 	4916 	0.042732
39.71 	0.049438 	4895 	0.049319
39.73 	0.047881 	4908 	0.047523
39.75 	0.045252 	4928 	0.044281
39.77 	0.042351 	4935 	0.041994
39.79 	0.042834 	4926 	0.042358
39.81 	0.044043 	4927 	0.043310
39.83 	0.041954 	4934 	0.041479
39.85 	0.046885 	4927 	0.046766
39.87 	0.045076 	4925 	0.044481
39.89 	0.048642 	4934 	0.047930
39.91 	0.037586 	4922 	0.037110
39.93 	0.044359 	4937 	0.043647
39.95 	0.045371 	4915 	0.044299
39.97 	0.047687 	4928 	0.046973
39.99 	0.043390 	4932 	0.042915
40.01 	0.045954 	4918 	0.045477
40.03 	0.045860 	4928 	0.045266
40.05 	0.043319 	4917 	0.043200
40.07 	0.043673 	4923 	0.042959
40.09 	0.047396 	4916 	0.047039
40.11 	0.046989 	4916 	0.046155
40.13 	0.043913 	4896 	0.043435
40.15 	0.041930 	4913 	0.041572
40.17 	0.047484 	4928 	0.046533
40.19 	0.046257 	4929 	0.044950
40.21 	0.047619 	4935 	0.046788
40.23 	0.040552 	4932 	0.039958
40.25 	0.041260 	4920 	0.041022
40.27 	0.049625 	4937 	0.048795
40.29 	0.042013 	4927 	0.041538
40.31 	0.045353 	4939 	0.044385
40.33 	0.041565 	4932 	0.041209
40.35 	0.042488 	4919 	0.042131
40.37 	0.043822 	4929 	0.043090
40.39 	0.046644 	4931 	0.046525
40.41 	0.038173 	4925 	0.037578
40.43 	0.044900 	4922 	0.044543
40.45 	0.043584 	4933 	0.043347
40.47 	0.041887 	4918 	0.041172
40.49 	0.037759 	4926 	0.037402
40.51 	0.048354 	4922 	0.047759
40.53 	0.044955 	4916 	0.044598
40.55 	0.041769 	4908 	0.040933
40.57 	0.043967 	4890 	0.043249
40.59 	0.039498 	4937 	0.038904
40.61 	0.041337 	4935 	0.041100
40.63 	0.039148 	4930 	0.038673
40.65 	0.042333 	4937 	0.042096
40.67 	0.041363 	4932 	0.040531
40.69 	0.042739 	4937 	0.042501
40.71 	0.039943 	4932 	0.039706
40.73 	0.044864 	4926 	0.044507
40.75 	0.046441 	4931 	0.045609
40.77 	0.042924 	4939 	0.042805
40.79 	0.048335 	4924 	0.047740
40.81 	0.046145 	4941 	0.045670
40.83 	0.046266 	4928 	0.045196
40.85 	0.037977 	4924 	0.037858
40.87 	0.038961 	4928 	0.038604
40.89 	0.043805 	4931 	0.042735
40.91 	0.042860 	4923 	0.042384
40.93 	0.042359 	4934 	0.042122
40.95 	0.042744 	4913 	0.041671
40.97 	0.042851 	4924 	0.042375
40.99 	0.045288 	4924 	0.044575
41.01 	0.042956 	4912 	0.042479
41.03 	0.044241 	4905 	0.043882
41.05 	0.044571 	4936 	0.044214
41.07 	0.038945 	4930 	0.038589
41.09 	0.040696 	4939 	0.040440
41.11 	0.039716 	4935 	0.039004
41.13 	0.042139 	4936 	0.041783
41.15 	0.043513 	4941 	0.042802
41.17 	0.043373 	4934 	0.042898
41.19 	0.036714 	4930 	0.036714
41.21 	0.040308 	4937 	0.040071
41.23 	0.043126 	4939 	0.042533
41.25 	0.042570 	4933 	0.041739
41.27 	0.044210 	4931 	0.043379
41.29 	0.041193 	4928 	0.041193
41.31 	0.042570 	4933 	0.041977
41.33 	0.045979 	4937 	0.045267
41.35 	0.037667 	4938 	0.037430
41.37 	0.040820 	4924 	0.040345
41.39 	0.039124 	4933 	0.038531
41.41 	0.037556 	4926 	0.037318
41.43 	0.043417 	4929 	0.042703
41.45 	0.040497 	4914 	0.039901
41.47 	0.041413 	4926 	0.040699
41.49 	0.042110 	4892 	0.041750
41.51 	0.046154 	4940 	0.045205
41.53 	0.042678 	4944 	0.041493
41.55 	0.043161 	4935 	0.042211
41.57 	0.041085 	4941 	0.040729
41.59 	0.041962 	4933 	0.041606
41.61 	0.041187 	4953 	0.040951
41.63 	0.045768 	4938 	0.045174
41.65 	0.040576 	4929 	0.039982
41.67 	0.038664 	4940 	0.038308
41.69 	0.042450 	4947 	0.041976
41.71 	0.044386 	4934 	0.043317
41.73 	0.037682 	4936 	0.037326
41.75 	0.038547 	4929 	0.038310
41.77 	0.036632 	4941 	0.036039
41.79 	0.041464 	4944 	0.041227
41.81 	0.039100 	4936 	0.038626
41.83 	0.041599 	4928 	0.041480
41.85 	0.041506 	4939 	0.041032
41.87 	0.038298 	4935 	0.038179
41.89 	0.040746 	4933 	0.040271
41.91 	0.035454 	4936 	0.034979
41.93 	0.036699 	4932 	0.035967
41.95 	0.036707 	4931 	0.036350
41.97 	0.044363 	4914 	0.044244
41.99 	0.036086 	4905 	0.035250
42.01 	0.041279 	4942 	0.040923
42.03 	0.043329 	4939 	0.042380
42.05 	0.035339 	4952 	0.034866
42.07 	0.034434 	4937 	0.034078
42.09 	0.040016 	4948 	0.039661
42.11 	0.040243 	4945 	0.039295
42.13 	0.038018 	4945 	0.037426
42.15 	0.044350 	4938 	0.043520
42.17 	0.033550 	4918 	0.033550
42.19 	0.036879 	4908 	0.036640
42.21 	0.037747 	4901 	0.037269
42.23 	0.039861 	4892 	0.039362
42.25 	0.040704 	4889 	0.040105
42.27 	0.038572 	4874 	0.038572
42.29 	0.030228 	4863 	0.030108
42.31 	0.042430 	4855 	0.041707
42.33 	0.038271 	4834 	0.038149
42.35 	0.037412 	4838 	0.037291
42.37 	0.041201 	4830 	0.040594
42.39 	0.039967 	4804 	0.039845
42.41 	0.044546 	4804 	0.044302
42.43 	0.031302 	4792 	0.030813
42.45 	0.038945 	4776 	0.038699
42.47 	0.034627 	4765 	0.033767
42.49 	0.034418 	4765 	0.034049
42.51 	0.034577 	4743 	0.034063
42.53 	0.038071 	4728 	0.037823
42.55 	0.040569 	4708 	0.040072
42.57 	0.035941 	4730 	0.035569
42.59 	0.037852 	4729 	0.037480
42.61 	0.035259 	4708 	0.034761
42.63 	0.041198 	4709 	0.040949
42.65 	0.037353 	4685 	0.036978
42.67 	0.038215 	4684 	0.037715
42.69 	0.041720 	4674 	0.041219
42.71 	0.040103 	4663 	0.039726
42.73 	0.037500 	4640 	0.037500
42.75 	0.041152 	4617 	0.040116
42.77 	0.037826 	4600 	0.037317
42.79 	0.035574 	4582 	0.035446
42.81 	0.038141 	4562 	0.037884
42.83 	0.037478 	4536 	0.037220
42.85 	0.034452 	4528 	0.033935
42.87 	0.040898 	4499 	0.040117
42.89 	0.038839 	4480 	0.038709
42.91 	0.038375 	4456 	0.037981
42.93 	0.039811 	4446 	0.039284
42.95 	0.036458 	4416 	0.036326
42.97 	0.038855 	4401 	0.038589
42.99 	0.045610 	4385 	0.044809
43.01 	0.034838 	4363 	0.034436
43.03 	0.043619 	4333 	0.042943
43.05 	0.042081 	4325 	0.041404
43.07 	0.036778 	4296 	0.036506
43.09 	0.041560 	4283 	0.041013
43.11 	0.034783 	4255 	0.034507
43.13 	0.044135 	4237 	0.043997
43.15 	0.035426 	4206 	0.035147
43.17 	0.041397 	4179 	0.040556
43.19 	0.036004 	4194 	0.035305
43.21 	0.036194 	4172 	0.036053
43.23 	0.038036 	4154 	0.037613
43.25 	0.039903 	4135 	0.039762
43.27 	0.035810 	4105 	0.035667
43.29 	0.037317 	4100 	0.037174
43.31 	0.035303 	4079 	0.034728
43.33 	0.036287 	4051 	0.035998
43.35 	0.040179 	4032 	0.039452
43.37 	0.038107 	4015 	0.037669
43.39 	0.042229 	4002 	0.041351
43.41 	0.039023 	3972 	0.038728
43.43 	0.041667 	3960 	0.041075
43.45 	0.034816 	3935 	0.034071
43.47 	0.039276 	3921 	0.038977
43.49 	0.035155 	3897 	0.034704
43.51 	0.039464 	3877 	0.039161
43.53 	0.039865 	3863 	0.039714
43.55 	0.042510 	2964 	0.042312
43.57 	0.036193 	2238 	0.035931
43.59 	0.032646 	1746 	0.032646
43.61 	0.030348 	1351 	0.030348
43.63 	0.045954 	1001 	0.045954
43.65 	0.030568 	687 	0.030568
43.67 	0.029880 	502 	0.029880
43.69 	0.027248 	367 	0.027248
43.71 	0.016736 	239 	0.016736
43.73 	0.066667 	120 	0.056904
43.75 	0.000000 	16 	0.000000