File: Example_Data/25SC_s1_0022.002.dat
#F C:\frames\spec\25SC_s1_0022.002
#C title =s:22 frm:2 25SC_s1
#C wavelength =0.15406

#S 1  fr_average C:\frames\spec\25SC_s1_0022.002 C:\win32app\speccom\mask.axs chi 0 180 0 360 0.02
#C 2 theta =0.000000 to 180 deg
#C   q   =0.000000 to 81.568 nm^-1
#C  chi  =0.000000 to 360 deg
#C collumns:
#C  1 position (2theta or chi in degrees)
#C  2 average intensity (sum of all counts in the region divided with number of pixels)
#C  3 Number of pixels in region)
#C  4 error (sum of sqrt(intensity) for all pixels divided by number)
#N 4
#L TTh  Int  N_pix  Err
32.99 	0.016393 	61 	0.016393
33.01 	0.059565 	873 	0.057552
33.03 	0.066139 	1391 	0.064876
33.05 	0.061468 	1757 	0.061135
33.07 	0.060976 	2050 	0.060404
33.09 	0.063059 	2347 	0.061811
33.11 	0.060489 	2579 	0.059580
33.13 	0.063373 	2793 	0.062534
33.15 	0.048349 	2999 	0.047568
33.17 	0.055920 	3201 	0.055554
33.19 	0.061640 	3342 	0.060413
33.21 	0.059953 	3436 	0.058760
33.23 	0.060460 	3523 	0.058631
33.25 	0.055925 	3612 	0.054627
33.27 	0.055372 	3630 	0.054242
33.29 	0.056195 	3648 	0.054268
33.31 	0.053279 	3660 	0.052638
33.33 	0.062398 	3686 	0.061604
33.35 	0.064158 	3694 	0.062731
33.37 	0.057620 	3714 	0.056805
33.39 	0.059265 	3729 	0.058323
33.41 	0.060963 	3740 	0.060023
33.43 	0.059027 	3761 	0.058560
33.45 	0.060164 	3773 	0.059699
33.47 	0.052396 	3798 	0.052088
33.49 	0.065109 	3809 	0.063110
33.51 	0.061337 	3815 	0.060723
33.53 	0.057797 	3841 	0.056247
33.55 	0.056466 	3843 	0.056161
33.57 	0.054939 	3877 	0.053882
33.59 	0.067526 	3880 	0.065865
33.61 	0.055257 	3909 	0.054808
33.63 	0.065323 	3919 	0.063380
33.65 	0.069194 	3931 	0.066934
33.67 	0.065503 	3954 	0.063825
33.69 	0.056160 	3953 	0.055123
33.71 	0.068176 	3975 	0.066408
33.73 	0.060939 	4004 	0.059622
33.75 	0.055014 	3999 	0.054428
33.77 	0.052422 	4025 	0.051986
33.79 	0.060629 	4041 	0.058889
33.81 	0.052997 	4038 	0.052561
33.83 	0.052593 	4050 	0.051725
33.85 	0.052940 	4099 	0.052511
33.87 	0.064461 	4111 	0.063464
33.89 	0.065033 	4121 	0.063872
33.91 	0.053748 	4149 	0.052878
33.93 	0.060226 	4151 	0.059097
33.95 	0.061469 	4181 	0.060908
33.97 	0.065394 	4190 	0.064415
33.99 	0.057619 	4200 	0.056480
34.01 	0.056729 	4213 	0.055733
34.03 	0.057493 	4244 	0.056941
34.05 	0.058090 	4252 	0.056713
34.07 	0.063730 	4268 	0.062495
34.09 	0.058796 	4286 	0.057566
34.11 	0.062994 	4302 	0.061768
34.13 	0.057335 	4308 	0.056655
34.15 	0.053336 	4331 	0.052367
34.17 	0.055632 	4350 	0.054824
34.19 	0.060752 	4362 	0.059543
34.21 	0.059483 	4371 	0.058411
34.23 	0.055088 	4393 	0.054021
34.25 	0.061535 	4404 	0.060870
34.27 	0.059475 	4422 	0.058283
34.29 	0.059977 	4435 	0.059449
34.31 	0.055630 	4458 	0.054448
34.33 	0.058600 	4471 	0.057945
34.35 	0.056423 	4484 	0.056031
34.37 	0.053663 	4491 	0.053141
34.39 	0.056641 	4502 	0.054950
34.41 	0.062749 	4526 	0.062101
34.43 	0.058603 	4539 	0.056496
34.45 	0.057773 	4535 	0.056998
34.47 	0.064024 	4592 	0.063131
34.49 	0.055471 	4597 	0.054579
34.51 	0.056014 	4606 	0.054361
34.53 	0.059444 	4643 	0.058813
34.55 	0.058798 	4643 	0.057915
34.57 	0.059013 	4660 	0.058133
34.59 	0.059679 	4675 	0.058406
34.61 	0.054077 	4697 	0.053204
34.63 	0.055202 	4710 	0.054331
34.65 	0.055497 	4721 	0.054628
34.67 	0.058216 	4741 	0.057104
34.69 	0.058056 	4754 	0.057071
34.71 	0.060218 	4766 	0.059092
34.73 	0.055149 	4787 	0.054538
34.75 	0.058860 	4808 	0.057398
34.77 	0.057493 	4818 	0.057006
34.79 	0.058250 	4824 	0.057765
34.81 	0.057379 	4845 	0.056774
34.83 	0.057589 	4862 	0.057108
34.85 	0.054015 	4869 	0.053053
34.87 	0.058546 	4868 	0.057463
34.89 	0.056125 	4882 	0.054905
34.91 	0.058583 	4882 	0.057623
34.93 	0.055317 	4899 	0.054241
34.95 	0.056033 	4890 	0.055074
34.97 	0.055488 	4902 	0.054890
34.99 	0.052481 	4897 	0.051524
35.01 	0.050579 	4923 	0.049984
35.03 	0.059680 	4943 	0.058851
35.05 	0.059632 	4947 	0.058428
35.07 	0.056883 	4940 	0.055341
35.09 	0.060973 	4953 	0.059436
35.11 	0.057813 	4947 	0.057102
35.13 	0.064340 	4958 	0.063632
35.15 	0.058335 	4937 	0.057386
35.17 	0.058027 	4946 	0.057553
35.19 	0.052003 	4942 	0.050581
35.21 	0.056016 	4945 	0.055187
35.23 	0.060465 	4945 	0.059517
35.25 	0.053409 	4943 	0.052579
35.27 	0.058205 	4948 	0.056528
35.29 	0.058645 	4945 	0.058171
35.31 	0.058180 	4933 	0.057467
35.33 	0.062108 	4943 	0.060923
35.35 	0.060907 	4942 	0.059958
35.37 	0.059526 	4939 	0.058696
35.39 	0.060870 	4945 	0.059803
35.41 	0.060698 	4926 	0.059390
35.43 	0.058788 	4933 	0.058194
35.45 	0.053069 	4937 	0.052238
35.47 	0.054147 	4931 	0.053434
35.49 	0.060489 	4910 	0.059057
35.51 	0.059886 	4926 	0.058935
35.53 	0.063043 	4949 	0.061859
35.55 	0.060061 	4945 	0.058995
35.57 	0.056355 	4933 	0.055386
35.59 	0.053185 	4945 	0.052356
35.61 	0.060097 	4942 	0.059504
35.63 	0.050172 	4943 	0.049342
35.65 	0.060465 	4945 	0.059754
35.67 	0.058478 	4942 	0.057274
35.69 	0.053983 	4946 	0.053272
35.71 	0.061373 	4937 	0.059712
35.73 	0.055713 	4936 	0.054882
35.75 	0.055567 	4931 	0.054359
35.77 	0.054938 	4951 	0.054228
35.79 	0.060016 	4932 	0.059066
35.81 	0.060815 	4933 	0.060221
35.83 	0.060857 	4946 	0.059318
35.85 	0.061601 	4935 	0.060889
35.87 	0.061345 	4923 	0.060512
35.89 	0.055938 	4934 	0.055701
35.91 	0.054191 	4927 	0.053597
35.93 	0.062310 	4927 	0.061240
35.95 	0.061826 	4917 	0.060397
35.97 	0.057818 	4912 	0.056864
35.99 	0.060741 	4939 	0.059436
36.01 	0.056592 	4930 	0.055998
36.03 	0.056443 	4943 	0.055495
36.05 	0.056421 	4945 	0.055354
36.07 	0.058109 	4939 	0.057279
36.09 	0.055668 	4940 	0.054601
36.11 	0.061270 	4929 	0.059706
36.13 	0.056253 	4942 	0.055660
36.15 	0.054262 	4939 	0.053313
36.17 	0.060305 	4925 	0.058758
36.19 	0.052834 	4940 	0.051866
36.21 	0.054778 	4929 	0.053283
36.23 	0.049848 	4935 	0.049373
36.25 	0.053228 	4941 	0.052754
36.27 	0.056853 	4925 	0.056001
36.29 	0.046846 	4931 	0.046015
36.31 	0.056615 	4928 	0.054832
36.33 	0.048855 	4933 	0.048498
36.35 	0.060053 	4929 	0.059221
36.37 	0.058095 	4923 	0.056905
36.39 	0.052835 	4921 	0.051763
36.41 	0.055351 	4896 	0.054873
36.43 	0.054383 	4928 	0.053908
36.45 	0.053753 	4930 	0.053396
36.47 	0.055308 	4936 	0.054359
36.49 	0.056253 	4942 	0.055778
36.51 	0.056963 	4933 	0.056251
36.53 	0.051588 	4943 	0.050996
36.55 	0.059062 	4927 	0.057873
36.57 	0.053506 	4934 	0.052913
36.59 	0.057097 	4939 	0.055673
36.61 	0.055972 	4931 	0.054884
36.63 	0.053944 	4931 	0.053113
36.65 	0.056569 	4932 	0.055500
36.67 	0.059229 	4930 	0.057447
36.69 	0.054169 	4929 	0.052981
36.71 	0.054460 	4921 	0.054103
36.73 	0.060102 	4925 	0.059269
36.75 	0.054612 	4944 	0.053782
36.77 	0.054889 	4919 	0.053937
36.79 	0.055070 	4921 	0.054832
36.81 	0.057567 	4916 	0.056376
36.83 	0.055748 	4915 	0.054913
36.85 	0.053695 	4898 	0.052839
36.87 	0.056432 	4944 	0.055603
36.89 	0.057160 	4916 	0.056326
36.91 	0.055050 	4941 	0.054220
36.93 	0.052941 	4930 	0.052109
36.95 	0.052909 	4933 	0.051603
36.97 	0.050872 	4934 	0.049684
36.99 	0.058156 	4935 	0.057444
37.01 	0.054733 	4933 	0.053902
37.03 	0.054021 	4924 	0.053188
37.05 	0.055206 	4927 	0.054849
37.07 	0.058156 	4935 	0.056494
37.09 	0.053369 	4928 	0.052655
37.11 	0.054103 	4935 	0.053510
37.13 	0.056864 	4924 	0.056032
37.15 	0.055816 	4909 	0.054981
37.17 	0.053506 	4934 	0.052418
37.19 	0.047513 	4925 	0.046661
37.21 	0.055725 	4917 	0.055129
37.23 	0.057340 	4918 	0.056864
37.25 	0.058033 	4911 	0.056840
37.27 	0.054352 	4894 	0.053036
37.29 	0.054767 	4930 	0.054173
37.31 	0.049443 	4935 	0.048849
37.33 	0.049523 	4927 	0.048810
37.35 	0.048805 	4938 	0.048093
37.37 	0.056424 	4927 	0.055710
37.39 	0.056581 	4931 	0.055749
37.41 	0.050497 	4931 	0.049903
37.43 	0.058597 	4932 	0.058122
37.45 	0.053818 	4924 	0.052985
37.47 	0.054981 	4929 	0.053911
37.49 	0.049563 	4923 	0.048968
37.51 	0.049260 	4933 	0.048766
37.53 	0.053060 	4919 	0.051591
37.55 	0.054970 	4930 	0.054019
37.57 	0.050152 	4925 	0.049201
37.59 	0.048016 	4915 	0.047063
37.61 	0.053434 	4922 	0.052700
37.63 	0.051840 	4919 	0.051244
37.65 	0.056730 	4918 	0.055777
37.67 	0.053222 	4904 	0.052625
37.69 	0.053900 	4898 	0.053302
37.71 	0.055184 	4929 	0.054708
37.73 	0.054981 	4929 	0.054387
37.75 	0.050000 	4940 	0.049763
37.77 	0.051829 	4920 	0.050520
37.79 	0.051116 	4930 	0.050284
37.81 	0.049868 	4933 	0.049274
37.83 	0.055081 	4920 	0.054367
37.85 	0.053027 	4922 	0.051837
37.87 	0.053047 	4939 	0.052454
37.89 	0.053401 	4925 	0.051974
37.91 	0.055984 	4930 	0.055508
37.93 	0.055906 	4919 	0.054953
37.95 	0.051412 	4921 	0.050698
37.97 	0.050517 	4929 	0.049804
37.99 	0.053339 	4912 	0.052385
38.01 	0.056209 	4928 	0.055140
38.03 	0.052760 	4909 	0.052402
38.05 	0.049340 	4925 	0.048270
38.07 	0.049094 	4909 	0.048497
38.09 	0.050226 	4878 	0.049385
38.11 	0.049848 	4935 	0.049373
38.13 	0.054081 	4937 	0.052895
38.15 	0.053477 	4918 	0.052762
38.17 	0.051116 	4930 	0.050165
38.19 	0.045639 	4930 	0.044570
38.21 	0.057892 	4923 	0.056940
38.23 	0.051235 	4938 	0.050405
38.25 	0.052064 	4917 	0.051469
38.27 	0.061258 	4930 	0.060426
38.29 	0.059708 	4924 	0.057804
38.31 	0.054597 	4927 	0.054359
38.33 	0.060520 	4924 	0.059211
38.35 	0.052557 	4928 	0.052200
38.37 	0.060926 	4924 	0.060212
38.39 	0.058464 	4909 	0.057629
38.41 	0.058907 	4923 	0.057598
38.43 	0.065500 	4916 	0.064547
38.45 	0.059374 	4918 	0.058778
38.47 	0.064805 	4907 	0.063970
38.49 	0.064384 	4877 	0.063063
38.51 	0.070357 	4932 	0.068813
38.53 	0.061270 	4929 	0.060438
38.55 	0.065032 	4936 	0.063490
38.57 	0.056876 	4923 	0.055329
38.59 	0.063566 	4924 	0.062496
38.61 	0.059968 	4936 	0.058761
38.63 	0.068237 	4924 	0.066929
38.65 	0.064254 	4918 	0.063658
38.67 	0.057525 	4937 	0.056319
38.69 	0.060138 	4922 	0.059404
38.71 	0.055037 	4924 	0.054442
38.73 	0.063034 	4918 	0.062061
38.75 	0.061295 	4927 	0.059868
38.77 	0.057485 	4923 	0.056771
38.79 	0.055128 	4934 	0.053940
38.81 	0.054357 	4912 	0.053283
38.83 	0.058345 	4919 	0.057631
38.85 	0.055171 	4912 	0.054098
38.87 	0.043576 	4911 	0.043337
38.89 	0.051664 	4897 	0.051066
38.91 	0.052417 	4903 	0.051820
38.93 	0.059943 	4938 	0.059232
38.95 	0.048800 	4918 	0.048086
38.97 	0.044007 	4931 	0.043295
38.99 	0.055499 	4937 	0.054194
39.01 	0.046767 	4918 	0.046291
39.03 	0.050872 	4934 	0.049922
39.05 	0.040812 	4925 	0.040693
39.07 	0.049959 	4924 	0.048889
39.09 	0.042657 	4923 	0.041586
39.11 	0.041777 	4931 	0.041420
39.13 	0.050173 	4923 	0.049459
39.15 	0.048627 	4915 	0.047554
39.17 	0.046182 	4937 	0.045707
39.19 	0.042506 	4917 	0.042029
39.21 	0.043585 	4910 	0.042988
39.23 	0.041218 	4925 	0.040505
39.25 	0.045713 	4922 	0.045118
39.27 	0.045418 	4910 	0.044821
39.29 	0.048970 	4901 	0.048372
39.31 	0.047093 	4884 	0.046373
39.33 	0.040965 	4931 	0.040253
39.35 	0.045998 	4935 	0.044811
39.37 	0.045242 	4929 	0.044767
39.39 	0.046054 	4929 	0.045084
39.41 	0.050091 	4931 	0.049735
39.43 	0.045814 	4933 	0.045339
39.45 	0.050152 	4925 	0.049677
39.47 	0.042860 	4923 	0.041789
39.49 	0.043584 	4933 	0.043584
39.51 	0.044882 	4924 	0.044287
39.53 	0.049766 	4923 	0.049052
39.55 	0.048384 	4919 	0.047431
39.57 	0.048652 	4933 	0.048177
39.59 	0.039902 	4912 	0.039545
39.61 	0.042454 	4923 	0.041502
39.63 	0.046932 	4922 	0.046337
39.65 	0.044255 	4926 	0.043304
39.67 	0.041319 	4913 	0.040246
39.69 	0.048820 	4916 	0.048463
39.71 	0.045352 	4895 	0.044515
39.73 	0.049715 	4908 	0.049237
39.75 	0.045657 	4928 	0.045539
39.77 	0.043161 	4935 	0.042311
39.79 	0.043240 	4926 	0.042883
39.81 	0.044855 	4927 	0.044241
39.83 	0.044386 	4934 	0.043555
39.85 	0.049117 	4927 	0.048760
39.87 	0.047513 	4925 	0.046542
39.89 	0.045805 	4934 	0.045330
39.91 	0.043681 	4922 	0.043067
39.93 	0.047397 	4937 	0.046567
39.95 	0.044354 	4915 	0.043381
39.97 	0.041599 	4928 	0.040410
39.99 	0.046229 	4932 	0.045635
40.01 	0.045547 	4918 	0.045071
40.03 	0.042614 	4928 	0.042376
40.05 	0.043522 	4917 	0.042927
40.07 	0.046923 	4923 	0.046090
40.09 	0.045972 	4916 	0.045019
40.11 	0.038039 	4916 	0.037682
40.13 	0.043096 	4896 	0.042498
40.15 	0.044169 	4913 	0.043572
40.17 	0.043222 	4928 	0.042509
40.19 	0.043214 	4929 	0.042382
40.21 	0.041945 	4935 	0.041708
40.23 	0.041768 	4932 	0.040818
40.25 	0.045732 	4920 	0.044760
40.27 	0.041726 	4937 	0.041370
40.29 	0.045667 	4927 	0.045310
40.31 	0.044746 	4939 	0.044271
40.33 	0.044809 	4932 	0.044334
40.35 	0.040659 	4919 	0.040301
40.37 	0.044431 	4929 	0.043599
40.39 	0.041168 	4931 	0.040931
40.41 	0.043655 	4925 	0.042684
40.43 	0.045510 	4922 	0.044677
40.45 	0.044598 	4933 	0.043885
40.47 	0.042497 	4918 	0.041524
40.49 	0.043849 	4926 	0.043135
40.51 	0.042869 	4922 	0.042155
40.53 	0.040683 	4916 	0.039969
40.55 	0.043602 	4908 	0.043125
40.57 	0.043354 	4890 	0.042994
40.59 	0.046790 	4937 	0.045603
40.61 	0.044782 	4935 	0.044426
40.63 	0.042191 	4930 	0.041834
40.65 	0.044967 	4937 	0.044136
40.67 	0.045418 	4932 	0.045061
40.69 	0.040510 	4937 	0.040036
40.71 	0.044201 	4932 	0.043726
40.73 	0.047097 	4926 	0.046265
40.75 	0.048874 	4931 	0.048518
40.77 	0.044341 	4939 	0.043867
40.79 	0.038383 	4924 	0.037908
40.81 	0.042097 	4941 	0.041741
40.83 	0.045455 	4928 	0.044860
40.85 	0.043461 	4924 	0.042628
40.87 	0.048295 	4928 	0.047226
40.89 	0.041574 	4931 	0.041217
40.91 	0.037782 	4923 	0.037068
40.93 	0.040535 	4934 	0.040060
40.95 	0.039080 	4913 	0.038842
40.97 	0.041430 	4924 	0.040954
40.99 	0.043867 	4924 	0.043629
41.01 	0.045603 	4912 	0.044887
41.03 	0.043833 	4905 	0.043236
41.05 	0.046394 	4936 	0.045800
41.07 	0.043408 	4930 	0.043051
41.09 	0.044746 	4939 	0.043778
41.11 	0.045187 	4935 	0.044594
41.13 	0.040316 	4936 	0.039960
41.15 	0.048978 	4941 	0.048622
41.17 	0.040130 	4934 	0.039892
41.19 	0.040974 	4930 	0.040617
41.21 	0.043144 	4937 	0.042788
41.23 	0.044138 	4939 	0.043427
41.25 	0.043584 	4933 	0.042990
41.27 	0.041168 	4931 	0.040693
41.29 	0.039976 	4928 	0.039381
41.31 	0.038922 	4933 	0.038565
41.33 	0.037675 	4937 	0.037319
41.35 	0.044755 	4938 	0.043450
41.37 	0.046913 	4924 	0.046199
41.39 	0.042368 	4933 	0.041536
41.41 	0.041007 	4926 	0.040412
41.43 	0.039562 	4929 	0.039205
41.45 	0.043956 	4914 	0.043479
41.47 	0.042631 	4926 	0.042274
41.49 	0.040065 	4892 	0.039826
41.51 	0.040283 	4940 	0.039434
41.53 	0.041060 	4944 	0.040586
41.55 	0.035461 	4935 	0.035461
41.57 	0.043716 	4941 	0.042886
41.59 	0.039530 	4933 	0.039292
41.61 	0.041187 	4953 	0.040359
41.63 	0.039287 	4938 	0.038813
41.65 	0.041591 	4929 	0.041234
41.67 	0.040081 	4940 	0.039725
41.69 	0.044269 	4947 	0.043895
41.71 	0.041548 	4934 	0.041311
41.73 	0.034643 	4936 	0.034169
41.75 	0.039156 	4929 	0.038681
41.77 	0.043311 	4941 	0.042363
41.79 	0.043689 	4944 	0.042978
41.81 	0.037885 	4936 	0.037410
41.83 	0.036323 	4928 	0.035966
41.85 	0.039482 	4939 	0.038889
41.87 	0.040729 	4935 	0.040136
41.89 	0.039935 	4933 	0.039460
41.91 	0.040924 	4936 	0.040568
41.93 	0.038727 	4932 	0.038252
41.95 	0.041574 	4931 	0.040841
41.97 	0.042939 	4914 	0.042223
41.99 	0.042202 	4905 	0.041844
42.01 	0.045933 	4942 	0.045459
42.03 	0.039279 	4939 	0.038923
42.05 	0.041195 	4952 	0.040486
42.07 	0.035852 	4937 	0.035496
42.09 	0.039006 	4948 	0.039006
42.11 	0.037209 	4945 	0.036617
42.13 	0.038827 	4945 	0.037761
42.15 	0.037262 	4938 	0.036788
42.17 	0.036600 	4918 	0.036124
42.19 	0.037490 	4908 	0.037251
42.21 	0.038972 	4901 	0.038135
42.23 	0.033320 	4892 	0.033080
42.25 	0.042135 	4889 	0.041417
42.27 	0.041444 	4874 	0.041204
42.29 	0.037220 	4863 	0.037099
42.31 	0.035015 	4855 	0.034533
42.33 	0.039719 	4834 	0.039113
42.35 	0.043200 	4838 	0.042594
42.37 	0.036439 	4830 	0.035691
42.39 	0.041216 	4804 	0.040362
42.41 	0.038093 	4804 	0.037606
42.43 	0.040067 	4792 	0.039945
42.45 	0.041039 	4776 	0.040282
42.47 	0.043232 	4765 	0.042740
42.49 	0.039035 	4765 	0.038543
42.51 	0.036686 	4743 	0.036315
42.53 	0.035956 	4728 	0.035584
42.55 	0.037808 	4708 	0.037186
42.57 	0.037844 	4730 	0.037224
42.59 	0.039332 	4729 	0.039084
42.61 	0.042268 	4708 	0.041895
42.63 	0.043746 	4709 	0.043497
42.65 	0.040342 	4685 	0.039841
42.67 	0.036934 	4684 	0.036434
42.69 	0.039795 	4674 	0.039669
42.71 	0.039674 	4663 	0.039046
42.73 	0.035345 	4640 	0.035219
42.75 	0.043318 	4617 	0.043064
42.77 	0.038696 	4600 	0.038059
42.79 	0.038629 	4582 	0.038374
42.81 	0.036388 	4562 	0.036131
42.83 	0.036817 	4536 	0.036171
42.85 	0.040194 	4528 	0.039289
42.87 	0.040009 	4499 	0.039748
42.89 	0.035937 	4480 	0.035676
42.91 	0.039048 	4456 	0.038786
42.93 	0.041610 	4446 	0.040952
42.95 	0.035553 	4416 	0.035287
42.97 	0.043399 	4401 	0.043133
42.99 	0.041277 	4385 	0.040320
43.01 	0.041256 	4363 	0.040719
43.03 	0.036234 	4333 	0.035963
43.05 	0.036763 	4325 	0.036357
43.07 	0.039804 	4296 	0.039395
43.09 	0.038291 	4283 	0.038017
43.11 	0.037368 	4255 	0.037092
43.13 	0.035402 	4237 	0.035402
43.15 	0.042796 	4206 	0.042378
43.17 	0.043312 	4179 	0.043172
43.19 	0.041249 	4194 	0.040132
43.21 	0.041467 	4172 	0.040624
43.23 	0.038517 	4154 	0.038235
43.25 	0.041354 	4135 	0.041213
43.27 	0.040438 	4105 	0.040153
43.29 	0.041951 	4100 	0.041237
43.31 	0.037754 	4079 	0.037180
43.33 	0.041718 	4051 	0.041429
43.35 	0.041667 	4032 	0.041376
43.37 	0.034122 	4015 	0.033830
43.39 	0.042479 	4002 	0.042186
43.41 	0.040030 	3972 	0.039735
43.43 	0.035859 	3960 	0.035563
43.45 	0.034053 	3935 	0.034053
43.47 	0.039276 	3921 	0.038977
43.49 	0.034899 	3897 	0.034899
43.51 	0.040495 	3877 	0.039740
43.53 	0.040383 	3863 	0.039777
43.55 	0.040823 	2964 	0.040230
43.57 	0.041108 	2238 	0.040846
43.59 	0.034364 	1746 	0.033693
43.61 	0.041451 	1351 	0.040150
43.63 	0.035964 	1001 	0.035964
43.65 	0.039301 	687 	0.039301
43.67 	0.029880 	502 	0.028714
43.69 	0.046322 	367 	0.046322
43.71 	0.033473 	239 	0.033473
43.73 	0.075000 	120 	0.075000
43.75 	0.000000 	16 	0.000000