File: Example_Data/25SC_s1_0043.001.dat
#F C:\frames\spec\25SC_s1_0043.001
#C title =s:43 frm:1 25SC_s1
#C wavelength =0.15406

#S 1  fr_average C:\frames\spec\25SC_s1_0043.001 C:\win32app\speccom\mask.axs chi 0 180 0 360 0.02
#C 2 theta =0.000000 to 180 deg
#C   q   =0.000000 to 81.568 nm^-1
#C  chi  =0.000000 to 360 deg
#C collumns:
#C  1 position (2theta or chi in degrees)
#C  2 average intensity (sum of all counts in the region divided with number of pixels)
#C  3 Number of pixels in region)
#C  4 error (sum of sqrt(intensity) for all pixels divided by number)
#N 4
#L TTh  Int  N_pix  Err
32.99 	0.065574 	61 	0.065574
33.01 	0.066438 	873 	0.065096
33.03 	0.071891 	1391 	0.071048
33.05 	0.062607 	1757 	0.061940
33.07 	0.076098 	2050 	0.073526
33.09 	0.051129 	2347 	0.050880
33.11 	0.055836 	2579 	0.054927
33.13 	0.055496 	2793 	0.055286
33.15 	0.059020 	2999 	0.058434
33.17 	0.065605 	3201 	0.064323
33.19 	0.064034 	3342 	0.062807
33.21 	0.058789 	3436 	0.058107
33.23 	0.058757 	3523 	0.057593
33.25 	0.055925 	3612 	0.055276
33.27 	0.058402 	3630 	0.057111
33.29 	0.057292 	3648 	0.055659
33.31 	0.051639 	3660 	0.050999
33.33 	0.064840 	3686 	0.064045
33.35 	0.051705 	3694 	0.050595
33.37 	0.065697 	3714 	0.065066
33.39 	0.057120 	3729 	0.056177
33.41 	0.056684 	3740 	0.055876
33.43 	0.053177 	3761 	0.053022
33.45 	0.059634 	3773 	0.058703
33.47 	0.061611 	3798 	0.060686
33.49 	0.065371 	3809 	0.063680
33.51 	0.062910 	3815 	0.061681
33.53 	0.062744 	3841 	0.061066
33.55 	0.061671 	3843 	0.060604
33.57 	0.061388 	3877 	0.060481
33.59 	0.060567 	3880 	0.059812
33.61 	0.057815 	3909 	0.056616
33.63 	0.058688 	3919 	0.057618
33.65 	0.066904 	3931 	0.065563
33.67 	0.057916 	3954 	0.056731
33.69 	0.055907 	3953 	0.055314
33.71 	0.056855 	3975 	0.055234
33.73 	0.062438 	4004 	0.061121
33.75 	0.060265 	3999 	0.058800
33.77 	0.058634 	4025 	0.058051
33.79 	0.054442 	4041 	0.053427
33.81 	0.059188 	4038 	0.058003
33.83 	0.060247 	4050 	0.059379
33.85 	0.062210 	4099 	0.060924
33.87 	0.055704 	4111 	0.054849
33.89 	0.058966 	4121 	0.057545
33.91 	0.058568 	4149 	0.058145
33.93 	0.058781 	4151 	0.058075
33.95 	0.060751 	4181 	0.059770
33.97 	0.058473 	4190 	0.056655
33.99 	0.053571 	4200 	0.052177
34.01 	0.058153 	4213 	0.057319
34.03 	0.061499 	4244 	0.060946
34.05 	0.057620 	4252 	0.057207
34.07 	0.060450 	4268 	0.059489
34.09 	0.062762 	4286 	0.061396
34.11 	0.052766 	4302 	0.051518
34.13 	0.055246 	4308 	0.053966
34.15 	0.057954 	4331 	0.057143
34.17 	0.054253 	4350 	0.052772
34.19 	0.057542 	4362 	0.057005
34.21 	0.062228 	4371 	0.061424
34.23 	0.059868 	4393 	0.058913
34.25 	0.059946 	4404 	0.059014
34.27 	0.061284 	4422 	0.060225
34.29 	0.055017 	4435 	0.054357
34.31 	0.057649 	4458 	0.055657
34.33 	0.052785 	4471 	0.051998
34.35 	0.058430 	4484 	0.057385
34.37 	0.061679 	4491 	0.060114
34.39 	0.055309 	4502 	0.054398
34.41 	0.052585 	4526 	0.051291
34.43 	0.058163 	4539 	0.057388
34.45 	0.064168 	4535 	0.063263
34.47 	0.053354 	4592 	0.052971
34.49 	0.055253 	4597 	0.054340
34.51 	0.058402 	4606 	0.057385
34.53 	0.059660 	4643 	0.059029
34.55 	0.055783 	4643 	0.055026
34.57 	0.053219 	4660 	0.052465
34.59 	0.052406 	4675 	0.051634
34.61 	0.057271 	4697 	0.056647
34.63 	0.056263 	4710 	0.054895
34.65 	0.052319 	4721 	0.051699
34.67 	0.051888 	4741 	0.050652
34.69 	0.059739 	4754 	0.058630
34.71 	0.054763 	4766 	0.054394
34.73 	0.058701 	4787 	0.057722
34.75 	0.059068 	4808 	0.058094
34.77 	0.051889 	4818 	0.051281
34.79 	0.058043 	4824 	0.057436
34.81 	0.058824 	4845 	0.057977
34.83 	0.058824 	4862 	0.057980
34.85 	0.054631 	4869 	0.054270
34.87 	0.050534 	4868 	0.049451
34.89 	0.055305 	4882 	0.054345
34.91 	0.056329 	4882 	0.055729
34.93 	0.055113 	4899 	0.054276
34.95 	0.046626 	4890 	0.045787
34.97 	0.060180 	4902 	0.059343
34.99 	0.062487 	4897 	0.060554
35.01 	0.058095 	4923 	0.057381
35.03 	0.060692 	4943 	0.060218
35.05 	0.057206 	4947 	0.056141
35.07 	0.054656 	4940 	0.054419
35.09 	0.054109 	4953 	0.053636
35.11 	0.053972 	4947 	0.052887
35.13 	0.054861 	4958 	0.053679
35.15 	0.050841 	4937 	0.050366
35.17 	0.054590 	4946 	0.053879
35.19 	0.058681 	4942 	0.058207
35.21 	0.064712 	4945 	0.064238
35.23 	0.054196 	4945 	0.053012
35.25 	0.055027 	4943 	0.054316
35.27 	0.063056 	4948 	0.061635
35.29 	0.059050 	4945 	0.058339
35.31 	0.055139 	4933 	0.054545
35.33 	0.051993 	4943 	0.050926
35.35 	0.053217 	4942 	0.052625
35.37 	0.061551 	4939 	0.060128
35.39 	0.059050 	4945 	0.058102
35.41 	0.054811 	4926 	0.054336
35.43 	0.056963 	4933 	0.056013
35.45 	0.062589 	4937 	0.061501
35.47 	0.056784 	4931 	0.055714
35.49 	0.054990 	4910 	0.054274
35.51 	0.057044 	4926 	0.056212
35.53 	0.062235 	4949 	0.061643
35.55 	0.053994 	4945 	0.053283
35.57 	0.052301 	4933 	0.051331
35.59 	0.056421 	4945 	0.055710
35.61 	0.058681 	4942 	0.057970
35.63 	0.056848 	4943 	0.056256
35.65 	0.059050 	4945 	0.058319
35.67 	0.048563 	4942 	0.047951
35.69 	0.062273 	4946 	0.060496
35.71 	0.054689 	4937 	0.053977
35.73 	0.056726 	4936 	0.055183
35.75 	0.059217 	4931 	0.058386
35.77 	0.054534 	4951 	0.053943
35.79 	0.055150 	4932 	0.054200
35.81 	0.055950 	4933 	0.055118
35.83 	0.050748 	4946 	0.050156
35.85 	0.057345 	4935 	0.056989
35.87 	0.054438 	4923 	0.053129
35.89 	0.053912 	4934 	0.052724
35.91 	0.060889 	4927 	0.059700
35.93 	0.058047 	4927 	0.057691
35.95 	0.055928 	4917 	0.055094
35.97 	0.051710 	4912 	0.050637
35.99 	0.061956 	4939 	0.060888
36.01 	0.058215 	4930 	0.057621
36.03 	0.055837 	4943 	0.055125
36.05 	0.066936 	4945 	0.065752
36.07 	0.052642 	4939 	0.052049
36.09 	0.054656 	4940 	0.053451
36.11 	0.051126 	4929 	0.050413
36.13 	0.050789 	4942 	0.050078
36.15 	0.052440 	4939 	0.051965
36.17 	0.057056 	4925 	0.056223
36.19 	0.060324 	4940 	0.059375
36.21 	0.063502 	4929 	0.062789
36.23 	0.053090 	4935 	0.052497
36.25 	0.056264 	4941 	0.054604
36.27 	0.061726 	4925 	0.060536
36.29 	0.053133 	4931 	0.052183
36.31 	0.062094 	4928 	0.061143
36.33 	0.056152 	4933 	0.054965
36.35 	0.056198 	4929 	0.055604
36.37 	0.058095 	4923 	0.056667
36.39 	0.054664 	4921 	0.053216
36.41 	0.054330 	4896 	0.053353
36.43 	0.059862 	4928 	0.059030
36.45 	0.052738 	4930 	0.051749
36.47 	0.057942 	4936 	0.057467
36.49 	0.058074 	4942 	0.056869
36.51 	0.056963 	4933 	0.056013
36.53 	0.055634 	4943 	0.054568
36.55 	0.056627 	4927 	0.055557
36.57 	0.063032 	4934 	0.061845
36.59 	0.057097 	4939 	0.056217
36.61 	0.056784 	4931 	0.055952
36.63 	0.059217 	4931 	0.058504
36.65 	0.052717 	4932 	0.051886
36.67 	0.058621 	4930 	0.057175
36.69 	0.059241 	4929 	0.058766
36.71 	0.054664 	4921 	0.053592
36.73 	0.058274 	4925 	0.057442
36.75 	0.053803 	4944 	0.052855
36.77 	0.056109 	4919 	0.055275
36.79 	0.065840 	4921 	0.064531
36.81 	0.056550 	4916 	0.055358
36.83 	0.062665 	4915 	0.061593
36.85 	0.051858 	4898 	0.051260
36.87 	0.056028 	4944 	0.055198
36.89 	0.053906 	4916 	0.053072
36.91 	0.057073 	4941 	0.055414
36.93 	0.050710 	4930 	0.049878
36.95 	0.057774 	4933 	0.055874
36.97 	0.056749 	4934 	0.055681
36.99 	0.055927 	4935 	0.054977
37.01 	0.052706 	4933 	0.052113
37.03 	0.052600 	4924 	0.052243
37.05 	0.052973 	4927 	0.052498
37.07 	0.054914 	4935 	0.054439
37.09 	0.055398 	4928 	0.054803
37.11 	0.059574 	4935 	0.058862
37.13 	0.059098 	4924 	0.058008
37.15 	0.055408 	4909 	0.054334
37.17 	0.049858 	4934 	0.049739
37.19 	0.060914 	4925 	0.059843
37.21 	0.054708 	4917 	0.054112
37.23 	0.057747 	4918 	0.056417
37.25 	0.053350 	4911 	0.051779
37.27 	0.054557 	4894 	0.054198
37.29 	0.051927 	4930 	0.051452
37.31 	0.053293 	4935 	0.052937
37.33 	0.056221 	4927 	0.055151
37.35 	0.054678 	4938 	0.054441
37.37 	0.055409 	4927 	0.054933
37.39 	0.056581 	4931 	0.055630
37.41 	0.056986 	4931 	0.055779
37.43 	0.058800 	4932 	0.057612
37.45 	0.054224 	4924 	0.053867
37.47 	0.049706 	4929 	0.049211
37.49 	0.058907 	4923 	0.057836
37.51 	0.053923 	4933 	0.052616
37.53 	0.055499 	4919 	0.055142
37.55 	0.056187 	4930 	0.055593
37.57 	0.052792 	4925 	0.052316
37.59 	0.051882 	4915 	0.050929
37.61 	0.059732 	4922 	0.059018
37.63 	0.055092 	4919 	0.054497
37.65 	0.054290 	4918 	0.053099
37.67 	0.050163 	4904 	0.049924
37.69 	0.058800 	4898 	0.057962
37.71 	0.049909 	4929 	0.049552
37.73 	0.057821 	4929 	0.056751
37.75 	0.057895 	4940 	0.056709
37.77 	0.059553 	4920 	0.059077
37.79 	0.058621 	4930 	0.057195
37.81 	0.056355 	4933 	0.055504
37.83 	0.057114 	4920 	0.056638
37.85 	0.055262 	4922 	0.054072
37.87 	0.051225 	4939 	0.050513
37.89 	0.053198 	4925 	0.051771
37.91 	0.060243 	4930 	0.059036
37.93 	0.053466 	4919 	0.052633
37.95 	0.051006 	4921 	0.050292
37.97 	0.050517 	4929 	0.050161
37.99 	0.050285 	4912 	0.049450
38.01 	0.053166 	4928 	0.052057
38.03 	0.056223 	4909 	0.055130
38.05 	0.054619 	4925 	0.053311
38.07 	0.054186 	4909 	0.053112
38.09 	0.055761 	4878 	0.054800
38.11 	0.054306 	4935 	0.053950
38.13 	0.059550 	4937 	0.058344
38.15 	0.053680 	4918 	0.052946
38.17 	0.054767 	4930 	0.053678
38.19 	0.062069 	4930 	0.060881
38.21 	0.055860 	4923 	0.054194
38.23 	0.059538 	4938 	0.058827
38.25 	0.058369 	4917 	0.058012
38.27 	0.060041 	4930 	0.059070
38.29 	0.063566 	4924 	0.061901
38.31 	0.069008 	4927 	0.068413
38.33 	0.067222 	4924 	0.066270
38.35 	0.069399 	4928 	0.067497
38.37 	0.067019 	4924 	0.065829
38.39 	0.074150 	4909 	0.072718
38.41 	0.070079 	4923 	0.068532
38.43 	0.077095 	4916 	0.075169
38.45 	0.074624 	4918 	0.072837
38.47 	0.080905 	4907 	0.078856
38.49 	0.063564 	4877 	0.063203
38.51 	0.078062 	4932 	0.076161
38.53 	0.066748 	4929 	0.064846
38.55 	0.069489 	4936 	0.068065
38.57 	0.069876 	4923 	0.068448
38.59 	0.073111 	4924 	0.071446
38.61 	0.061183 	4936 	0.060708
38.63 	0.071690 	4924 	0.070738
38.65 	0.066694 	4918 	0.064511
38.67 	0.061576 	4937 	0.060232
38.69 	0.065827 	4922 	0.064161
38.71 	0.064988 	4924 	0.064036
38.73 	0.052867 	4918 	0.052033
38.75 	0.057642 	4927 	0.056790
38.77 	0.054438 	4923 	0.053605
38.79 	0.053912 	4934 	0.052606
38.81 	0.052524 	4912 	0.051809
38.83 	0.048587 	4919 	0.047634
38.85 	0.055375 	4912 	0.054421
38.87 	0.049074 	4911 	0.048358
38.89 	0.050031 	4897 	0.049193
38.91 	0.050377 	4903 	0.049302
38.93 	0.044755 	4938 	0.044162
38.95 	0.043717 	4918 	0.042506
38.97 	0.045021 	4931 	0.044784
38.99 	0.053271 	4937 	0.052441
39.01 	0.044530 	4918 	0.043816
39.03 	0.046413 	4934 	0.045819
39.05 	0.048325 	4925 	0.047730
39.07 	0.048741 	4924 	0.047908
39.09 	0.050985 	4923 	0.050866
39.11 	0.045832 	4931 	0.045595
39.13 	0.046313 	4923 	0.045956
39.15 	0.049440 	4915 	0.048725
39.17 	0.052461 	4937 	0.051512
39.19 	0.045149 	4917 	0.044435
39.21 	0.045621 	4910 	0.045144
39.23 	0.046904 	4925 	0.046051
39.25 	0.045916 	4922 	0.045678
39.27 	0.047047 	4910 	0.046331
39.29 	0.044481 	4901 	0.043883
39.31 	0.048321 	4884 	0.047242
39.33 	0.044818 	4931 	0.044225
39.35 	0.046403 	4935 	0.045810
39.37 	0.044025 	4929 	0.043669
39.39 	0.047677 	4929 	0.046845
39.41 	0.048266 	4931 	0.048028
39.43 	0.047638 	4933 	0.047520
39.45 	0.040203 	4925 	0.039846
39.47 	0.045094 	4923 	0.044856
39.49 	0.050476 	4933 	0.050120
39.51 	0.047929 	4924 	0.047096
39.53 	0.044688 	4923 	0.043498
39.55 	0.044318 	4919 	0.043842
39.57 	0.038719 	4933 	0.037888
39.59 	0.045195 	4912 	0.044361
39.61 	0.045501 	4923 	0.045144
39.63 	0.044697 	4922 	0.044340
39.65 	0.037353 	4926 	0.037115
39.67 	0.041930 	4913 	0.041214
39.69 	0.040073 	4916 	0.039716
39.71 	0.049642 	4895 	0.049283
39.73 	0.048492 	4908 	0.047776
39.75 	0.049919 	4928 	0.048968
39.77 	0.042756 	4935 	0.042637
39.79 	0.044255 	4926 	0.043660
39.81 	0.048914 	4927 	0.047943
39.83 	0.042156 	4934 	0.041306
39.85 	0.047899 	4927 	0.046572
39.87 	0.045482 	4925 	0.045006
39.89 	0.048439 	4934 	0.047490
39.91 	0.049167 	4922 	0.048096
39.93 	0.042333 	4937 	0.041384
39.95 	0.043133 	4915 	0.042518
39.97 	0.045455 	4928 	0.045217
39.99 	0.048054 	4932 	0.047460
40.01 	0.053070 	4918 	0.052237
40.03 	0.048701 	4928 	0.047631
40.05 	0.047590 	4917 	0.046875
40.07 	0.043673 	4923 	0.043197
40.09 	0.047193 	4916 	0.046478
40.11 	0.042311 	4916 	0.041238
40.13 	0.045752 	4896 	0.045393
40.15 	0.041115 	4913 	0.040400
40.17 	0.046875 	4928 	0.046162
40.19 	0.044431 	4929 	0.044312
40.21 	0.045593 	4935 	0.045237
40.23 	0.042782 	4932 	0.042069
40.25 	0.040854 	4920 	0.040377
40.27 	0.041118 	4937 	0.040881
40.29 	0.046885 	4927 	0.046290
40.31 	0.043329 	4939 	0.042973
40.33 	0.041160 	4932 	0.040803
40.35 	0.044521 	4919 	0.043569
40.37 	0.045242 	4929 	0.044529
40.39 	0.041168 	4931 	0.040574
40.41 	0.043655 	4925 	0.043060
40.43 	0.039009 	4922 	0.038651
40.45 	0.043787 	4933 	0.043193
40.47 	0.038227 	4918 	0.037870
40.49 	0.044864 	4926 	0.044388
40.51 	0.043072 	4922 	0.042477
40.53 	0.043938 	4916 	0.043223
40.55 	0.040342 	4908 	0.039865
40.57 	0.042331 	4890 	0.042211
40.59 	0.036054 	4937 	0.035580
40.61 	0.042756 	4935 	0.042162
40.63 	0.046450 	4930 	0.045737
40.65 	0.039903 	4937 	0.039547
40.67 	0.042174 	4932 	0.041580
40.69 	0.043549 	4937 	0.042837
40.71 	0.043593 	4932 	0.043118
40.73 	0.039586 	4926 	0.038635
40.75 	0.040763 	4931 	0.040406
40.77 	0.042519 	4939 	0.041926
40.79 	0.041430 	4924 	0.041430
40.81 	0.042906 	4941 	0.042551
40.83 	0.042817 	4928 	0.042103
40.85 	0.038993 	4924 	0.038398
40.87 	0.039367 	4928 	0.038891
40.89 	0.039343 	4931 	0.038868
40.91 	0.042251 	4923 	0.041775
40.93 	0.042156 	4934 	0.041919
40.95 	0.039080 	4913 	0.038603
40.97 	0.037774 	4924 	0.037298
40.99 	0.046710 	4924 	0.045996
41.01 	0.039902 	4912 	0.039545
41.03 	0.039348 	4905 	0.038750
41.05 	0.035656 	4936 	0.035300
41.07 	0.041988 	4930 	0.041631
41.09 	0.043329 	4939 	0.042854
41.11 	0.039514 	4935 	0.039158
41.13 	0.042139 	4936 	0.041783
41.15 	0.047561 	4941 	0.046968
41.17 	0.039724 	4934 	0.039131
41.19 	0.040162 	4930 	0.040043
41.21 	0.040916 	4937 	0.040322
41.23 	0.044746 	4939 	0.044034
41.25 	0.039732 	4933 	0.039495
41.27 	0.041979 	4931 	0.041742
41.29 	0.035917 	4928 	0.035442
41.31 	0.041354 	4933 	0.040879
41.33 	0.038282 	4937 	0.037689
41.35 	0.043945 	4938 	0.043115
41.37 	0.039602 	4924 	0.039007
41.39 	0.036489 	4933 	0.036133
41.41 	0.039789 	4926 	0.039432
41.43 	0.041793 	4929 	0.041080
41.45 	0.038665 	4914 	0.038307
41.47 	0.037353 	4926 	0.036877
41.49 	0.035568 	4892 	0.035209
41.51 	0.041498 	4940 	0.041024
41.53 	0.038835 	4944 	0.038479
41.55 	0.043364 	4935 	0.042652
41.57 	0.040275 	4941 	0.039208
41.59 	0.043787 	4933 	0.042837
41.61 	0.032909 	4953 	0.032436
41.63 	0.039085 	4938 	0.038847
41.65 	0.042808 	4929 	0.041976
41.67 	0.039474 	4940 	0.039237
41.69 	0.041035 	4947 	0.040798
41.71 	0.040332 	4934 	0.039976
41.73 	0.040316 	4936 	0.039841
41.75 	0.040373 	4929 	0.039898
41.77 	0.041287 	4941 	0.040694
41.79 	0.034385 	4944 	0.034030
41.81 	0.037480 	4936 	0.037124
41.83 	0.038352 	4928 	0.037758
41.85 	0.036647 	4939 	0.036291
41.87 	0.043364 	4935 	0.042770
41.89 	0.040949 	4933 	0.039999
41.91 	0.037075 	4936 	0.036481
41.93 	0.038929 	4932 	0.038078
41.95 	0.036909 	4931 	0.036672
41.97 	0.040293 	4914 	0.039935
41.99 	0.036901 	4905 	0.036662
42.01 	0.037232 	4942 	0.036639
42.03 	0.037659 	4939 	0.037422
42.05 	0.040388 	4952 	0.039796
42.07 	0.034636 	4937 	0.034399
42.09 	0.046281 	4948 	0.045453
42.11 	0.041254 	4945 	0.040898
42.13 	0.038423 	4945 	0.038186
42.15 	0.041515 	4938 	0.040803
42.17 	0.037414 	4918 	0.037056
42.19 	0.037082 	4908 	0.036605
42.21 	0.036523 	4901 	0.036165
42.23 	0.040065 	4892 	0.039826
42.25 	0.041317 	4889 	0.040598
42.27 	0.042060 	4874 	0.041339
42.29 	0.038659 	4863 	0.038298
42.31 	0.036251 	4855 	0.035889
42.33 	0.035788 	4834 	0.035303
42.35 	0.034932 	4838 	0.034690
42.37 	0.037474 	4830 	0.037474
42.39 	0.038301 	4804 	0.037814
42.41 	0.036844 	4804 	0.036235
42.43 	0.041736 	4792 	0.041492
42.45 	0.041039 	4776 	0.040793
42.47 	0.040923 	4765 	0.040678
42.49 	0.039874 	4765 	0.039259
42.51 	0.033101 	4743 	0.032484
42.53 	0.041455 	4728 	0.041207
42.55 	0.036958 	4708 	0.036316
42.57 	0.034038 	4730 	0.033790
42.59 	0.043138 	4729 	0.042519
42.61 	0.041844 	4708 	0.041346
42.63 	0.039286 	4709 	0.038768
42.65 	0.036286 	4685 	0.035161
42.67 	0.039283 	4684 	0.038782
42.69 	0.037655 	4674 	0.037279
42.71 	0.038387 	4663 	0.038010
42.73 	0.037716 	4640 	0.037589
42.75 	0.034221 	4617 	0.033333
42.77 	0.038913 	4600 	0.038531
42.79 	0.035792 	4582 	0.035025
42.81 	0.034634 	4562 	0.033992
42.83 	0.041446 	4536 	0.040930
42.85 	0.041961 	4528 	0.041185
42.87 	0.035563 	4499 	0.035173
42.89 	0.039063 	4480 	0.038278
42.91 	0.033887 	4456 	0.033624
42.93 	0.038911 	4446 	0.038780
42.95 	0.039855 	4416 	0.039037
42.97 	0.038855 	4401 	0.038455
42.99 	0.034208 	4385 	0.033673
43.01 	0.031859 	4363 	0.031456
43.03 	0.037387 	4333 	0.036712
43.05 	0.042081 	4325 	0.041539
43.07 	0.043762 	4296 	0.043057
43.09 	0.040159 	4283 	0.039612
43.11 	0.039013 	4255 	0.038600
43.13 	0.042247 	4237 	0.042109
43.15 	0.039943 	4206 	0.039386
43.17 	0.037330 	4179 	0.036909
43.19 	0.040773 	4194 	0.040354
43.21 	0.039310 	4172 	0.038608
43.23 	0.037073 	4154 	0.036227
43.25 	0.041596 	4135 	0.041454
43.27 	0.038490 	4105 	0.038204
43.29 	0.040244 	4100 	0.040101
43.31 	0.041432 	4079 	0.041001
43.33 	0.032091 	4051 	0.031512
43.35 	0.040179 	4032 	0.040033
43.37 	0.035866 	4015 	0.035720
43.39 	0.034233 	4002 	0.033794
43.41 	0.032729 	3972 	0.032434
43.43 	0.036364 	3960 	0.036068
43.45 	0.039390 	3935 	0.038795
43.47 	0.035960 	3921 	0.035064
43.49 	0.035668 	3897 	0.035218
43.51 	0.033531 	3877 	0.032600
43.53 	0.040124 	3863 	0.039821
43.55 	0.033063 	2964 	0.032471
43.57 	0.029491 	2238 	0.029491
43.59 	0.029782 	1746 	0.029447
43.61 	0.048113 	1351 	0.047679
43.63 	0.029970 	1001 	0.029385
43.65 	0.033479 	687 	0.033479
43.67 	0.051793 	502 	0.050626
43.69 	0.035422 	367 	0.035422
43.71 	0.025105 	239 	0.025105
43.73 	0.041667 	120 	0.041667
43.75 	0.000000 	16 	0.000000