File: Example_Data/25SC_s1_0052.003.dat
#F C:\frames\spec\25SC_s1_0052.003
#C title =s:52 frm:3 25SC_s1
#C wavelength =0.15406

#S 1  fr_average C:\frames\spec\25SC_s1_0052.003 C:\win32app\speccom\mask.axs chi 0 180 0 360 0.02
#C 2 theta =0.000000 to 180 deg
#C   q   =0.000000 to 81.568 nm^-1
#C  chi  =0.000000 to 360 deg
#C collumns:
#C  1 position (2theta or chi in degrees)
#C  2 average intensity (sum of all counts in the region divided with number of pixels)
#C  3 Number of pixels in region)
#C  4 error (sum of sqrt(intensity) for all pixels divided by number)
#N 4
#L TTh  Int  N_pix  Err
32.99 	0.049180 	61 	0.049180
33.01 	0.072165 	873 	0.070823
33.03 	0.056794 	1391 	0.056373
33.05 	0.075697 	1757 	0.075030
33.07 	0.070732 	2050 	0.067780
33.09 	0.072007 	2347 	0.071008
33.11 	0.072896 	2579 	0.071307
33.13 	0.070175 	2793 	0.069546
33.15 	0.063688 	2999 	0.063297
33.17 	0.071853 	3201 	0.070206
33.19 	0.070916 	3342 	0.069689
33.21 	0.070140 	3436 	0.068435
33.23 	0.067840 	3523 	0.065318
33.25 	0.074751 	3612 	0.073129
33.27 	0.063085 	3630 	0.062117
33.29 	0.066064 	3648 	0.065421
33.31 	0.067213 	3660 	0.065293
33.33 	0.074064 	3686 	0.071813
33.35 	0.065512 	3694 	0.064560
33.37 	0.068390 	3714 	0.066813
33.39 	0.067042 	3729 	0.065785
33.41 	0.069251 	3740 	0.067372
33.43 	0.063813 	3761 	0.062723
33.45 	0.065730 	3773 	0.064178
33.47 	0.073723 	3798 	0.072489
33.49 	0.059858 	3809 	0.059551
33.51 	0.070511 	3815 	0.069436
33.53 	0.071075 	3841 	0.069855
33.55 	0.071038 	3843 	0.069311
33.57 	0.077379 	3877 	0.074962
33.59 	0.074742 	3880 	0.072780
33.61 	0.062932 	3909 	0.062632
33.63 	0.070681 	3919 	0.069486
33.65 	0.061562 	3931 	0.060221
33.67 	0.068285 	3954 	0.067396
33.69 	0.070832 	3953 	0.069350
33.71 	0.073711 	3975 	0.071304
33.73 	0.061189 	4004 	0.060165
33.75 	0.068267 	3999 	0.066509
33.77 	0.069814 	4025 	0.068795
33.79 	0.077951 	4041 	0.075487
33.81 	0.068103 	4038 	0.066628
33.83 	0.072346 	4050 	0.071044
33.85 	0.068797 	4099 	0.066654
33.87 	0.063731 	4111 	0.062877
33.89 	0.068430 	4121 	0.067719
33.91 	0.059773 	4149 	0.058362
33.93 	0.060949 	4151 	0.059233
33.95 	0.059316 	4181 	0.058195
33.97 	0.063723 	4190 	0.062582
33.99 	0.068571 	4200 	0.066758
34.01 	0.068835 	4213 	0.067699
34.03 	0.068332 	4244 	0.067228
34.05 	0.058090 	4252 	0.057401
34.07 	0.078725 	4268 	0.077490
34.09 	0.064396 	4286 	0.062892
34.11 	0.066713 	4302 	0.065079
34.13 	0.067084 	4308 	0.066405
34.15 	0.062572 	4331 	0.061355
34.17 	0.061839 	4350 	0.060201
34.19 	0.070381 	4362 	0.069038
34.21 	0.068177 	4371 	0.066412
34.23 	0.063510 	4393 	0.062443
34.25 	0.066757 	4404 	0.064873
34.27 	0.068747 	4422 	0.067687
34.29 	0.068771 	4435 	0.067582
34.31 	0.068416 	4458 	0.067234
34.33 	0.068217 	4471 	0.067562
34.35 	0.070027 	4484 	0.069112
34.37 	0.069918 	4491 	0.068352
34.39 	0.061972 	4502 	0.060541
34.41 	0.061865 	4526 	0.061218
34.43 	0.061027 	4539 	0.059994
34.45 	0.063286 	4535 	0.062123
34.47 	0.063589 	4592 	0.061803
34.49 	0.070263 	4597 	0.068734
34.51 	0.064047 	4606 	0.063157
34.53 	0.063537 	4643 	0.062653
34.55 	0.063106 	4643 	0.061592
34.57 	0.060730 	4660 	0.059975
34.59 	0.070160 	4675 	0.068907
34.61 	0.058548 	4697 	0.057675
34.63 	0.062420 	4710 	0.061052
34.65 	0.062699 	4721 	0.062078
34.67 	0.071715 	4741 	0.069965
34.69 	0.070677 	4754 	0.069075
34.71 	0.066513 	4766 	0.064157
34.73 	0.068310 	4787 	0.067086
34.75 	0.068428 	4808 	0.066600
34.77 	0.061021 	4818 	0.059299
34.79 	0.063640 	4824 	0.062649
34.81 	0.061094 	4845 	0.060127
34.83 	0.064582 	4862 	0.063619
34.85 	0.065722 	4869 	0.064158
34.87 	0.065941 	4868 	0.064236
34.89 	0.067595 	4882 	0.066395
34.91 	0.062270 	4882 	0.061410
34.93 	0.062870 	4899 	0.062153
34.95 	0.062781 	4890 	0.061583
34.97 	0.064259 	4902 	0.063303
34.99 	0.066571 	4897 	0.065495
35.01 	0.061345 	4923 	0.060274
35.03 	0.065345 	4943 	0.064278
35.05 	0.066707 	4947 	0.065049
35.07 	0.071255 	4940 	0.069575
35.09 	0.065819 	4953 	0.064873
35.11 	0.064281 	4947 	0.063452
35.13 	0.062727 	4958 	0.062136
35.15 	0.062994 	4937 	0.061669
35.17 	0.065507 	4946 	0.063968
35.19 	0.065358 	4942 	0.063936
35.21 	0.063498 	4945 	0.062551
35.23 	0.068554 	4945 	0.066540
35.25 	0.065143 	4943 	0.062772
35.27 	0.062449 	4948 	0.061502
35.29 	0.072599 	4945 	0.071414
35.31 	0.070951 	4933 	0.069744
35.33 	0.063322 	4943 	0.062255
35.35 	0.058478 	4942 	0.057412
35.37 	0.067827 	4939 	0.066286
35.39 	0.063094 	4945 	0.061416
35.41 	0.065773 	4926 	0.064703
35.43 	0.071762 	4933 	0.070436
35.45 	0.067247 	4937 	0.066061
35.47 	0.073819 	4931 	0.072631
35.49 	0.070061 	4910 	0.068610
35.51 	0.062728 	4926 	0.061896
35.53 	0.066478 	4949 	0.065886
35.55 	0.068756 	4945 	0.068282
35.57 	0.066694 	4933 	0.065130
35.59 	0.058443 	4945 	0.057495
35.61 	0.070822 	4942 	0.069281
35.63 	0.060287 	4943 	0.058984
35.65 	0.068352 	4945 	0.067167
35.67 	0.061109 	4942 	0.060279
35.69 	0.060655 	4946 	0.059708
35.71 	0.066235 	4937 	0.065048
35.73 	0.060575 	4936 	0.059863
35.75 	0.068343 	4931 	0.066799
35.77 	0.066451 	4951 	0.065130
35.79 	0.060219 	4932 	0.059150
35.81 	0.066896 	4933 	0.065709
35.83 	0.064092 	4946 	0.062553
35.85 	0.063830 	4935 	0.062880
35.87 	0.067235 	4923 	0.066046
35.89 	0.062221 	4934 	0.061252
35.91 	0.072255 	4927 	0.070333
35.93 	0.066978 	4927 	0.065650
35.95 	0.070571 	4917 	0.069142
35.97 	0.066164 	4912 	0.064595
35.99 	0.072484 	4939 	0.070824
36.01 	0.066126 	4930 	0.065294
36.03 	0.065952 	4943 	0.064530
36.05 	0.072396 	4945 	0.070126
36.07 	0.069042 	4939 	0.067738
36.09 	0.063563 	4940 	0.062733
36.11 	0.073240 	4929 	0.072052
36.13 	0.074059 	4942 	0.072262
36.15 	0.061146 	4939 	0.060197
36.17 	0.071066 	4925 	0.069758
36.19 	0.068219 	4940 	0.067151
36.21 	0.067154 	4929 	0.065846
36.23 	0.070719 	4935 	0.070126
36.25 	0.063550 	4941 	0.062483
36.27 	0.066193 	4925 	0.065241
36.29 	0.056784 	4931 	0.055576
36.31 	0.058442 	4928 	0.057847
36.33 	0.068113 	4933 	0.066213
36.35 	0.065733 	4929 	0.064783
36.37 	0.062767 	4923 	0.061815
36.39 	0.063605 	4921 	0.062177
36.41 	0.066381 	4896 	0.065424
36.43 	0.068182 	4928 	0.067350
36.45 	0.060649 	4930 	0.060293
36.47 	0.067261 	4936 	0.066430
36.49 	0.067382 	4942 	0.065485
36.51 	0.059599 	4933 	0.058649
36.53 	0.064131 	4943 	0.062828
36.55 	0.063325 	4927 	0.062730
36.57 	0.065667 	4934 	0.064361
36.59 	0.068435 	4939 	0.066774
36.61 	0.070371 	4931 	0.067995
36.63 	0.068343 	4931 	0.066542
36.65 	0.065896 	4932 	0.064827
36.67 	0.066329 	4930 	0.064764
36.69 	0.058024 	4929 	0.057172
36.71 	0.067669 	4921 	0.066697
36.73 	0.068223 	4925 	0.066915
36.75 	0.064927 	4944 	0.063861
36.77 	0.064647 	4919 	0.063218
36.79 	0.061370 	4921 	0.060279
36.81 	0.068755 	4916 	0.067921
36.83 	0.069379 	4915 	0.068188
36.85 	0.067579 	4898 	0.066263
36.87 	0.068972 	4944 	0.067669
36.89 	0.063873 	4916 	0.062920
36.91 	0.074681 	4941 	0.073140
36.93 	0.066937 	4930 	0.065630
36.95 	0.070748 	4933 	0.069541
36.97 	0.064653 	4934 	0.063328
36.99 	0.070719 	4935 	0.069058
37.01 	0.071559 	4933 	0.070253
37.03 	0.062551 	4924 	0.061956
37.05 	0.064136 	4927 	0.063661
37.07 	0.064032 	4935 	0.062133
37.09 	0.063920 	4928 	0.063088
37.11 	0.064235 	4935 	0.063167
37.13 	0.067019 	4924 	0.065928
37.15 	0.062334 	4909 	0.061141
37.17 	0.059789 	4934 	0.058701
37.19 	0.065584 	4925 	0.064275
37.21 	0.063657 	4917 	0.062465
37.23 	0.071777 	4918 	0.070586
37.25 	0.063124 	4911 	0.062408
37.27 	0.069473 	4894 	0.068755
37.29 	0.069777 	4930 	0.068688
37.31 	0.068693 	4935 	0.067506
37.33 	0.072255 	4927 	0.070670
37.35 	0.063386 	4938 	0.062299
37.37 	0.060483 	4927 	0.059037
37.39 	0.061651 	4931 	0.060700
37.41 	0.070168 	4931 	0.068624
37.43 	0.062044 	4932 	0.061094
37.45 	0.064582 	4924 	0.063511
37.47 	0.063502 	4929 	0.062551
37.49 	0.057079 	4923 	0.056484
37.51 	0.067302 	4933 	0.065877
37.53 	0.065664 	4919 	0.064453
37.55 	0.061866 	4930 	0.060421
37.57 	0.060914 	4925 	0.059962
37.59 	0.061648 	4915 	0.060198
37.61 	0.056481 	4922 	0.055291
37.63 	0.064851 	4919 	0.064136
37.65 	0.055714 	4918 	0.054999
37.67 	0.067496 	4904 	0.066162
37.69 	0.066762 	4898 	0.065686
37.71 	0.059850 	4929 	0.059493
37.73 	0.057821 	4929 	0.056751
37.75 	0.064777 	4940 	0.063829
37.77 	0.064024 	4920 	0.062834
37.79 	0.065112 	4930 	0.064399
37.81 	0.067099 	4933 	0.065793
37.83 	0.061382 	4920 	0.059953
37.85 	0.061764 	4922 	0.060216
37.87 	0.054060 	4939 	0.052992
37.89 	0.060305 	4925 	0.059591
37.91 	0.059432 	4930 	0.058481
37.93 	0.062208 	4919 	0.060402
37.95 	0.063199 	4921 	0.062722
37.97 	0.061473 	4929 	0.060760
37.99 	0.061686 	4912 	0.060493
38.01 	0.063109 	4928 	0.061762
38.03 	0.060909 	4909 	0.059357
38.05 	0.069239 	4925 	0.067573
38.07 	0.060094 	4909 	0.058542
38.09 	0.061911 	4878 	0.060950
38.11 	0.069504 	4935 	0.068198
38.13 	0.062791 	4937 	0.061723
38.15 	0.067507 	4918 	0.065482
38.17 	0.074037 	4930 	0.071898
38.19 	0.065112 	4930 	0.063567
38.21 	0.072923 	4923 	0.071000
38.23 	0.067639 	4938 	0.066690
38.25 	0.070978 	4917 	0.069787
38.27 	0.071400 	4930 	0.070568
38.29 	0.073924 	4924 	0.072139
38.31 	0.072458 	4927 	0.071012
38.33 	0.073314 	4924 	0.071173
38.35 	0.078328 	4928 	0.076525
38.37 	0.077579 	4924 	0.075676
38.39 	0.078427 	4909 	0.075902
38.41 	0.081861 	4923 	0.078966
38.43 	0.081164 	4916 	0.079138
38.45 	0.080317 	4918 	0.078134
38.47 	0.082739 	4907 	0.080690
38.49 	0.077507 	4877 	0.075825
38.51 	0.083739 	4932 	0.081838
38.53 	0.080544 	4929 	0.078642
38.55 	0.078809 	4936 	0.077741
38.57 	0.078814 	4923 	0.076890
38.59 	0.071487 	4924 	0.070297
38.61 	0.076175 	4936 	0.073920
38.63 	0.070268 	4924 	0.069078
38.65 	0.069744 	4918 	0.069029
38.67 	0.064412 	4937 	0.063106
38.69 	0.069078 	4922 	0.068006
38.71 	0.063769 	4924 	0.062441
38.73 	0.069337 	4918 	0.067273
38.75 	0.057236 	4927 	0.056403
38.77 	0.059923 	4923 	0.059328
38.79 	0.066680 	4934 	0.064781
38.81 	0.059853 	4912 	0.058780
38.83 	0.061801 	4919 	0.061206
38.85 	0.054357 	4912 	0.053760
38.87 	0.063124 	4911 	0.061911
38.89 	0.060445 	4897 	0.059488
38.91 	0.059555 	4903 	0.058480
38.93 	0.056298 	4938 	0.055824
38.95 	0.052054 	4918 	0.050743
38.97 	0.052728 	4931 	0.052134
38.99 	0.056512 	4937 	0.055800
39.01 	0.056730 	4918 	0.055758
39.03 	0.055736 	4934 	0.055380
39.05 	0.057868 	4925 	0.057254
39.07 	0.055037 	4924 	0.054204
39.09 	0.051391 	4923 	0.050440
39.11 	0.051308 	4931 	0.050833
39.13 	0.058907 	4923 	0.057241
39.15 	0.048830 	4915 	0.047877
39.17 	0.055297 	4937 	0.054822
39.19 	0.051454 	4917 	0.050382
39.21 	0.053768 	4910 	0.053291
39.23 	0.051371 	4925 	0.050399
39.25 	0.052011 	4922 	0.051040
39.27 	0.054582 	4910 	0.053509
39.29 	0.053458 	4901 	0.052861
39.31 	0.054668 	4884 	0.053829
39.33 	0.056581 	4931 	0.055373
39.35 	0.046403 	4935 	0.045691
39.37 	0.051735 	4929 	0.050903
39.39 	0.056198 	4929 	0.055604
39.41 	0.056378 	4931 	0.055428
39.43 	0.048247 	4933 	0.046921
39.45 	0.048528 	4925 	0.047933
39.47 	0.053829 	4923 	0.052996
39.49 	0.050476 	4933 	0.049764
39.51 	0.054427 	4924 	0.053476
39.53 	0.051391 	4923 	0.050777
39.55 	0.056312 	4919 	0.055955
39.57 	0.048652 	4933 	0.048177
39.59 	0.057614 	4912 	0.056898
39.61 	0.051391 	4923 	0.050182
39.63 	0.045104 	4922 	0.044390
39.65 	0.048518 	4926 	0.047785
39.67 	0.050071 	4913 	0.049714
39.69 	0.052075 	4916 	0.051360
39.71 	0.051685 	4895 	0.050828
39.73 	0.049715 	4908 	0.048999
39.75 	0.052760 	4928 	0.052047
39.77 	0.045187 	4935 	0.044475
39.79 	0.051157 	4926 	0.050444
39.81 	0.047493 	4927 	0.046542
39.83 	0.051277 	4934 	0.050327
39.85 	0.047899 	4927 	0.047186
39.87 	0.047310 	4925 	0.046477
39.89 	0.049858 	4934 	0.049383
39.91 	0.048557 	4922 	0.047962
39.93 	0.052258 	4937 	0.051072
39.95 	0.040285 	4915 	0.039927
39.97 	0.050325 	4928 	0.049849
39.99 	0.047242 	4932 	0.046886
40.01 	0.049207 	4918 	0.049088
40.03 	0.050731 	4928 	0.049879
40.05 	0.046573 	4917 	0.046216
40.07 	0.052001 	4923 	0.051525
40.09 	0.053295 	4916 	0.052580
40.11 	0.047193 	4916 	0.046716
40.13 	0.046364 	4896 	0.046005
40.15 	0.056788 	4913 	0.056073
40.17 	0.051745 	4928 	0.050675
40.19 	0.048286 	4929 	0.047216
40.21 	0.047822 	4935 	0.047703
40.23 	0.045823 	4932 	0.044754
40.25 	0.048577 	4920 	0.047863
40.27 	0.043954 	4937 	0.043242
40.29 	0.052973 	4927 	0.052379
40.31 	0.051225 	4939 	0.050513
40.33 	0.052311 	4932 	0.051718
40.35 	0.044928 	4919 	0.044451
40.37 	0.045851 	4929 	0.044544
40.39 	0.045021 	4931 	0.044309
40.41 	0.050558 	4925 	0.050320
40.43 	0.053840 	4922 	0.052412
40.45 	0.043787 	4933 	0.043668
40.47 	0.046157 	4918 	0.045800
40.49 	0.049330 	4926 	0.048854
40.51 	0.046729 	4922 	0.046253
40.53 	0.053295 	4916 	0.052203
40.55 	0.046659 	4908 	0.046062
40.57 	0.048671 	4890 	0.048072
40.59 	0.043751 	4937 	0.043395
40.61 	0.044985 	4935 	0.044391
40.63 	0.054361 	4930 	0.054005
40.65 	0.046182 	4937 	0.045945
40.67 	0.050284 	4932 	0.049571
40.69 	0.046587 	4937 	0.045638
40.71 	0.050689 	4932 	0.050214
40.73 	0.050751 	4926 	0.049800
40.75 	0.053742 	4931 	0.053029
40.77 	0.043936 	4939 	0.043462
40.79 	0.047929 	4924 	0.047215
40.81 	0.046549 	4941 	0.046312
40.83 	0.047078 	4928 	0.046602
40.85 	0.048538 	4924 	0.048181
40.87 	0.048498 	4928 	0.047904
40.89 	0.046035 	4931 	0.045916
40.91 	0.050782 	4923 	0.050425
40.93 	0.049250 	4934 	0.048656
40.95 	0.044983 	4913 	0.044387
40.97 	0.045288 	4924 	0.045050
40.99 	0.048741 	4924 	0.048384
41.01 	0.047842 	4912 	0.047484
41.03 	0.051172 	4905 	0.050695
41.05 	0.048420 	4936 	0.047708
41.07 	0.056795 	4930 	0.055726
41.09 	0.049605 	4939 	0.049012
41.11 	0.044174 	4935 	0.043443
41.13 	0.047812 	4936 	0.047199
41.15 	0.049787 	4941 	0.049313
41.17 	0.048642 	4934 	0.047930
41.19 	0.052130 	4930 	0.051417
41.21 	0.045777 	4937 	0.045539
41.23 	0.050213 	4939 	0.049145
41.25 	0.044598 	4933 	0.043885
41.27 	0.050497 	4931 	0.049903
41.29 	0.044034 	4928 	0.043796
41.31 	0.046827 	4933 	0.045996
41.33 	0.047397 	4937 	0.046685
41.35 	0.053260 	4938 	0.052667
41.37 	0.046913 	4924 	0.046318
41.39 	0.048652 	4933 	0.047939
41.41 	0.044661 	4926 	0.044066
41.43 	0.043619 	4929 	0.043382
41.45 	0.044363 	4914 	0.044005
41.47 	0.049330 	4926 	0.048260
41.49 	0.048446 	4892 	0.047249
41.51 	0.050000 	4940 	0.049032
41.53 	0.042678 	4944 	0.042086
41.55 	0.046201 	4935 	0.045488
41.57 	0.045740 	4941 	0.044653
41.59 	0.045408 	4933 	0.044933
41.61 	0.039572 	4953 	0.039335
41.63 	0.046173 	4938 	0.045698
41.65 	0.049706 	4929 	0.049349
41.67 	0.048178 	4940 	0.047704
41.69 	0.044269 	4947 	0.043421
41.71 	0.051277 	4934 	0.050802
41.73 	0.045178 	4936 	0.044704
41.75 	0.050720 	4929 	0.050007
41.77 	0.054645 	4941 	0.053341
41.79 	0.046723 	4944 	0.045538
41.81 	0.049028 	4936 	0.048434
41.83 	0.044237 	4928 	0.043999
41.85 	0.045353 	4939 	0.044760
41.87 	0.041135 	4935 	0.040660
41.89 	0.046219 	4933 	0.045032
41.91 	0.051661 	4936 	0.050949
41.93 	0.049270 	4932 	0.048557
41.95 	0.047252 	4931 	0.046421
41.97 	0.045788 	4914 	0.045192
41.99 	0.039755 	4905 	0.039139
42.01 	0.048968 	4942 	0.048375
42.03 	0.042519 	4939 	0.042282
42.05 	0.039176 	4952 	0.038821
42.07 	0.042941 	4937 	0.042348
42.09 	0.045271 	4948 	0.044679
42.11 	0.045298 	4945 	0.044232
42.13 	0.039636 	4945 	0.039162
42.15 	0.046375 	4938 	0.045426
42.17 	0.041074 	4918 	0.040716
42.19 	0.050530 	4908 	0.050172
42.21 	0.044073 	4901 	0.043116
42.23 	0.043336 	4892 	0.042857
42.25 	0.044181 	4889 	0.043941
42.27 	0.042675 	4874 	0.042555
42.29 	0.046679 	4863 	0.046318
42.31 	0.047374 	4855 	0.046389
42.33 	0.040339 	4834 	0.040218
42.35 	0.044026 	4838 	0.043663
42.37 	0.048654 	4830 	0.047805
42.39 	0.042256 	4804 	0.041891
42.41 	0.048293 	4804 	0.047561
42.43 	0.043614 	4792 	0.043125
42.45 	0.046482 	4776 	0.045747
42.47 	0.046380 	4765 	0.045519
42.49 	0.046800 	4765 	0.046308
42.51 	0.045962 	4743 	0.045098
42.53 	0.041667 	4728 	0.040552
42.55 	0.044180 	4708 	0.043682
42.57 	0.052008 	4730 	0.051265
42.59 	0.046733 	4729 	0.045990
42.61 	0.047366 	4708 	0.046620
42.63 	0.041410 	4709 	0.041016
42.65 	0.039915 	4685 	0.039164
42.67 	0.044406 	4684 	0.044156
42.69 	0.048353 	4674 	0.047601
42.71 	0.045893 	4663 	0.045014
42.73 	0.046121 	4640 	0.045742
42.75 	0.045267 	4617 	0.045141
42.77 	0.045435 	4600 	0.045180
42.79 	0.042558 	4582 	0.042302
42.81 	0.044279 	4562 	0.043380
42.83 	0.045855 	4536 	0.045318
42.85 	0.049028 	4528 	0.047993
42.87 	0.041565 	4499 	0.040914
42.89 	0.038393 	4480 	0.038001
42.91 	0.037478 	4456 	0.037083
42.93 	0.046109 	4446 	0.045450
42.95 	0.044837 	4416 	0.044439
42.97 	0.046126 	4401 	0.045460
42.99 	0.045382 	4385 	0.044714
43.01 	0.042402 	4363 	0.041977
43.03 	0.045927 	4333 	0.044980
43.05 	0.045780 	4325 	0.045645
43.07 	0.043994 	4296 	0.043585
43.09 	0.040392 	4283 	0.039845
43.11 	0.048179 	4255 	0.047628
43.13 	0.041539 	4237 	0.041262
43.15 	0.045174 	4206 	0.044616
43.17 	0.049055 	4179 	0.048634
43.19 	0.043157 	4194 	0.042319
43.21 	0.040988 	4172 	0.040426
43.23 	0.044054 	4154 	0.043772
43.25 	0.051028 	4135 	0.050603
43.27 	0.043118 	4105 	0.042119
43.29 	0.047561 	4100 	0.046275
43.31 	0.045845 	4079 	0.044696
43.33 	0.046161 	4051 	0.045583
43.35 	0.047371 	4032 	0.046645
43.37 	0.039352 	4015 	0.038477
43.39 	0.043728 	4002 	0.043289
43.41 	0.046073 	3972 	0.045335
43.43 	0.042677 	3960 	0.041493
43.45 	0.050064 	3935 	0.049170
43.47 	0.041571 	3921 	0.040675
43.49 	0.041057 	3897 	0.040757
43.51 	0.040495 	3877 	0.039891
43.53 	0.040383 	3863 	0.039928
43.55 	0.037112 	2964 	0.036321
43.57 	0.042449 	2238 	0.041925
43.59 	0.042955 	1746 	0.042284
43.61 	0.034049 	1351 	0.033615
43.63 	0.041958 	1001 	0.041373
43.65 	0.046579 	687 	0.045727
43.67 	0.049801 	502 	0.048634
43.69 	0.051771 	367 	0.050175
43.71 	0.041841 	239 	0.041841
43.73 	0.050000 	120 	0.050000
43.75 	0.000000 	16 	0.000000