File: Example_Data/25SC_s1_0038.002.dat
#F C:\frames\spec\25SC_s1_0038.002
#C title =s:38 frm:2 25SC_s1
#C wavelength =0.15406

#S 1  fr_average C:\frames\spec\25SC_s1_0038.002 C:\win32app\speccom\mask.axs chi 0 180 0 360 0.02
#C 2 theta =0.000000 to 180 deg
#C   q   =0.000000 to 81.568 nm^-1
#C  chi  =0.000000 to 360 deg
#C collumns:
#C  1 position (2theta or chi in degrees)
#C  2 average intensity (sum of all counts in the region divided with number of pixels)
#C  3 Number of pixels in region)
#C  4 error (sum of sqrt(intensity) for all pixels divided by number)
#N 4
#L TTh  Int  N_pix  Err
32.99 	0.065574 	61 	0.065574
33.01 	0.067583 	873 	0.066241
33.03 	0.056794 	1391 	0.055530
33.05 	0.063745 	1757 	0.063412
33.07 	0.054634 	2050 	0.054634
33.09 	0.065190 	2347 	0.064441
33.11 	0.064754 	2579 	0.063618
33.13 	0.052990 	2793 	0.052780
33.15 	0.047016 	2999 	0.046820
33.17 	0.064355 	3201 	0.062891
33.19 	0.056553 	3342 	0.054918
33.21 	0.058789 	3436 	0.058278
33.23 	0.057905 	3523 	0.057074
33.25 	0.053710 	3612 	0.053385
33.27 	0.053719 	3630 	0.052589
33.29 	0.057018 	3648 	0.055894
33.31 	0.055191 	3660 	0.054391
33.33 	0.056972 	3686 	0.055701
33.35 	0.060639 	3694 	0.059529
33.37 	0.057889 	3714 	0.055970
33.39 	0.058729 	3729 	0.058258
33.41 	0.058824 	3740 	0.057571
33.43 	0.058495 	3761 	0.057872
33.45 	0.059634 	3773 	0.058703
33.47 	0.057925 	3798 	0.056049
33.49 	0.055395 	3809 	0.053857
33.51 	0.062123 	3815 	0.061202
33.53 	0.063525 	3841 	0.062153
33.55 	0.050742 	3843 	0.050132
33.57 	0.059324 	3877 	0.058569
33.59 	0.055412 	3880 	0.054507
33.61 	0.053466 	3909 	0.053017
33.63 	0.063792 	3919 	0.062596
33.65 	0.058764 	3931 	0.058317
33.67 	0.058928 	3954 	0.057150
33.69 	0.049836 	3953 	0.049095
33.71 	0.053082 	3975 	0.052345
33.73 	0.053946 	4004 	0.053800
33.75 	0.063516 	3999 	0.062198
33.77 	0.057640 	4025 	0.056767
33.79 	0.054442 	4041 	0.053427
33.81 	0.070827 	4038 	0.069812
33.83 	0.058272 	4050 	0.057838
33.85 	0.057331 	4099 	0.055759
33.87 	0.055704 	4111 	0.054137
33.89 	0.051686 	4121 	0.051544
33.91 	0.067727 	4149 	0.066857
33.93 	0.057336 	4151 	0.056348
33.95 	0.052619 	4181 	0.052199
33.97 	0.062530 	4190 	0.061272
33.99 	0.058095 	4200 	0.057398
34.01 	0.053406 	4213 	0.052711
34.03 	0.064562 	4244 	0.063872
34.05 	0.059501 	4252 	0.058262
34.07 	0.061153 	4268 	0.060169
34.09 	0.061363 	4286 	0.060269
34.11 	0.062762 	4302 	0.061264
34.13 	0.051996 	4308 	0.051180
34.15 	0.058647 	4331 	0.057835
34.17 	0.056092 	4350 	0.055284
34.19 	0.052040 	4362 	0.050832
34.21 	0.060627 	4371 	0.059421
34.23 	0.058957 	4393 	0.057757
34.25 	0.058129 	4404 	0.057331
34.27 	0.056536 	4422 	0.055476
34.29 	0.054115 	4435 	0.053190
34.31 	0.059444 	4458 	0.057998
34.33 	0.063520 	4471 	0.061948
34.35 	0.059545 	4484 	0.058500
34.37 	0.054331 	4491 	0.053005
34.39 	0.054642 	4502 	0.053992
34.41 	0.059434 	4526 	0.059046
34.43 	0.058824 	4539 	0.058178
34.45 	0.055347 	4535 	0.054831
34.47 	0.059233 	4592 	0.058468
34.49 	0.058734 	4597 	0.057460
34.51 	0.054277 	4606 	0.053514
34.53 	0.051906 	4643 	0.051275
34.55 	0.053629 	4643 	0.052978
34.57 	0.066953 	4660 	0.065696
34.59 	0.060749 	4675 	0.060122
34.61 	0.055780 	4697 	0.055281
34.63 	0.053079 	4710 	0.052581
34.65 	0.061428 	4721 	0.060166
34.67 	0.053153 	4741 	0.052041
34.69 	0.061632 	4754 	0.060154
34.71 	0.059799 	4766 	0.058324
34.73 	0.056612 	4787 	0.055877
34.75 	0.055116 	4808 	0.053776
34.77 	0.056455 	4818 	0.055239
34.79 	0.060116 	4824 	0.058902
34.81 	0.055315 	4845 	0.054227
34.83 	0.056150 	4862 	0.055306
34.85 	0.057096 	4869 	0.055652
34.87 	0.053205 	4868 	0.052723
34.89 	0.055510 	4882 	0.054310
34.91 	0.060836 	4882 	0.059756
34.93 	0.055317 	4899 	0.054720
34.95 	0.049898 	4890 	0.049179
34.97 	0.058752 	4902 	0.057796
34.99 	0.057382 	4897 	0.056784
35.01 	0.058095 	4923 	0.057143
35.03 	0.049565 	4943 	0.049328
35.05 	0.057611 	4947 	0.057492
35.07 	0.055263 	4940 	0.054433
35.09 	0.058752 	4953 	0.057806
35.11 	0.059834 	4947 	0.058887
35.13 	0.060912 	4958 	0.059612
35.15 	0.055094 	4937 	0.054264
35.17 	0.055803 	4946 	0.055092
35.19 	0.061716 	4942 	0.060630
35.21 	0.055005 	4945 	0.054887
35.23 	0.056218 	4945 	0.055152
35.25 	0.057455 	4943 	0.056744
35.27 	0.057599 	4948 	0.056889
35.29 	0.060870 	4945 	0.059803
35.31 	0.053923 	4933 	0.052973
35.33 	0.058264 	4943 	0.057178
35.35 	0.061514 	4942 	0.059736
35.37 	0.057299 	4939 	0.056232
35.39 	0.052578 	4945 	0.051394
35.41 	0.054811 	4926 	0.054098
35.43 	0.062437 	4933 	0.061487
35.45 	0.059753 	4937 	0.059041
35.47 	0.052119 	4931 	0.051525
35.49 	0.053564 	4910 	0.052729
35.51 	0.058059 	4926 	0.056969
35.53 	0.053142 	4949 	0.051840
35.55 	0.059858 	4945 	0.058674
35.57 	0.053112 	4933 	0.052399
35.59 	0.053589 	4945 	0.052523
35.61 	0.062525 	4942 	0.061676
35.63 	0.056241 	4943 	0.055767
35.65 	0.060667 	4945 	0.059957
35.67 	0.052408 	4942 	0.051460
35.69 	0.060251 	4946 	0.059659
35.71 	0.052664 	4937 	0.051952
35.73 	0.054498 	4936 	0.053429
35.75 	0.055567 	4931 	0.054973
35.77 	0.059584 	4951 	0.058519
35.79 	0.058191 	4932 	0.057360
35.81 	0.054531 	4933 	0.054056
35.83 	0.058431 	4946 	0.057583
35.85 	0.050456 	4935 	0.049625
35.87 	0.053423 	4923 	0.052233
35.89 	0.050466 	4934 	0.049378
35.91 	0.055612 	4927 	0.054661
35.93 	0.051959 	4927 	0.050889
35.95 	0.059386 	4917 	0.058433
35.97 	0.052524 	4912 	0.051928
35.99 	0.057097 	4939 	0.056029
36.01 	0.052333 	4930 	0.052095
36.03 	0.059276 	4943 	0.057972
36.05 	0.055005 	4945 	0.054057
36.07 	0.055072 	4939 	0.054479
36.09 	0.059514 	4940 	0.058566
36.11 	0.062082 	4929 	0.060893
36.13 	0.053217 	4942 	0.052625
36.15 	0.057906 	4939 	0.057175
36.17 	0.060305 	4925 	0.059591
36.19 	0.056883 	4940 	0.056527
36.21 	0.053763 	4929 	0.052932
36.23 	0.063222 	4935 	0.061797
36.25 	0.059907 	4941 	0.058603
36.27 	0.054822 	4925 	0.054109
36.29 	0.053336 	4931 	0.052742
36.31 	0.052557 	4928 	0.051962
36.33 	0.052909 	4933 	0.051484
36.35 	0.054575 	4929 	0.053862
36.37 	0.055657 	4923 	0.054705
36.39 	0.051616 	4921 	0.050782
36.41 	0.055760 	4896 	0.054922
36.43 	0.052963 	4928 	0.052368
36.45 	0.057606 	4930 	0.056518
36.47 	0.055511 	4936 	0.055036
36.49 	0.053420 	4942 	0.051978
36.51 	0.062639 	4933 	0.061076
36.53 	0.051993 	4943 	0.050907
36.55 	0.058250 	4927 	0.057180
36.57 	0.053101 	4934 	0.052151
36.59 	0.060336 	4939 	0.059269
36.61 	0.053539 	4931 	0.053064
36.63 	0.053742 	4931 	0.052672
36.65 	0.057583 	4932 	0.056514
36.67 	0.051318 	4930 	0.050724
36.69 	0.054372 	4929 	0.054134
36.71 	0.049990 	4921 	0.049633
36.73 	0.051168 	4925 	0.050216
36.75 	0.055421 	4944 	0.054473
36.77 	0.057125 	4919 	0.056649
36.79 	0.058931 	4921 	0.057979
36.81 	0.057567 	4916 	0.057090
36.83 	0.054120 	4915 	0.053286
36.85 	0.056758 	4898 	0.055562
36.87 	0.055016 	4944 	0.054068
36.89 	0.056143 	4916 	0.055071
36.91 	0.053026 	4941 	0.051939
36.93 	0.058824 	4930 	0.058229
36.95 	0.049057 	4933 	0.048464
36.97 	0.053912 	4934 	0.052368
36.99 	0.057751 	4935 	0.056920
37.01 	0.054733 	4933 	0.053645
37.03 	0.051990 	4924 	0.051395
37.05 	0.053785 	4927 	0.053429
37.07 	0.054306 	4935 	0.052644
37.09 	0.048904 	4928 	0.048429
37.11 	0.059777 	4935 	0.059184
37.13 	0.049959 	4924 	0.049127
37.15 	0.052964 	4909 	0.052228
37.17 	0.049858 	4934 	0.049027
37.19 	0.050761 	4925 	0.049810
37.21 	0.057352 	4917 	0.056161
37.23 	0.050224 	4918 	0.049152
37.25 	0.054368 	4911 	0.053294
37.27 	0.057417 	4894 	0.056460
37.29 	0.046450 	4930 	0.045975
37.31 	0.051874 	4935 	0.051043
37.33 	0.061701 	4927 	0.060750
37.35 	0.053665 	4938 	0.052816
37.37 	0.048305 	4927 	0.048067
37.39 	0.049888 	4931 	0.048938
37.41 	0.055972 	4931 	0.055003
37.43 	0.051703 	4932 	0.050991
37.45 	0.051990 	4924 	0.051395
37.47 	0.055184 	4929 	0.054589
37.49 	0.050173 	4923 	0.049697
37.51 	0.054531 	4933 	0.053581
37.53 	0.052043 	4919 	0.051090
37.55 	0.055375 	4930 	0.054662
37.57 	0.049543 	4925 	0.048116
37.59 	0.048830 	4915 	0.048234
37.61 	0.055668 	4922 	0.054835
37.63 	0.050620 	4919 	0.050144
37.65 	0.054087 	4918 	0.053491
37.67 	0.050775 	4904 	0.050058
37.69 	0.050429 	4898 	0.049711
37.71 	0.052343 	4929 	0.051630
37.73 	0.050720 	4929 	0.049769
37.75 	0.049393 	4940 	0.047851
37.77 	0.051423 	4920 	0.050947
37.79 	0.053144 	4930 	0.052312
37.81 	0.065275 	4933 	0.064206
37.83 	0.056098 	4920 	0.055502
37.85 	0.053230 	4922 	0.052259
37.87 	0.054869 	4939 	0.053802
37.89 	0.049137 	4925 	0.048899
37.91 	0.052333 	4930 	0.051620
37.93 	0.052043 	4919 	0.051448
37.95 	0.051412 	4921 	0.050817
37.97 	0.048489 	4929 	0.047775
37.99 	0.051710 	4912 	0.050637
38.01 	0.045455 	4928 	0.045336
38.03 	0.053982 	4909 	0.053386
38.05 	0.055431 	4925 	0.054837
38.07 	0.052760 	4909 	0.052164
38.09 	0.056786 	4878 	0.056065
38.11 	0.054306 	4935 	0.053712
38.13 	0.057120 	4937 	0.056170
38.15 	0.056527 	4918 	0.055812
38.17 	0.054361 	4930 	0.053648
38.19 	0.051724 	4930 	0.050774
38.21 	0.047532 	4923 	0.047056
38.23 	0.052855 	4938 	0.052025
38.25 	0.047387 	4917 	0.046791
38.27 	0.058418 	4930 	0.057348
38.29 	0.058895 	4924 	0.058181
38.31 	0.058047 	4927 	0.056977
38.33 	0.061535 	4924 	0.060465
38.35 	0.060268 	4928 	0.059198
38.37 	0.065597 	4924 	0.063932
38.39 	0.063149 	4909 	0.061717
38.41 	0.060735 	4923 	0.059426
38.43 	0.067535 	4916 	0.066343
38.45 	0.064050 	4918 	0.062978
38.47 	0.061749 	4907 	0.061032
38.49 	0.067665 	4877 	0.066564
38.51 	0.063666 	4932 	0.062834
38.53 	0.061676 	4929 	0.060250
38.55 	0.065843 	4936 	0.064893
38.57 	0.063782 	4923 	0.062711
38.59 	0.058895 	4924 	0.058300
38.61 	0.061994 	4936 	0.060451
38.63 	0.060317 	4924 	0.059127
38.65 	0.057544 	4918 	0.056591
38.67 	0.054284 	4937 	0.053335
38.69 	0.056684 	4922 	0.055732
38.71 	0.059098 	4924 	0.058385
38.73 	0.060594 	4918 	0.059760
38.75 	0.051553 	4927 	0.051058
38.77 	0.060532 	4923 	0.058985
38.79 	0.048845 	4934 	0.047895
38.81 	0.049471 	4912 	0.049232
38.83 	0.047774 	4919 	0.047159
38.85 	0.044788 	4912 	0.044431
38.87 	0.053553 	4911 	0.052838
38.89 	0.047784 	4897 	0.047425
38.91 	0.049358 	4903 	0.048880
38.93 	0.052855 	4938 	0.051669
38.95 	0.053070 	4918 	0.051998
38.97 	0.047252 	4931 	0.046163
38.99 	0.053474 	4937 	0.052861
39.01 	0.045547 	4918 	0.044713
39.03 	0.050669 	4934 	0.050075
39.05 	0.054416 	4925 	0.053822
39.07 	0.049350 	4924 	0.048160
39.09 	0.044079 	4923 	0.043246
39.11 	0.047455 	4931 	0.046980
39.13 	0.048141 	4923 	0.047546
39.15 	0.042930 	4915 	0.042334
39.17 	0.042536 	4937 	0.042180
39.19 	0.043929 	4917 	0.043572
39.21 	0.046843 	4910 	0.045750
39.23 	0.048934 	4925 	0.048220
39.25 	0.038805 	4922 	0.038567
39.27 	0.044807 	4910 	0.043494
39.29 	0.046725 	4901 	0.046128
39.31 	0.041769 	4884 	0.041049
39.33 	0.041574 	4931 	0.041099
39.35 	0.040527 	4935 	0.040171
39.37 	0.046460 	4929 	0.045509
39.39 	0.047880 	4929 	0.047405
39.41 	0.046441 	4931 	0.045728
39.43 	0.045003 	4933 	0.044291
39.45 	0.039594 	4925 	0.039237
39.47 	0.048954 	4923 	0.048359
39.49 	0.043787 	4933 	0.043055
39.51 	0.048132 	4924 	0.047299
39.53 	0.041844 	4923 	0.041011
39.55 	0.046351 	4919 	0.045755
39.57 	0.051085 	4933 	0.050610
39.59 	0.046621 	4912 	0.045547
39.61 	0.044079 	4923 	0.042889
39.63 	0.044900 	4922 	0.044662
39.65 	0.041413 	4926 	0.040818
39.67 	0.042947 	4913 	0.042232
39.69 	0.040277 	4916 	0.039919
39.71 	0.047804 	4895 	0.047086
39.73 	0.041769 	4908 	0.041291
39.75 	0.041802 	4928 	0.041564
39.77 	0.043972 	4935 	0.043734
39.79 	0.040398 	4926 	0.039328
39.81 	0.045667 	4927 	0.044716
39.83 	0.043170 	4934 	0.042576
39.85 	0.045870 	4927 	0.045375
39.87 	0.042234 	4925 	0.041639
39.89 	0.042156 	4934 	0.042038
39.91 	0.044291 	4922 	0.043934
39.93 	0.041523 	4937 	0.041049
39.95 	0.045371 	4915 	0.044895
39.97 	0.042411 	4928 	0.041341
39.99 	0.050892 	4932 	0.050061
40.01 	0.043920 	4918 	0.043801
40.03 	0.047890 	4928 	0.047058
40.05 	0.044133 	4917 	0.043537
40.07 	0.047938 	4923 	0.047224
40.09 	0.041701 	4916 	0.041224
40.11 	0.041904 	4916 	0.041070
40.13 	0.040441 	4896 	0.039963
40.15 	0.047832 	4913 	0.047355
40.17 	0.040990 	4928 	0.040396
40.19 	0.038142 	4929 	0.037666
40.21 	0.041540 	4935 	0.041184
40.23 	0.047445 	4932 	0.046970
40.25 	0.041057 	4920 	0.040819
40.27 	0.044967 	4937 	0.044017
40.29 	0.044652 	4927 	0.044295
40.31 	0.043734 	4939 	0.043378
40.33 	0.047040 	4932 	0.046446
40.35 	0.047571 	4919 	0.046975
40.37 	0.043214 	4929 	0.042144
40.39 	0.041371 	4931 	0.040896
40.41 	0.040406 	4925 	0.039574
40.43 	0.043885 	4922 	0.043528
40.45 	0.041354 	4933 	0.040998
40.47 	0.043107 	4918 	0.042392
40.49 	0.039992 	4926 	0.039259
40.51 	0.044697 	4922 	0.043983
40.53 	0.040480 	4916 	0.040003
40.55 	0.047474 	4908 	0.047115
40.57 	0.046012 	4890 	0.045773
40.59 	0.043751 	4937 	0.043039
40.61 	0.036272 	4935 	0.035678
40.63 	0.045233 	4930 	0.044639
40.65 	0.042131 	4937 	0.041419
40.67 	0.041565 	4932 	0.041209
40.69 	0.049828 	4937 	0.049235
40.71 	0.050487 	4932 	0.049893
40.73 	0.041413 	4926 	0.040580
40.75 	0.041574 	4931 	0.041099
40.77 	0.041506 	4939 	0.041151
40.79 	0.042851 	4924 	0.041999
40.81 	0.049180 	4941 	0.048568
40.83 	0.041802 	4928 	0.041564
40.85 	0.042851 	4924 	0.042375
40.87 	0.042614 	4928 	0.042138
40.89 	0.044007 	4931 	0.043057
40.91 	0.033110 	4923 	0.033110
40.93 	0.043373 	4934 	0.043135
40.95 	0.039284 	4913 	0.038807
40.97 	0.045898 	4924 	0.045303
40.99 	0.040414 	4924 	0.040414
41.01 	0.043567 	4912 	0.043090
41.03 	0.042610 	4905 	0.042012
41.05 	0.035251 	4936 	0.034777
41.07 	0.044016 	4930 	0.043422
41.09 	0.037659 	4939 	0.037304
41.11 	0.045593 	4935 	0.044881
41.13 	0.046799 	4936 	0.046206
41.15 	0.044525 	4941 	0.043696
41.17 	0.042156 	4934 	0.041800
41.19 	0.042596 	4930 	0.042121
41.21 	0.042333 	4937 	0.041602
41.23 	0.047378 	4939 	0.046666
41.25 	0.043381 	4933 	0.042669
41.27 	0.040357 	4931 	0.039763
41.29 	0.040990 	4928 	0.040515
41.31 	0.037908 	4933 	0.037552
41.33 	0.043549 	4937 	0.042599
41.35 	0.040907 	4938 	0.040314
41.37 	0.039805 	4924 	0.039091
41.39 	0.037097 	4933 	0.037097
41.41 	0.047097 	4926 	0.046502
41.43 	0.039359 	4929 	0.039121
41.45 	0.040700 	4914 	0.040462
41.47 	0.035323 	4926 	0.034966
41.49 	0.035977 	4892 	0.035618
41.51 	0.039676 	4940 	0.039439
41.53 	0.039846 	4944 	0.039372
41.55 	0.042553 	4935 	0.041960
41.57 	0.041490 	4941 	0.040660
41.59 	0.037503 	4933 	0.037146
41.61 	0.038764 	4953 	0.038528
41.63 	0.038882 	4938 	0.038526
41.65 	0.037330 	4929 	0.036974
41.67 	0.042713 	4940 	0.041863
41.69 	0.038609 	4947 	0.037899
41.71 	0.041954 	4934 	0.041835
41.73 	0.039303 	4936 	0.038947
41.75 	0.039156 	4929 	0.038799
41.77 	0.044323 	4941 	0.043612
41.79 	0.042880 	4944 	0.041814
41.81 	0.035454 	4936 	0.035098
41.83 	0.044237 	4928 	0.043643
41.85 	0.039887 	4939 	0.039531
41.87 	0.040324 	4935 	0.039731
41.89 	0.044598 	4933 	0.044123
41.91 	0.038695 	4936 	0.038102
41.93 	0.042782 	4932 	0.042050
41.95 	0.036098 	4931 	0.035623
41.97 	0.039683 	4914 	0.038729
41.99 	0.039755 	4905 	0.039636
42.01 	0.037839 	4942 	0.037602
42.03 	0.039077 	4939 	0.038840
42.05 	0.038570 	4952 	0.038097
42.07 	0.039093 	4937 	0.038737
42.09 	0.037793 	4948 	0.037201
42.11 	0.039838 	4945 	0.039364
42.13 	0.040040 	4945 	0.039922
42.15 	0.033819 	4938 	0.033701
42.17 	0.037210 	4918 	0.036853
42.19 	0.038509 	4908 	0.037912
42.21 	0.039380 	4901 	0.039021
42.23 	0.038226 	4892 	0.037986
42.25 	0.037226 	4889 	0.036867
42.27 	0.037136 	4874 	0.036655
42.29 	0.039482 	4863 	0.039120
42.31 	0.038311 	4855 	0.037949
42.33 	0.044063 	4834 	0.043336
42.35 	0.037412 	4838 	0.037049
42.37 	0.038095 	4830 	0.038095
42.39 	0.038926 	4804 	0.038804
42.41 	0.041424 	4804 	0.040936
42.43 	0.041945 	4792 	0.041334
42.45 	0.038735 	4776 	0.037877
42.47 	0.036516 	4765 	0.035881
42.49 	0.041973 	4765 	0.041112
42.51 	0.044065 	4743 	0.043694
42.53 	0.042090 	4728 	0.041099
42.55 	0.035259 	4708 	0.034637
42.57 	0.037632 	4730 	0.037384
42.59 	0.033622 	4729 	0.033003
42.61 	0.037383 	4708 	0.037134
42.63 	0.038012 	4709 	0.037639
42.65 	0.042049 	4685 	0.041299
42.67 	0.039283 	4684 	0.038657
42.69 	0.041292 	4674 	0.041042
42.71 	0.036028 	4663 	0.035903
42.73 	0.038147 	4640 	0.038020
42.75 	0.037037 	4617 	0.036910
42.77 	0.039130 	4600 	0.038494
42.79 	0.034046 	4582 	0.032896
42.81 	0.041648 	4562 	0.041520
42.83 	0.038580 	4536 	0.038451
42.85 	0.038428 	4528 	0.038039
42.87 	0.037342 	4499 	0.036821
42.89 	0.041295 	4480 	0.041012
42.91 	0.036804 	4456 	0.036673
42.93 	0.035313 	4446 	0.035049
42.95 	0.034194 	4416 	0.033929
42.97 	0.032038 	4401 	0.031639
42.99 	0.036488 	4385 	0.035798
43.01 	0.038506 	4363 	0.037969
43.03 	0.033464 	4333 	0.033059
43.05 	0.030289 	4325 	0.030154
43.07 	0.034218 	4296 	0.033536
43.09 	0.041093 	4283 	0.040682
43.11 	0.037368 	4255 	0.036542
43.13 	0.032806 	4237 	0.032806
43.15 	0.039943 	4206 	0.039525
43.17 	0.035415 	4179 	0.034714
43.19 	0.033858 	4194 	0.033579
43.21 	0.034036 	4172 	0.033756
43.23 	0.036832 	4154 	0.036409
43.25 	0.042563 	4135 	0.041974
43.27 	0.039220 	4105 	0.039078
43.29 	0.037073 	4100 	0.036787
43.31 	0.034567 	4079 	0.034136
43.33 	0.039250 	4051 	0.038527
43.35 	0.035714 	4032 	0.035569
43.37 	0.036613 	4015 	0.036175
43.39 	0.037231 	4002 	0.036500
43.41 	0.035750 	3972 	0.035603
43.43 	0.040657 	3960 	0.040213
43.45 	0.042440 	3935 	0.041993
43.47 	0.044887 	3921 	0.044438
43.49 	0.036695 	3897 	0.036244
43.51 	0.038948 	3877 	0.038192
43.53 	0.039348 	3863 	0.038741
43.55 	0.040486 	2964 	0.040486
43.57 	0.040214 	2238 	0.039167
43.59 	0.034937 	1746 	0.033595
43.61 	0.027387 	1351 	0.026954
43.63 	0.039960 	1001 	0.039375
43.65 	0.032023 	687 	0.032023
43.67 	0.035857 	502 	0.035857
43.69 	0.043597 	367 	0.042001
43.71 	0.046025 	239 	0.046025
43.73 	0.050000 	120 	0.050000
43.75 	0.125000 	16 	0.125000