File: Example_Data/25SC_s1_0002.000.dat
#F C:\frames\spec\25SC_s1_0002.000
#C title =s:2 frm:0 25SC_s1
#C wavelength =0.15406

#S 1  fr_average C:\frames\spec\25SC_s1_0002.000 C:\win32app\speccom\mask.axs chi 0 180 0 360 0.02
#C 2 theta =0.000000 to 180 deg
#C   q   =0.000000 to 81.568 nm^-1
#C  chi  =0.000000 to 360 deg
#C collumns:
#C  1 position (2theta or chi in degrees)
#C  2 average intensity (sum of all counts in the region divided with number of pixels)
#C  3 Number of pixels in region)
#C  4 error (sum of sqrt(intensity) for all pixels divided by number)
#N 4
#L TTh  Int  N_pix  Err
32.99 	0.098361 	61 	0.098361
33.01 	0.071019 	873 	0.069006
33.03 	0.076204 	1391 	0.074941
33.05 	0.082527 	1757 	0.079805
33.07 	0.069268 	2050 	0.067554
33.09 	0.070303 	2347 	0.069055
33.11 	0.072121 	2579 	0.069850
33.13 	0.080917 	2793 	0.078785
33.15 	0.070023 	2999 	0.068851
33.17 	0.068729 	3201 	0.067265
33.19 	0.078695 	3342 	0.078345
33.21 	0.078580 	3436 	0.077216
33.23 	0.070395 	3523 	0.068704
33.25 	0.072536 	3612 	0.071239
33.27 	0.076860 	3630 	0.075246
33.29 	0.069353 	3648 	0.067426
33.31 	0.068306 	3660 	0.067826
33.33 	0.080846 	3686 	0.079072
33.35 	0.070114 	3694 	0.068687
33.37 	0.068121 	3714 	0.067017
33.39 	0.065701 	3729 	0.064079
33.41 	0.068984 	3740 	0.068044
33.43 	0.069131 	3761 	0.067885
33.45 	0.069441 	3773 	0.067578
33.47 	0.075566 	3798 	0.073870
33.49 	0.075610 	3809 	0.073765
33.51 	0.074967 	3815 	0.072332
33.53 	0.079146 	3841 	0.077163
33.55 	0.074161 	3843 	0.072637
33.57 	0.077895 	3877 	0.076511
33.59 	0.078093 	3880 	0.075677
33.61 	0.075723 	3909 	0.073924
33.63 	0.068385 	3919 	0.066890
33.65 	0.067413 	3931 	0.065749
33.67 	0.075620 	3954 	0.074434
33.69 	0.081457 	3953 	0.078024
33.71 	0.073711 	3975 	0.072090
33.73 	0.065934 	4004 	0.065495
33.75 	0.073268 	3999 	0.071486
33.77 	0.065093 	4025 	0.063347
33.79 	0.069537 	4041 	0.067943
33.81 	0.069837 	4038 	0.068241
33.83 	0.064198 	4050 	0.063185
33.85 	0.069773 	4099 	0.068201
33.87 	0.079543 	4111 	0.077548
33.89 	0.066489 	4121 	0.065778
33.91 	0.072307 	4149 	0.070471
33.93 	0.071067 	4151 	0.068645
33.95 	0.070796 	4181 	0.069676
33.97 	0.071122 	4190 	0.069561
33.99 	0.074524 	4200 	0.072525
34.01 	0.066461 	4213 	0.065210
34.03 	0.068332 	4244 	0.066929
34.05 	0.073142 	4252 	0.072040
34.07 	0.072634 	4268 	0.070849
34.09 	0.078161 	4286 	0.075269
34.11 	0.069270 	4302 	0.067228
34.13 	0.067084 	4308 	0.065725
34.15 	0.071808 	4331 	0.070568
34.17 	0.071494 	4350 	0.069609
34.19 	0.073819 	4362 	0.072432
34.21 	0.073439 	4371 	0.071696
34.23 	0.077851 	4393 	0.075584
34.25 	0.072661 	4404 	0.071043
34.27 	0.071687 	4422 	0.071025
34.29 	0.065163 	4435 	0.063182
34.31 	0.070884 	4458 	0.069307
34.33 	0.073809 	4471 	0.071713
34.35 	0.072926 	4484 	0.071358
34.37 	0.067246 	4491 	0.065941
34.39 	0.070413 	4502 	0.068310
34.41 	0.073354 	4526 	0.071801
34.43 	0.071822 	4539 	0.070402
34.45 	0.066814 	4535 	0.065005
34.47 	0.069686 	4592 	0.068156
34.49 	0.071568 	4597 	0.068851
34.51 	0.070343 	4606 	0.068817
34.53 	0.067844 	4643 	0.065952
34.55 	0.063967 	4643 	0.062579
34.57 	0.067382 	4660 	0.065999
34.59 	0.081070 	4675 	0.079315
34.61 	0.063871 	4697 	0.062249
34.63 	0.068365 	4710 	0.067370
34.65 	0.068418 	4721 	0.067156
34.67 	0.070660 	4741 	0.069425
34.69 	0.072991 	4754 	0.071492
34.71 	0.069660 	4766 	0.067816
34.73 	0.068310 	4787 	0.066474
34.75 	0.064060 	4808 	0.062842
34.77 	0.074305 	4818 	0.072441
34.79 	0.069030 	4824 	0.067067
34.81 	0.077606 	4845 	0.075913
34.83 	0.071370 	4862 	0.070045
34.85 	0.065927 	4869 	0.064724
34.87 	0.072514 	4868 	0.071311
34.89 	0.067390 	4882 	0.065831
34.91 	0.073945 	4882 	0.071526
34.93 	0.068790 	4899 	0.067235
34.95 	0.078528 	4890 	0.076731
34.97 	0.074459 	4902 	0.072667
34.99 	0.073310 	4897 	0.071516
35.01 	0.074751 	4923 	0.072252
35.03 	0.077079 	4943 	0.075637
35.05 	0.073984 	4947 	0.071734
35.07 	0.068421 	4940 	0.066880
35.09 	0.071068 	4953 	0.069885
35.11 	0.066303 	4947 	0.065592
35.13 	0.067971 	4958 	0.065924
35.15 	0.068463 	4937 	0.067494
35.17 	0.069147 	4946 	0.067844
35.19 	0.078511 	4942 	0.077661
35.21 	0.069565 	4945 	0.068736
35.23 	0.076643 	4945 	0.074985
35.25 	0.067975 	4943 	0.067007
35.27 	0.075384 	4948 	0.073470
35.29 	0.071790 	4945 	0.070131
35.31 	0.076221 	4933 	0.075153
35.33 	0.074651 	4943 	0.073110
35.35 	0.067786 	4942 	0.066344
35.37 	0.075724 	4939 	0.072976
35.39 	0.072396 	4945 	0.070718
35.41 	0.066179 	4926 	0.064752
35.43 	0.074194 	4933 	0.072769
35.45 	0.073932 	4937 	0.073101
35.47 	0.068140 	4931 	0.067428
35.49 	0.070468 	4910 	0.068917
35.51 	0.068413 	4926 	0.067104
35.53 	0.071934 	4949 	0.070376
35.55 	0.075025 	4945 	0.073821
35.57 	0.074397 	4933 	0.073447
35.59 	0.076643 	4945 	0.075676
35.61 	0.070822 	4942 	0.069498
35.63 	0.070200 	4943 	0.069252
35.65 	0.076441 	4945 	0.074309
35.67 	0.071024 	4942 	0.070313
35.69 	0.074606 	4946 	0.072810
35.71 	0.071096 	4937 	0.068485
35.73 	0.070300 	4936 	0.069113
35.75 	0.070168 	4931 	0.069218
35.77 	0.068269 	4951 	0.067323
35.79 	0.069140 	4932 	0.068428
35.81 	0.070545 	4933 	0.068626
35.83 	0.079256 	4946 	0.077460
35.85 	0.067072 	4935 	0.065410
35.87 	0.076376 	4923 	0.074115
35.89 	0.077625 	4934 	0.075844
35.91 	0.073270 	4927 	0.070872
35.93 	0.075299 	4927 	0.074229
35.95 	0.075453 	4917 	0.073785
35.97 	0.067793 	4912 	0.067316
35.99 	0.073294 	4939 	0.071614
36.01 	0.070183 	4930 	0.068876
36.03 	0.070807 	4943 	0.069622
36.05 	0.076441 	4945 	0.075118
36.07 	0.074307 	4939 	0.072172
36.09 	0.078340 	4940 	0.076443
36.11 	0.068574 	4929 	0.067385
36.13 	0.070417 	4942 	0.068876
36.15 	0.070055 	4939 	0.068612
36.17 	0.075330 	4925 	0.073546
36.19 	0.078340 	4940 	0.077036
36.21 	0.077095 	4929 	0.074679
36.23 	0.072340 	4935 	0.071510
36.25 	0.073872 	4941 	0.073397
36.27 	0.075127 	4925 	0.073700
36.29 	0.074833 	4931 	0.072675
36.31 	0.073255 	4928 	0.071452
36.33 	0.072572 	4933 	0.070672
36.35 	0.080747 	4929 	0.079202
36.37 	0.076173 	4923 	0.074745
36.39 	0.073969 	4921 	0.072164
36.41 	0.075163 	4896 	0.073967
36.43 	0.071023 	4928 	0.069240
36.45 	0.072819 	4930 	0.071512
36.47 	0.074352 	4936 	0.072671
36.49 	0.074868 	4942 	0.073683
36.51 	0.064058 	4933 	0.063346
36.53 	0.072223 	4943 	0.070683
36.55 	0.070225 	4927 	0.067966
36.57 	0.080462 	4934 	0.077910
36.59 	0.076736 	4939 	0.074245
36.61 	0.079497 	4931 	0.077715
36.63 	0.076252 	4931 	0.075421
36.65 	0.070357 	4932 	0.069525
36.67 	0.083570 	4930 	0.082025
36.69 	0.070805 	4929 	0.069617
36.71 	0.075188 	4921 	0.073998
36.73 	0.078376 	4925 	0.076572
36.75 	0.068972 	4944 	0.067294
36.77 	0.083350 	4919 	0.081207
36.79 	0.073969 	4921 	0.073612
36.81 	0.076688 	4916 	0.074663
36.83 	0.076704 	4915 	0.074797
36.85 	0.075949 	4898 	0.073318
36.87 	0.073625 	4944 	0.072084
36.89 	0.075468 	4916 	0.074038
36.91 	0.081765 	4941 	0.079749
36.93 	0.076471 	4930 	0.074807
36.95 	0.079668 	4933 	0.078005
36.97 	0.078030 	4934 	0.075636
36.99 	0.077204 	4935 	0.075661
37.01 	0.075411 	4933 	0.073867
37.03 	0.076564 	4924 	0.075017
37.05 	0.072052 	4927 	0.070744
37.07 	0.073759 	4935 	0.072097
37.09 	0.065341 	4928 	0.064608
37.11 	0.080851 	4935 	0.078952
37.13 	0.075751 	4924 	0.074324
37.15 	0.071501 	4909 	0.069930
37.17 	0.073774 	4934 	0.071874
37.19 	0.069239 	4925 	0.067930
37.21 	0.077080 	4917 	0.075173
37.23 	0.070557 	4918 	0.069604
37.25 	0.072083 	4911 	0.070155
37.27 	0.073968 	4894 	0.072053
37.29 	0.070588 	4930 	0.068806
37.31 	0.070517 	4935 	0.068618
37.33 	0.076314 	4927 	0.074293
37.35 	0.071081 	4938 	0.070350
37.37 	0.073067 	4927 	0.071878
37.39 	0.071385 	4931 	0.070078
37.41 	0.070371 	4931 	0.069302
37.43 	0.070762 	4932 	0.069693
37.45 	0.073721 	4924 	0.072412
37.47 	0.071008 	4929 	0.070058
37.49 	0.072720 	4923 	0.071411
37.51 	0.069532 	4933 	0.068463
37.53 	0.075625 	4919 	0.073601
37.55 	0.076268 	4930 	0.075198
37.57 	0.060508 	4925 	0.058842
37.59 	0.068566 	4915 	0.067851
37.61 	0.066436 	4922 	0.064889
37.63 	0.058752 	4919 	0.057799
37.65 	0.070964 	4918 	0.069892
37.67 	0.067292 	4904 	0.066456
37.69 	0.066149 	4898 	0.064455
37.71 	0.063502 	4929 	0.062432
37.73 	0.070197 	4929 	0.069127
37.75 	0.072267 	4940 	0.071180
37.77 	0.067073 	4920 	0.066002
37.79 	0.067951 	4930 	0.067001
37.81 	0.071559 	4933 	0.070015
37.83 	0.069309 	4920 	0.067880
37.85 	0.067859 	4922 	0.066530
37.87 	0.067423 	4939 	0.065980
37.89 	0.072081 	4925 	0.070773
37.91 	0.066126 	4930 	0.065056
37.93 	0.065867 	4919 	0.064438
37.95 	0.065231 	4921 	0.064754
37.97 	0.070400 	4929 	0.069449
37.99 	0.066164 	4912 	0.064853
38.01 	0.061891 	4928 	0.060584
38.03 	0.064168 	4909 	0.062975
38.05 	0.063959 	4925 	0.063008
38.07 	0.073335 	4909 	0.072002
38.09 	0.067241 	4878 	0.065800
38.11 	0.071935 	4935 	0.070392
38.13 	0.067247 	4937 	0.066061
38.15 	0.071980 	4918 	0.069698
38.17 	0.077485 	4930 	0.075564
38.19 	0.075862 	4930 	0.074555
38.21 	0.073329 	4923 	0.071168
38.23 	0.087080 	4938 	0.085656
38.25 	0.075453 	4917 	0.073665
38.27 	0.078296 	4930 	0.076989
38.29 	0.085703 	4924 	0.083561
38.31 	0.077532 	4927 	0.076105
38.33 	0.083672 	4924 	0.081411
38.35 	0.090097 	4928 	0.087205
38.37 	0.093623 	4924 	0.091839
38.39 	0.096150 	4909 	0.093505
38.41 	0.090798 	4923 	0.088875
38.43 	0.097437 	4916 	0.093743
38.45 	0.101464 	4918 	0.098348
38.47 	0.094355 	4907 	0.092306
38.49 	0.107238 	4877 	0.104115
38.51 	0.096918 	4932 	0.094048
38.53 	0.096166 	4929 	0.093789
38.55 	0.101702 	4936 	0.098558
38.57 	0.103392 	4923 	0.100536
38.59 	0.091998 	4924 	0.089857
38.61 	0.096434 	4936 	0.093191
38.63 	0.090171 	4924 	0.087791
38.65 	0.092924 	4918 	0.090661
38.67 	0.091756 	4937 	0.089601
38.69 	0.079033 	4922 	0.077248
38.71 	0.087937 	4924 	0.085280
38.73 	0.081741 	4918 	0.080073
38.75 	0.078750 	4927 	0.076847
38.77 	0.073126 	4923 	0.071272
38.79 	0.063235 	4934 	0.062166
38.81 	0.069829 	4912 	0.067921
38.83 	0.066274 	4919 	0.065659
38.85 	0.069015 	4912 	0.068299
38.87 	0.073101 	4911 	0.070835
38.89 	0.060649 	4897 	0.059692
38.91 	0.064246 	4903 	0.062932
38.93 	0.068044 	4938 	0.066739
38.95 	0.061000 	4918 	0.059551
38.97 	0.059623 	4931 	0.058078
38.99 	0.068058 	4937 	0.066396
39.01 	0.055307 	4918 	0.054354
39.03 	0.059181 	4934 	0.058588
39.05 	0.060508 	4925 	0.059437
39.07 	0.060723 	4924 	0.059890
39.09 	0.055454 	4923 	0.054502
39.11 	0.055567 	4931 	0.054498
39.13 	0.061751 	4923 	0.060561
39.15 	0.059410 	4915 	0.058576
39.17 	0.059145 	4937 	0.057583
39.19 	0.058979 	4917 	0.057430
39.21 	0.059267 	4910 	0.057597
39.23 	0.054822 	4925 	0.053752
39.25 	0.054653 	4922 	0.054296
39.27 	0.058656 	4910 	0.057940
39.29 	0.059784 	4901 	0.058788
39.31 	0.054668 	4884 	0.053589
39.33 	0.052728 	4931 	0.051658
39.35 	0.055319 	4935 	0.054370
39.37 	0.055792 	4929 	0.054604
39.39 	0.059241 	4929 	0.058409
39.41 	0.053336 	4931 	0.052386
39.43 	0.058990 	4933 	0.058040
39.45 	0.054619 	4925 	0.053906
39.47 	0.057079 	4923 	0.056960
39.49 	0.054936 	4933 	0.053749
39.51 	0.063363 	4924 	0.062035
39.53 	0.056470 	4923 	0.055518
39.55 	0.052246 	4919 	0.051294
39.57 	0.053112 	4933 	0.051805
39.59 	0.053339 	4912 	0.052504
39.61 	0.060532 	4923 	0.059680
39.63 	0.058106 	4922 	0.057511
39.65 	0.064149 	4926 	0.062960
39.67 	0.058009 	4913 	0.057294
39.69 	0.049430 	4916 	0.048835
39.71 	0.054750 	4895 	0.053673
39.73 	0.060921 	4908 	0.059847
39.75 	0.053166 	4928 	0.052096
39.77 	0.054711 	4935 	0.053742
39.79 	0.054811 	4926 	0.054098
39.81 	0.053785 	4927 	0.053191
39.83 	0.054520 	4934 	0.053332
39.85 	0.057845 	4927 	0.056517
39.87 	0.055838 	4925 	0.054529
39.89 	0.055736 	4934 	0.055261
39.91 	0.055059 	4922 	0.053730
39.93 	0.054487 	4937 	0.053280
39.95 	0.053306 	4915 	0.052114
39.97 	0.053166 	4928 	0.052571
39.99 	0.055758 	4932 	0.054689
40.01 	0.052664 	4918 	0.051353
40.03 	0.059253 	4928 	0.058302
40.05 	0.050844 	4917 	0.050229
40.07 	0.057485 	4923 	0.056295
40.09 	0.049430 	4916 	0.048835
40.11 	0.048820 	4916 	0.047867
40.13 	0.050245 	4896 	0.049886
40.15 	0.052310 	4913 	0.052072
40.17 	0.056615 	4928 	0.055545
40.19 	0.057415 	4929 	0.056821
40.21 	0.055522 	4935 	0.054216
40.23 	0.059408 	4932 	0.058458
40.25 	0.048374 	4920 	0.047779
40.27 	0.052866 	4937 	0.052510
40.29 	0.055612 	4927 	0.054423
40.31 	0.053250 	4939 	0.052419
40.33 	0.045215 	4932 	0.044502
40.35 	0.052246 	4919 	0.051651
40.37 	0.052546 	4929 	0.052190
40.39 	0.055770 	4931 	0.054700
40.41 	0.051371 	4925 	0.050895
40.43 	0.054449 	4922 	0.053735
40.45 	0.053112 	4933 	0.052399
40.47 	0.056730 	4918 	0.055777
40.49 	0.050548 	4926 	0.049478
40.51 	0.044494 	4922 	0.043661
40.53 	0.054312 	4916 	0.053359
40.55 	0.053790 	4908 	0.053312
40.57 	0.050307 	4890 	0.049947
40.59 	0.050030 	4937 	0.049318
40.61 	0.054509 	4935 	0.053164
40.63 	0.052535 	4930 	0.052060
40.65 	0.053069 	4937 	0.052594
40.67 	0.050487 	4932 	0.049655
40.69 	0.049423 	4937 	0.048948
40.71 	0.053325 	4932 	0.052494
40.73 	0.051563 	4926 	0.050017
40.75 	0.047252 	4931 	0.046421
40.77 	0.052035 	4939 	0.050967
40.79 	0.051990 	4924 	0.050920
40.81 	0.051811 	4941 	0.051100
40.83 	0.055601 	4928 	0.054650
40.85 	0.049959 	4924 	0.049602
40.87 	0.049513 	4928 	0.049156
40.89 	0.051308 	4931 	0.050714
40.91 	0.056673 	4923 	0.055483
40.93 	0.049250 	4934 	0.048063
40.95 	0.053124 	4913 	0.052528
40.97 	0.051990 	4924 	0.050801
40.99 	0.053412 	4924 	0.052817
41.01 	0.054967 	4912 	0.054729
41.03 	0.054842 	4905 	0.053767
41.05 	0.052472 	4936 	0.051878
41.07 	0.056795 	4930 	0.056201
41.09 	0.049403 	4939 	0.048928
41.11 	0.056535 	4935 	0.055823
41.13 	0.050446 	4936 	0.049259
41.15 	0.049585 	4941 	0.048755
41.17 	0.062019 	4934 	0.060456
41.19 	0.053753 	4930 	0.052307
41.21 	0.056512 	4937 	0.055444
41.23 	0.054262 	4939 	0.053056
41.25 	0.051895 	4933 	0.051539
41.27 	0.049686 	4931 	0.048973
41.29 	0.053571 	4928 	0.052858
41.31 	0.050071 	4933 	0.049952
41.33 	0.052056 	4937 	0.051463
41.35 	0.054678 	4938 	0.053610
41.37 	0.051381 	4924 	0.050410
41.39 	0.050071 	4933 	0.049240
41.41 	0.051563 	4926 	0.050969
41.43 	0.050923 	4929 	0.050804
41.45 	0.054945 	4914 	0.053753
41.47 	0.053390 	4926 	0.052439
41.49 	0.052535 	4892 	0.052056
41.51 	0.051215 	4940 	0.050622
41.53 	0.058657 	4944 	0.056643
41.55 	0.054711 	4935 	0.053267
41.57 	0.045942 	4941 	0.045468
41.59 	0.052909 	4933 	0.051721
41.61 	0.048657 	4953 	0.047948
41.63 	0.050223 	4938 	0.049511
41.65 	0.050517 	4929 	0.050042
41.67 	0.053644 	4940 	0.052932
41.69 	0.052355 	4947 	0.051289
41.71 	0.049858 	4934 	0.049027
41.73 	0.051256 	4936 	0.050544
41.75 	0.048691 	4929 	0.048216
41.77 	0.044930 	4941 	0.044337
41.79 	0.055421 	4944 	0.054236
41.81 	0.050446 	4936 	0.049852
41.83 	0.052557 	4928 	0.051844
41.85 	0.052845 	4939 	0.052133
41.87 	0.048632 	4935 	0.047920
41.89 	0.047233 	4933 	0.046639
41.91 	0.049028 	4936 	0.048315
41.93 	0.052311 	4932 	0.052074
41.95 	0.048874 	4931 	0.047924
41.97 	0.050875 	4914 	0.049564
41.99 	0.050968 	4905 	0.050252
42.01 	0.051801 	4942 	0.051564
42.03 	0.056489 	4939 	0.055659
42.05 	0.052100 	4952 	0.051272
42.07 	0.043751 	4937 	0.042921
42.09 	0.047898 	4948 	0.047069
42.11 	0.045298 	4945 	0.044706
42.13 	0.046916 	4945 	0.046205
42.15 	0.047995 	4938 	0.047165
42.17 	0.047174 	4918 	0.046340
42.19 	0.053178 	4908 	0.052224
42.21 	0.043461 	4901 	0.043102
42.23 	0.049264 	4892 	0.048665
42.25 	0.050112 	4889 	0.049154
42.27 	0.047600 	4874 	0.046999
42.29 	0.049969 	4863 	0.049367
42.31 	0.046550 	4855 	0.046067
42.33 	0.052131 	4834 	0.051404
42.35 	0.052914 	4838 	0.051946
42.37 	0.043271 	4830 	0.042665
42.39 	0.046211 	4804 	0.044972
42.41 	0.053705 	4804 	0.052710
42.43 	0.050918 	4792 	0.050307
42.45 	0.047739 	4776 	0.047493
42.47 	0.052886 	4765 	0.050898
42.49 	0.048898 	4765 	0.048406
42.51 	0.044276 	4743 	0.043782
42.53 	0.047166 	4728 	0.046670
42.55 	0.044817 	4708 	0.044568
42.57 	0.045666 	4730 	0.045171
42.59 	0.047579 	4729 	0.046836
42.61 	0.048853 	4708 	0.048355
42.63 	0.052877 	4709 	0.051758
42.65 	0.048026 	4685 	0.047150
42.67 	0.043766 	4684 	0.043141
42.69 	0.046427 	4674 	0.045654
42.71 	0.045250 	4663 	0.044370
42.73 	0.048922 	4640 	0.048291
42.75 	0.047433 	4617 	0.046672
42.77 	0.045652 	4600 	0.045397
42.79 	0.046923 	4582 	0.046156
42.81 	0.043621 	4562 	0.042979
42.83 	0.046076 	4536 	0.045559
42.85 	0.046157 	4528 	0.045510
42.87 	0.044677 	4499 	0.043614
42.89 	0.052009 	4480 	0.051224
42.91 	0.051840 	4456 	0.051314
42.93 	0.045209 	4446 	0.044550
42.95 	0.056386 	4416 	0.055590
42.97 	0.044081 	4401 	0.043282
42.99 	0.043101 	4385 	0.042567
43.01 	0.047215 	4363 	0.046141
43.03 	0.047773 	4333 	0.046804
43.05 	0.044393 	4325 	0.043580
43.07 	0.042365 	4296 	0.042092
43.09 	0.049498 	4283 	0.049224
43.11 	0.047709 	4255 	0.047020
43.13 	0.048855 	4237 	0.048579
43.15 	0.043747 	4206 	0.043329
43.17 	0.045705 	4179 	0.045705
43.19 	0.049833 	4194 	0.048995
43.21 	0.051534 	4172 	0.051253
43.23 	0.048387 	4154 	0.047682
43.25 	0.050302 	4135 	0.049452
43.27 	0.050914 	4105 	0.049915
43.29 	0.046341 	4100 	0.046056
43.31 	0.047070 	4079 	0.046209
43.33 	0.044433 	4051 	0.044144
43.35 	0.044395 	4032 	0.043233
43.37 	0.043836 	4015 	0.043544
43.39 	0.050475 	4002 	0.049450
43.41 	0.043303 	3972 	0.042861
43.43 	0.043182 	3960 	0.042738
43.45 	0.047014 	3935 	0.046567
43.47 	0.043356 	3921 	0.042460
43.49 	0.041827 	3897 	0.041075
43.51 	0.042559 	3877 	0.042256
43.53 	0.047631 	3863 	0.047480
43.55 	0.051282 	2964 	0.050294
43.57 	0.038874 	2238 	0.038612
43.59 	0.049828 	1746 	0.047815
43.61 	0.036269 	1351 	0.035836
43.63 	0.048951 	1001 	0.048366
43.65 	0.053857 	687 	0.053857
43.67 	0.045817 	502 	0.043483
43.69 	0.040872 	367 	0.040872
43.71 	0.029289 	239 	0.029289
43.73 	0.016667 	120 	0.016667
43.75 	0.000000 	16 	0.000000