File: Example_Data/25SC_s1_0033.002.dat
#F C:\frames\spec\25SC_s1_0033.002
#C title =s:33 frm:2 25SC_s1
#C wavelength =0.15406

#S 1  fr_average C:\frames\spec\25SC_s1_0033.002 C:\win32app\speccom\mask.axs chi 0 180 0 360 0.02
#C 2 theta =0.000000 to 180 deg
#C   q   =0.000000 to 81.568 nm^-1
#C  chi  =0.000000 to 360 deg
#C collumns:
#C  1 position (2theta or chi in degrees)
#C  2 average intensity (sum of all counts in the region divided with number of pixels)
#C  3 Number of pixels in region)
#C  4 error (sum of sqrt(intensity) for all pixels divided by number)
#N 4
#L TTh  Int  N_pix  Err
32.99 	0.098361 	61 	0.098361
33.01 	0.037801 	873 	0.037130
33.03 	0.055356 	1391 	0.054514
33.05 	0.068298 	1757 	0.066965
33.07 	0.060000 	2050 	0.058000
33.09 	0.054538 	2347 	0.054288
33.11 	0.055448 	2579 	0.055221
33.13 	0.056928 	2793 	0.056718
33.15 	0.062021 	2999 	0.061239
33.17 	0.063105 	3201 	0.062739
33.19 	0.058648 	3342 	0.057771
33.21 	0.057043 	3436 	0.056361
33.23 	0.054783 	3523 	0.054450
33.25 	0.056202 	3612 	0.055228
33.27 	0.059780 	3630 	0.058973
33.29 	0.057018 	3648 	0.056215
33.31 	0.056831 	3660 	0.055710
33.33 	0.056158 	3686 	0.055046
33.35 	0.057390 	3694 	0.056730
33.37 	0.062197 	3714 	0.061408
33.39 	0.057924 	3729 	0.056799
33.41 	0.057219 	3740 	0.055183
33.43 	0.061420 	3761 	0.060485
33.45 	0.056984 	3773 	0.055897
33.47 	0.063454 	3798 	0.061912
33.49 	0.065371 	3809 	0.064449
33.51 	0.061075 	3815 	0.059360
33.53 	0.057016 	3841 	0.056406
33.55 	0.059068 	3843 	0.058459
33.57 	0.063967 	3877 	0.063212
33.59 	0.063660 	3880 	0.061395
33.61 	0.064722 	3909 	0.063049
33.63 	0.059199 	3919 	0.058003
33.65 	0.053167 	3931 	0.051975
33.67 	0.057916 	3954 	0.057027
33.69 	0.057425 	3953 	0.056832
33.71 	0.053585 	3975 	0.052995
33.73 	0.059441 	4004 	0.058709
33.75 	0.050013 	3999 	0.049134
33.77 	0.061615 	4025 	0.061033
33.79 	0.060629 	4041 	0.060049
33.81 	0.053739 	4038 	0.052555
33.83 	0.057778 	4050 	0.057055
33.85 	0.060747 	4099 	0.059460
33.87 	0.057650 	4111 	0.057365
33.89 	0.052657 	4121 	0.052089
33.91 	0.066281 	4149 	0.065152
33.93 	0.060708 	4151 	0.059720
33.95 	0.051423 	4181 	0.050162
33.97 	0.055609 	4190 	0.055049
33.99 	0.057619 	4200 	0.057480
34.01 	0.054593 	4213 	0.054037
34.03 	0.057493 	4244 	0.056389
34.05 	0.057855 	4252 	0.056753
34.07 	0.056467 	4268 	0.055918
34.09 	0.058096 	4286 	0.057003
34.11 	0.057648 	4302 	0.056014
34.13 	0.058728 	4308 	0.057232
34.15 	0.059109 	4331 	0.057463
34.17 	0.047356 	4350 	0.046257
34.19 	0.059376 	4362 	0.058168
34.21 	0.063601 	4371 	0.062529
34.23 	0.052811 	4393 	0.052545
34.25 	0.054950 	4404 	0.054285
34.27 	0.058571 	4422 	0.057070
34.29 	0.048478 	4435 	0.047818
34.31 	0.058322 	4458 	0.057928
34.33 	0.055692 	4471 	0.054906
34.35 	0.053524 	4484 	0.052326
34.37 	0.053440 	4491 	0.052918
34.39 	0.053754 	4502 	0.053103
34.41 	0.050155 	4526 	0.049249
34.43 	0.060806 	4539 	0.060161
34.45 	0.061522 	4535 	0.060746
34.47 	0.050523 	4592 	0.049205
34.49 	0.053078 	4597 	0.052420
34.51 	0.055580 	4606 	0.055198
34.53 	0.053629 	4643 	0.052872
34.55 	0.057937 	4643 	0.056675
34.57 	0.057940 	4660 	0.057186
34.59 	0.059893 	4675 	0.058640
34.61 	0.053225 	4697 	0.052851
34.63 	0.058599 	4710 	0.057583
34.65 	0.054226 	4721 	0.052489
34.67 	0.053997 	4741 	0.052885
34.69 	0.058056 	4754 	0.056824
34.71 	0.059169 	4766 	0.057694
34.73 	0.058283 	4787 	0.057182
34.75 	0.057820 	4808 	0.056846
34.77 	0.058946 	4818 	0.058095
34.79 	0.055348 	4824 	0.054863
34.81 	0.057792 	4845 	0.056220
34.83 	0.058206 	4862 	0.057363
34.85 	0.059150 	4869 	0.058067
34.87 	0.061832 	4868 	0.061091
34.89 	0.056534 	4882 	0.056174
34.91 	0.053052 	4882 	0.052572
34.93 	0.055930 	4899 	0.054973
34.95 	0.057669 	4890 	0.056591
34.97 	0.060180 	4902 	0.059582
34.99 	0.058607 	4897 	0.057511
35.01 	0.061345 	4923 	0.060631
35.03 	0.057657 	4943 	0.056591
35.05 	0.051142 	4947 	0.050195
35.07 	0.059109 	4940 	0.057568
35.09 	0.059560 	4953 	0.058732
35.11 	0.051546 	4947 	0.050244
35.13 	0.054457 	4958 	0.053512
35.15 	0.053271 	4937 	0.052678
35.17 	0.056814 	4946 	0.055274
35.19 	0.064144 	4942 	0.062959
35.21 	0.058241 	4945 	0.057293
35.23 	0.052578 	4945 	0.051512
35.25 	0.052802 	4943 	0.051972
35.27 	0.054163 	4948 	0.053453
35.29 	0.056421 	4945 	0.056065
35.31 	0.055342 	4933 	0.054273
35.33 	0.058467 	4943 	0.057400
35.35 	0.062121 	4942 	0.060817
35.37 	0.053857 	4939 	0.053145
35.39 	0.054803 	4945 	0.053974
35.41 	0.054405 	4926 	0.053910
35.43 	0.056761 	4933 	0.055573
35.45 	0.052866 	4937 	0.051897
35.47 	0.053133 	4931 	0.052420
35.49 	0.050713 	4910 	0.050236
35.51 	0.053999 	4926 	0.053405
35.53 	0.060820 	4949 	0.059873
35.55 	0.058241 	4945 	0.057056
35.57 	0.060409 	4933 	0.059578
35.59 	0.053792 	4945 	0.053199
35.61 	0.053217 	4942 	0.052388
35.63 	0.057657 	4943 	0.057183
35.65 	0.060667 	4945 	0.060312
35.67 	0.059490 	4942 	0.058186
35.69 	0.055196 	4946 	0.054367
35.71 	0.056917 	4937 	0.056205
35.73 	0.056524 	4936 	0.056049
35.75 	0.051916 	4931 	0.051085
35.77 	0.057968 	4951 	0.056903
35.79 	0.054339 	4932 	0.053270
35.81 	0.058180 	4933 	0.056616
35.83 	0.054994 	4946 	0.053810
35.85 	0.054103 	4935 	0.053154
35.87 	0.064595 	4923 	0.063524
35.89 	0.060397 	4934 	0.058834
35.91 	0.059874 	4927 	0.059042
35.93 	0.053988 	4927 	0.053275
35.95 	0.057352 	4917 	0.056399
35.97 	0.061686 	4912 	0.060255
35.99 	0.058109 	4939 	0.057516
36.01 	0.058621 	4930 	0.058145
36.03 	0.054623 	4943 	0.053418
36.05 	0.057230 	4945 	0.055690
36.07 	0.052642 	4939 	0.051693
36.09 	0.057490 	4940 	0.056423
36.11 	0.059038 	4929 	0.058206
36.13 	0.055645 	4942 	0.054934
36.15 	0.059729 	4939 	0.057693
36.17 	0.056650 	4925 	0.055936
36.19 	0.053239 	4940 	0.052765
36.21 	0.055589 	4929 	0.054757
36.23 	0.057953 	4935 	0.057122
36.25 	0.059097 	4941 	0.058218
36.27 	0.058071 	4925 	0.056644
36.29 	0.054350 	4931 	0.053400
36.31 	0.049513 	4928 	0.049038
36.33 	0.057977 	4933 	0.056889
36.35 	0.054169 	4929 	0.053575
36.37 	0.051798 	4923 	0.051441
36.39 	0.056899 	4921 	0.055828
36.41 	0.053105 	4896 	0.052506
36.43 	0.051948 	4928 	0.051473
36.45 	0.056187 	4930 	0.055236
36.47 	0.062399 	4936 	0.061093
36.49 	0.057871 	4942 	0.057042
36.51 	0.050476 	4933 	0.050001
36.53 	0.057253 	4943 	0.056068
36.55 	0.063730 	4927 	0.062779
36.57 	0.061208 	4934 	0.059783
36.59 	0.052035 	4939 	0.051442
36.61 	0.058812 	4931 	0.057030
36.63 	0.058609 	4931 	0.057896
36.65 	0.055150 	4932 	0.054675
36.67 	0.051116 	4930 	0.050165
36.69 	0.058430 	4929 	0.057717
36.71 	0.054460 	4921 	0.054222
36.73 	0.054416 	4925 	0.053584
36.75 	0.055421 	4944 	0.054710
36.77 	0.056312 	4919 	0.054526
36.79 	0.054257 	4921 	0.053067
36.81 	0.050244 	4916 	0.049887
36.83 	0.054323 	4915 	0.053728
36.85 	0.052266 	4898 	0.051309
36.87 	0.054612 	4944 	0.053782
36.89 	0.053702 	4916 	0.053106
36.91 	0.055859 	4941 	0.054516
36.93 	0.050913 	4930 	0.049368
36.95 	0.047030 	4933 	0.046555
36.97 	0.056546 	4934 	0.055597
36.99 	0.056535 	4935 	0.055447
37.01 	0.060004 	4933 	0.058698
37.03 	0.050366 	4924 	0.049771
37.05 	0.054191 	4927 	0.053121
37.07 	0.050456 	4935 	0.049269
37.09 	0.051136 	4928 	0.050185
37.11 	0.055117 	4935 	0.054286
37.13 	0.050162 	4924 	0.049211
37.15 	0.048279 	4909 	0.047682
37.17 	0.052290 	4934 	0.051697
37.19 	0.056650 	4925 	0.055698
37.21 	0.047590 	4917 	0.047113
37.23 	0.046970 	4918 	0.045898
37.25 	0.049074 	4911 	0.048239
37.27 	0.053126 	4894 	0.052408
37.29 	0.053753 	4930 	0.052683
37.31 	0.044782 	4935 	0.044307
37.33 	0.051553 	4927 	0.051077
37.35 	0.052045 	4938 	0.051452
37.37 	0.054394 	4927 	0.053324
37.39 	0.051105 	4931 	0.050986
37.41 	0.048063 	4931 	0.047707
37.43 	0.056164 	4932 	0.056045
37.45 	0.053209 	4924 	0.052614
37.47 	0.051938 	4929 	0.051343
37.49 	0.057485 	4923 	0.056295
37.51 	0.055747 	4933 	0.055391
37.53 	0.041878 	4919 	0.041045
37.55 	0.058215 	4930 	0.057383
37.57 	0.049137 	4925 	0.048780
37.59 	0.045168 	4915 	0.044691
37.61 	0.055668 	4922 	0.054716
37.63 	0.046961 	4919 	0.046246
37.65 	0.050834 	4918 	0.049881
37.67 	0.053222 	4904 	0.052386
37.69 	0.048591 	4898 	0.047874
37.71 	0.045851 	4929 	0.045019
37.73 	0.052140 	4929 	0.051308
37.75 	0.048988 	4940 	0.048514
37.77 	0.051423 	4920 	0.051185
37.79 	0.054361 	4930 	0.054005
37.81 	0.055747 	4933 	0.054678
37.83 	0.050813 	4920 	0.050337
37.85 	0.051402 	4922 	0.050430
37.87 	0.054869 	4939 	0.054276
37.89 	0.047716 	4925 	0.046645
37.91 	0.054767 	4930 	0.053697
37.93 	0.052246 	4919 	0.052127
37.95 	0.049583 	4921 	0.048869
37.97 	0.051532 	4929 	0.050938
37.99 	0.056189 	4912 	0.054977
38.01 	0.053774 	4928 	0.052586
38.03 	0.055816 	4909 	0.054364
38.05 	0.048934 	4925 	0.048101
38.07 	0.052964 	4909 	0.052129
38.09 	0.052276 	4878 	0.051555
38.11 	0.059574 	4935 	0.058625
38.13 	0.048005 	4937 	0.047174
38.15 	0.057950 	4918 	0.057474
38.17 	0.051318 	4930 	0.050368
38.19 	0.056389 	4930 	0.055914
38.21 	0.047938 	4923 	0.046986
38.23 	0.056703 	4938 	0.056466
38.25 	0.059996 	4917 	0.059043
38.27 	0.053550 	4930 	0.052837
38.29 	0.060114 	4924 	0.059162
38.31 	0.060686 	4927 	0.059616
38.33 	0.054427 	4924 	0.053714
38.35 	0.058644 	4928 	0.057931
38.37 	0.058895 	4924 	0.057706
38.39 	0.063149 	4909 	0.061459
38.41 	0.065407 	4923 	0.064555
38.43 	0.064890 	4916 	0.063937
38.45 	0.058154 	4918 	0.057558
38.47 	0.058284 	4907 	0.057210
38.49 	0.065614 	4877 	0.064173
38.51 	0.067924 	4932 	0.066855
38.53 	0.060459 	4929 	0.059032
38.55 	0.059968 	4936 	0.058781
38.57 	0.063173 	4923 	0.062697
38.59 	0.057880 	4924 	0.057404
38.61 	0.061386 	4936 	0.060911
38.63 	0.060520 	4924 	0.059211
38.65 	0.061204 	4918 	0.060231
38.67 	0.061981 	4937 	0.061150
38.69 	0.055465 	4922 	0.054394
38.71 	0.046507 	4924 	0.045555
38.73 	0.056730 	4918 	0.055897
38.75 	0.047087 	4927 	0.046493
38.77 	0.053220 	4923 	0.052724
38.79 	0.050263 	4934 	0.049195
38.81 	0.055578 	4912 	0.054386
38.83 	0.051230 	4919 	0.050377
38.85 	0.044788 	4912 	0.043953
38.87 	0.045816 	4911 	0.045100
38.89 	0.044313 	4897 	0.043356
38.91 	0.051193 	4903 	0.050357
38.93 	0.050830 	4938 	0.050237
38.95 	0.051037 	4918 	0.050203
38.97 	0.047860 	4931 	0.047385
38.99 	0.046384 	4937 	0.045554
39.01 	0.046564 	4918 	0.046325
39.03 	0.043373 	4934 	0.043016
39.05 	0.047716 	4925 	0.047121
39.07 	0.044679 	4924 	0.043965
39.09 	0.043876 	4923 	0.043162
39.11 	0.043196 	4931 	0.042840
39.13 	0.044485 	4923 	0.044009
39.15 	0.051882 	4915 	0.050929
39.17 	0.051651 	4937 	0.050702
39.19 	0.047183 	4917 	0.046945
39.21 	0.047047 	4910 	0.046331
39.23 	0.043655 	4925 	0.042822
39.25 	0.040634 	4922 	0.039801
39.27 	0.047251 	4910 	0.046773
39.29 	0.044685 	4901 	0.043968
39.31 	0.046683 	4884 	0.046083
39.33 	0.044210 	4931 	0.043854
39.35 	0.047822 	4935 	0.047347
39.37 	0.038344 	4929 	0.038344
39.39 	0.040576 	4929 	0.039863
39.41 	0.047455 	4931 	0.047336
39.43 	0.045814 	4933 	0.045220
39.45 	0.046091 	4925 	0.045497
39.47 	0.039610 	4923 	0.039134
39.49 	0.044395 	4933 	0.043801
39.51 	0.048335 	4924 	0.047383
39.53 	0.046923 	4923 	0.046328
39.55 	0.043708 	4919 	0.043113
39.57 	0.044598 	4933 	0.043766
39.59 	0.043974 	4912 	0.043616
39.61 	0.048548 	4923 	0.047814
39.63 	0.041650 	4922 	0.041035
39.65 	0.040398 	4926 	0.039922
39.67 	0.047018 	4913 	0.046541
39.69 	0.049227 	4916 	0.048393
39.71 	0.049030 	4895 	0.048192
39.73 	0.045232 	4908 	0.044636
39.75 	0.046672 	4928 	0.045602
39.77 	0.049240 	4935 	0.048528
39.79 	0.047097 	4926 	0.046265
39.81 	0.044855 	4927 	0.044498
39.83 	0.047831 	4934 	0.046763
39.85 	0.043231 	4927 	0.042637
39.87 	0.044670 	4925 	0.044194
39.89 	0.045602 	4934 	0.045008
39.91 	0.050996 	4922 	0.049924
39.93 	0.037472 	4937 	0.036523
39.95 	0.043133 	4915 	0.043014
39.97 	0.043831 	4928 	0.043356
39.99 	0.045418 	4932 	0.044943
40.01 	0.043717 	4918 	0.042625
40.03 	0.043628 	4928 	0.043272
40.05 	0.042709 	4917 	0.042113
40.07 	0.044485 	4923 	0.043633
40.09 	0.049634 	4916 	0.049157
40.11 	0.039260 	4916 	0.038545
40.13 	0.041462 	4896 	0.040625
40.15 	0.041115 	4913 	0.041115
40.17 	0.043628 	4928 	0.043153
40.19 	0.038750 	4929 	0.038631
40.21 	0.043972 	4935 	0.043003
40.23 	0.043187 	4932 	0.042831
40.25 	0.044106 	4920 	0.043391
40.27 	0.040713 	4937 	0.040120
40.29 	0.045261 	4927 	0.044904
40.31 	0.038469 	4939 	0.038351
40.33 	0.045012 	4932 	0.044656
40.35 	0.040659 	4919 	0.040301
40.37 	0.035504 	4929 	0.035266
40.39 	0.047252 	4931 	0.046421
40.41 	0.047107 	4925 	0.046393
40.43 	0.042259 	4922 	0.041902
40.45 	0.045206 	4933 	0.044375
40.47 	0.042294 	4918 	0.041817
40.49 	0.044052 	4926 	0.043814
40.51 	0.040024 	4922 	0.039667
40.53 	0.043735 	4916 	0.042781
40.55 	0.039731 	4908 	0.039492
40.57 	0.041309 	4890 	0.040830
40.59 	0.038080 	4937 	0.037961
40.61 	0.049645 	4935 	0.049052
40.63 	0.040162 	4930 	0.039568
40.65 	0.042333 	4937 	0.041740
40.67 	0.038929 	4932 	0.038692
40.69 	0.037877 	4937 	0.037521
40.71 	0.038321 	4932 	0.037490
40.73 	0.045676 	4926 	0.045081
40.75 	0.041371 	4931 	0.041252
40.77 	0.039279 	4939 	0.038805
40.79 	0.044679 	4924 	0.044560
40.81 	0.043109 	4941 	0.042516
40.83 	0.042411 	4928 	0.041341
40.85 	0.042445 	4924 	0.042088
40.87 	0.039570 	4928 	0.038975
40.89 	0.041979 	4931 	0.041742
40.91 	0.041641 	4923 	0.041046
40.93 	0.039927 	4934 	0.039690
40.95 	0.038673 	4913 	0.038196
40.97 	0.039602 	4924 	0.039126
40.99 	0.043461 	4924 	0.043104
41.01 	0.036849 	4912 	0.036729
41.03 	0.039959 	4905 	0.039482
41.05 	0.041126 	4936 	0.040652
41.07 	0.046247 	4930 	0.045535
41.09 	0.040696 	4939 	0.040341
41.11 	0.039514 	4935 	0.039276
41.13 	0.041734 	4936 	0.041378
41.15 	0.044728 	4941 	0.044372
41.17 	0.042359 	4934 	0.041884
41.19 	0.041988 	4930 	0.041037
41.21 	0.040713 	4937 	0.040120
41.23 	0.040696 	4939 	0.040222
41.25 	0.041151 	4933 	0.040795
41.27 	0.040560 	4931 	0.040085
41.29 	0.045252 	4928 	0.044043
41.31 	0.038313 	4933 	0.038195
41.33 	0.037270 	4937 	0.036558
41.35 	0.037262 	4938 	0.036669
41.37 	0.044070 	4924 	0.043475
41.39 	0.041151 	4933 	0.040676
41.41 	0.045067 	4926 	0.044948
41.43 	0.040373 	4929 	0.040017
41.45 	0.045788 	4914 	0.045192
41.47 	0.044255 	4926 	0.043660
41.49 	0.044767 	4892 	0.044408
41.51 	0.036842 	4940 	0.036249
41.53 	0.046926 	4944 	0.045958
41.55 	0.037893 	4935 	0.037180
41.57 	0.039466 	4941 	0.039229
41.59 	0.041760 	4933 	0.041285
41.61 	0.037957 	4953 	0.037484
41.63 	0.044552 	4938 	0.043722
41.65 	0.043011 	4929 	0.042397
41.67 	0.045951 	4940 	0.045951
41.69 	0.041237 	4947 	0.041000
41.71 	0.042359 	4934 	0.041647
41.73 	0.041937 	4936 	0.041581
41.75 	0.035301 	4929 	0.034945
41.77 	0.041894 	4941 	0.041420
41.79 	0.037419 	4944 	0.037182
41.81 	0.039506 	4936 	0.039268
41.83 	0.036120 	4928 	0.035526
41.85 	0.041709 	4939 	0.041234
41.87 	0.040324 	4935 	0.039612
41.89 	0.041151 	4933 	0.040558
41.91 	0.037682 	4936 	0.037564
41.93 	0.033455 	4932 	0.033336
41.95 	0.042182 	4931 	0.041351
41.97 	0.038055 	4914 	0.037816
41.99 	0.043221 	4905 	0.042624
42.01 	0.041279 	4942 	0.040923
42.03 	0.038874 	4939 	0.038756
42.05 	0.042003 	4952 	0.041412
42.07 	0.036662 	4937 	0.036187
42.09 	0.037187 	4948 	0.036713
42.11 	0.037209 	4945 	0.036617
42.13 	0.041658 	4945 	0.041066
42.15 	0.042122 	4938 	0.041648
42.17 	0.046970 	4918 	0.046375
42.19 	0.037286 	4908 	0.036928
42.21 	0.038155 	4901 	0.037319
42.23 	0.034955 	4892 	0.034716
42.25 	0.038863 	4889 	0.038383
42.27 	0.040419 	4874 	0.039818
42.29 	0.037837 	4863 	0.037355
42.31 	0.036663 	4855 	0.036422
42.33 	0.040339 	4834 	0.039733
42.35 	0.035759 	4838 	0.035637
42.37 	0.034576 	4830 	0.034576
42.39 	0.035387 	4804 	0.034899
42.41 	0.037677 	4804 	0.037189
42.43 	0.041945 	4792 	0.041089
42.45 	0.036642 	4776 	0.036028
42.47 	0.035677 	4765 	0.035677
42.49 	0.034418 	4765 	0.034049
42.51 	0.040902 	4743 	0.040285
42.53 	0.041878 	4728 	0.041630
42.55 	0.038233 	4708 	0.037984
42.57 	0.040592 	4730 	0.039601
42.59 	0.038063 	4729 	0.037568
42.61 	0.038233 	4708 	0.037984
42.63 	0.038012 	4709 	0.037390
42.65 	0.038847 	4685 	0.038847
42.67 	0.035867 	4684 	0.035241
42.69 	0.040650 	4674 	0.040400
42.71 	0.039031 	4663 	0.038654
42.73 	0.034267 	4640 	0.033889
42.75 	0.034871 	4617 	0.034744
42.77 	0.036522 	4600 	0.036267
42.79 	0.039721 	4582 	0.039209
42.81 	0.039895 	4562 	0.039766
42.83 	0.037257 	4536 	0.037128
42.85 	0.039973 	4528 	0.039715
42.87 	0.034897 	4499 	0.034376
42.89 	0.040625 	4480 	0.039840
42.91 	0.037478 	4456 	0.037083
42.93 	0.035538 	4446 	0.035011
42.95 	0.040534 	4416 	0.040136
42.97 	0.037037 	4401 	0.036771
42.99 	0.042417 	4385 	0.042284
43.01 	0.038047 	4363 	0.037779
43.03 	0.039234 	4333 	0.038693
43.05 	0.040000 	4325 	0.039323
43.07 	0.033520 	4296 	0.033247
43.09 	0.036423 	4283 	0.035876
43.11 	0.036663 	4255 	0.036250
43.13 	0.041539 	4237 	0.041262
43.15 	0.038992 	4206 	0.038853
43.17 	0.038047 	4179 	0.037487
43.19 	0.041249 	4194 	0.040830
43.21 	0.040508 	4172 	0.039525
43.23 	0.043572 	4154 	0.043290
43.25 	0.038694 	4135 	0.038269
43.27 	0.031912 	4105 	0.031770
43.29 	0.040976 	4100 	0.040261
43.31 	0.042658 	4079 	0.042083
43.33 	0.036287 	4051 	0.035564
43.35 	0.039435 	4032 	0.038853
43.37 	0.034371 	4015 	0.033788
43.39 	0.029235 	4002 	0.029089
43.41 	0.037009 	3972 	0.036714
43.43 	0.035859 	3960 	0.035119
43.45 	0.037611 	3935 	0.037313
43.47 	0.039021 	3921 	0.038722
43.49 	0.041570 	3897 	0.040969
43.51 	0.040495 	3877 	0.039740
43.53 	0.040124 	3863 	0.039518
43.55 	0.036100 	2964 	0.036100
43.57 	0.031725 	2238 	0.031725
43.59 	0.042383 	1746 	0.041712
43.61 	0.039230 	1351 	0.039230
43.63 	0.040959 	1001 	0.039789
43.65 	0.039301 	687 	0.037596
43.67 	0.025896 	502 	0.025896
43.69 	0.040872 	367 	0.040872
43.71 	0.012552 	239 	0.012552
43.73 	0.016667 	120 	0.016667
43.75 	0.062500 	16 	0.062500