File: Example_Data/25SC_s1_0015.003.dat
#F C:\frames\spec\25SC_s1_0015.003
#C title =s:15 frm:3 25SC_s1
#C wavelength =0.15406

#S 1  fr_average C:\frames\spec\25SC_s1_0015.003 C:\win32app\speccom\mask.axs chi 0 180 0 360 0.02
#C 2 theta =0.000000 to 180 deg
#C   q   =0.000000 to 81.568 nm^-1
#C  chi  =0.000000 to 360 deg
#C collumns:
#C  1 position (2theta or chi in degrees)
#C  2 average intensity (sum of all counts in the region divided with number of pixels)
#C  3 Number of pixels in region)
#C  4 error (sum of sqrt(intensity) for all pixels divided by number)
#N 4
#L TTh  Int  N_pix  Err
32.99 	0.016393 	61 	0.016393
33.01 	0.051546 	873 	0.050875
33.03 	0.056794 	1391 	0.055530
33.05 	0.065452 	1757 	0.064119
33.07 	0.058049 	2050 	0.057763
33.09 	0.056242 	2347 	0.055992
33.11 	0.064754 	2579 	0.063845
33.13 	0.063373 	2793 	0.061485
33.15 	0.059687 	2999 	0.058710
33.17 	0.048735 	3201 	0.048186
33.19 	0.057750 	3342 	0.056873
33.21 	0.055297 	3436 	0.055126
33.23 	0.055351 	3523 	0.054519
33.25 	0.060078 	3612 	0.059753
33.27 	0.064187 	3630 	0.063219
33.29 	0.074013 	3648 	0.072086
33.31 	0.052732 	3660 	0.051772
33.33 	0.064569 	3686 	0.063456
33.35 	0.056849 	3694 	0.055739
33.37 	0.046042 	3714 	0.045253
33.39 	0.055779 	3729 	0.055151
33.41 	0.057754 	3740 	0.057128
33.43 	0.062749 	3761 	0.061659
33.45 	0.057779 	3773 	0.057313
33.47 	0.058978 	3798 	0.058182
33.49 	0.059333 	3809 	0.058872
33.51 	0.058978 	3815 	0.057596
33.53 	0.067951 	3841 	0.066273
33.55 	0.061671 	3843 	0.060299
33.57 	0.062419 	3877 	0.061362
33.59 	0.061340 	3880 	0.060434
33.61 	0.057559 	3909 	0.057110
33.63 	0.057668 	3919 	0.056920
33.65 	0.057237 	3931 	0.056343
33.67 	0.054628 	3954 	0.053443
33.69 	0.060207 	3953 	0.059318
33.71 	0.066164 	3975 	0.065574
33.73 	0.060440 	4004 	0.059415
33.75 	0.057264 	3999 	0.056092
33.77 	0.065342 	4025 	0.063741
33.79 	0.057164 	4041 	0.056004
33.81 	0.058445 	4038 	0.057429
33.83 	0.056543 	4050 	0.055652
33.85 	0.051232 	4099 	0.050660
33.87 	0.060326 	4111 	0.058616
33.89 	0.064305 	4121 	0.063594
33.91 	0.067004 	4149 	0.065569
33.93 	0.060708 	4151 	0.059579
33.95 	0.058120 	4181 	0.057700
33.97 	0.056086 	4190 	0.055224
33.99 	0.059286 	4200 	0.057450
34.01 	0.063138 	4213 	0.062026
34.03 	0.058200 	4244 	0.057349
34.05 	0.057620 	4252 	0.056656
34.07 	0.059747 	4268 	0.058374
34.09 	0.055530 	4286 	0.054687
34.11 	0.059275 	4302 	0.058185
34.13 	0.060353 	4308 	0.059401
34.15 	0.053336 	4331 	0.052390
34.17 	0.063908 	4350 	0.061698
34.19 	0.055250 	4362 	0.054310
34.21 	0.062457 	4371 	0.061653
34.23 	0.058275 	4393 	0.057074
34.25 	0.059491 	4404 	0.057873
34.27 	0.062867 	4422 	0.062205
34.29 	0.058399 	4435 	0.057871
34.31 	0.060341 	4458 	0.059421
34.33 	0.063968 	4471 	0.062920
34.35 	0.054862 	4484 	0.054078
34.37 	0.060566 	4491 	0.059370
34.39 	0.060862 	4502 	0.059431
34.41 	0.064516 	4526 	0.063092
34.43 	0.061908 	4539 	0.060746
34.45 	0.059537 	4535 	0.058762
34.47 	0.062500 	4592 	0.061862
34.49 	0.058299 	4597 	0.057917
34.51 	0.058619 	4606 	0.057856
34.53 	0.058798 	4643 	0.057894
34.55 	0.063752 	4643 	0.062490
34.57 	0.063948 	4660 	0.062189
34.59 	0.061390 	4675 	0.060263
34.61 	0.064296 	4697 	0.063153
34.63 	0.058599 	4710 	0.057604
34.65 	0.062275 	4721 	0.061282
34.67 	0.056950 	4741 	0.055344
34.69 	0.063105 	4754 	0.061749
34.71 	0.056232 	4766 	0.055740
34.73 	0.060372 	4787 	0.059026
34.75 	0.057196 	4808 	0.055856
34.77 	0.062889 	4818 	0.061775
34.79 	0.055141 	4824 	0.054170
34.81 	0.058411 	4845 	0.057323
34.83 	0.054916 	4862 	0.053470
34.85 	0.059560 	4869 	0.058458
34.87 	0.061011 	4868 	0.059527
34.89 	0.057558 	4882 	0.056838
34.91 	0.061041 	4882 	0.059941
34.93 	0.056134 	4899 	0.054460
34.95 	0.060123 	4890 	0.059404
34.97 	0.061200 	4902 	0.060582
34.99 	0.059424 	4897 	0.058946
35.01 	0.056673 	4923 	0.055840
35.03 	0.058062 	4943 	0.057114
35.05 	0.063271 	4947 	0.061376
35.07 	0.054858 	4940 	0.054384
35.09 	0.063598 	4953 	0.062750
35.11 	0.064079 	4947 	0.062639
35.13 	0.062324 	4958 	0.061142
35.15 	0.055499 	4937 	0.054787
35.17 	0.065710 	4946 	0.064170
35.19 	0.064549 	4942 	0.063245
35.21 	0.061274 	4945 	0.059695
35.23 	0.057027 	4945 	0.056553
35.25 	0.059478 	4943 	0.058174
35.27 	0.060024 	4948 	0.059432
35.29 	0.054803 	4945 	0.053717
35.31 	0.063450 	4933 	0.062263
35.33 	0.049970 	4943 	0.048173
35.35 	0.060704 	4942 	0.059519
35.37 	0.066410 	4939 	0.064987
35.39 	0.062285 	4945 	0.061101
35.41 	0.059074 	4926 	0.058222
35.43 	0.058990 	4933 	0.058278
35.45 	0.060563 	4937 	0.059733
35.47 	0.062868 	4931 	0.061422
35.49 	0.060285 	4910 	0.059211
35.51 	0.055826 	4926 	0.054499
35.53 	0.058396 	4949 	0.057212
35.55 	0.057836 	4945 	0.056059
35.57 	0.066694 	4933 	0.064675
35.59 	0.063903 	4945 	0.063074
35.61 	0.057669 	4942 	0.057195
35.63 	0.056646 	4943 	0.055915
35.65 	0.057836 	4945 	0.056533
35.67 	0.061514 	4942 	0.060091
35.69 	0.056611 	4946 	0.055782
35.71 	0.065627 	4937 	0.064322
35.73 	0.058752 	4936 	0.057664
35.75 	0.061448 	4931 	0.060359
35.77 	0.058170 	4951 	0.056967
35.79 	0.062247 	4932 	0.061178
35.81 	0.060815 	4933 	0.059509
35.83 	0.060049 	4946 	0.059101
35.85 	0.057548 	4935 	0.056836
35.87 	0.062767 	4923 	0.061339
35.89 	0.064856 	4934 	0.064025
35.91 	0.056627 	4927 	0.055794
35.93 	0.058453 	4927 	0.057264
35.95 	0.056945 	4917 	0.056111
35.97 	0.056800 	4912 	0.055945
35.99 	0.055274 	4939 	0.054563
36.01 	0.064909 	4930 	0.063721
36.03 	0.053813 	4943 	0.052628
36.05 	0.054601 	4945 	0.053771
36.07 	0.058919 	4939 	0.057970
36.09 	0.058502 	4940 	0.057534
36.11 	0.052952 	4929 	0.051763
36.13 	0.059895 	4942 	0.058097
36.15 	0.055477 	4939 	0.054884
36.17 	0.059898 	4925 	0.059066
36.19 	0.061741 	4940 	0.060911
36.21 	0.057618 	4929 	0.056311
36.23 	0.054103 	4935 	0.053154
36.25 	0.056871 	4941 	0.055567
36.27 	0.060914 	4925 	0.059843
36.29 	0.055567 	4931 	0.054735
36.31 	0.062500 	4928 	0.061668
36.33 	0.061829 	4933 	0.060740
36.35 	0.055995 	4929 	0.054926
36.37 	0.053220 	4923 	0.052625
36.39 	0.052632 	4921 	0.052155
36.41 	0.061070 	4896 	0.059635
36.43 	0.057224 	4928 	0.056749
36.45 	0.059838 	4930 	0.058293
36.47 	0.059157 	4936 	0.058208
36.49 	0.055645 	4942 	0.054223
36.51 	0.060409 	4933 	0.059222
36.53 	0.056443 	4943 	0.055851
36.55 	0.055003 	4927 	0.054527
36.57 	0.052493 	4934 	0.051781
36.59 	0.053857 	4939 	0.052315
36.61 	0.062462 	4931 	0.061512
36.63 	0.061651 	4931 	0.060819
36.65 	0.056164 	4932 	0.054699
36.67 	0.054158 	4930 	0.053564
36.69 	0.056401 	4929 	0.055074
36.71 	0.053241 	4921 	0.052051
36.73 	0.058071 	4925 	0.056525
36.75 	0.052994 	4944 	0.052164
36.77 	0.055702 	4919 	0.054631
36.79 	0.056899 	4921 	0.055828
36.81 	0.055940 	4916 	0.054987
36.83 	0.054934 	4915 	0.053722
36.85 	0.055125 	4898 	0.054287
36.87 	0.061893 	4944 	0.061182
36.89 	0.056753 	4916 	0.055443
36.91 	0.054645 	4941 	0.053696
36.93 	0.061866 	4930 	0.060797
36.95 	0.054328 	4933 	0.053972
36.97 	0.055330 	4934 	0.054618
36.99 	0.058561 	4935 	0.056899
37.01 	0.054936 	4933 	0.054580
37.03 	0.054427 	4924 	0.053238
37.05 	0.055206 	4927 	0.054235
37.07 	0.054509 	4935 	0.053322
37.09 	0.059050 	4928 	0.057743
37.11 	0.053901 	4935 	0.052951
37.13 	0.060317 	4924 	0.059484
37.15 	0.054390 	4909 	0.053435
37.17 	0.059587 	4934 	0.058498
37.19 	0.057462 	4925 	0.055916
37.21 	0.061216 	4917 	0.060501
37.23 	0.050427 	4918 	0.050070
37.25 	0.053350 	4911 	0.052276
37.27 	0.056804 	4894 	0.056086
37.29 	0.050304 	4930 	0.049591
37.31 	0.057345 	4935 	0.056040
37.33 	0.053988 	4927 	0.052799
37.35 	0.056298 	4938 	0.055586
37.37 	0.047899 	4927 	0.046948
37.39 	0.048672 	4931 	0.047939
37.41 	0.052322 	4931 	0.051728
37.43 	0.050689 	4932 	0.050333
37.45 	0.050975 	4924 	0.050241
37.47 	0.051126 	4929 	0.050769
37.49 	0.050782 	4923 	0.049473
37.51 	0.055139 	4933 	0.054783
37.53 	0.050417 	4919 	0.050179
37.55 	0.054361 	4930 	0.053648
37.57 	0.050964 	4925 	0.050370
37.59 	0.051475 	4915 	0.050860
37.61 	0.054246 	4922 	0.053770
37.63 	0.047571 	4919 	0.047213
37.65 	0.057340 	4918 	0.056387
37.67 	0.054649 	4904 	0.054171
37.69 	0.061249 	4898 	0.059934
37.71 	0.054372 	4929 	0.054016
37.73 	0.052343 	4929 	0.052106
37.75 	0.059312 	4940 	0.058600
37.77 	0.047967 	4920 	0.047372
37.79 	0.048682 	4930 	0.047850
37.81 	0.045408 	4933 	0.045171
37.83 	0.054472 	4920 	0.053757
37.85 	0.050996 	4922 	0.050162
37.87 	0.056489 	4939 	0.055778
37.89 	0.054619 	4925 	0.054025
37.91 	0.049493 	4930 	0.049018
37.93 	0.048994 	4919 	0.048160
37.95 	0.049380 	4921 	0.048904
37.97 	0.055386 	4929 	0.054555
37.99 	0.057818 	4912 	0.056983
38.01 	0.055398 	4928 	0.054328
38.03 	0.055816 	4909 	0.054861
38.05 	0.055635 	4925 	0.054564
38.07 	0.050723 	4909 	0.049630
38.09 	0.052276 	4878 	0.051315
38.11 	0.054711 	4935 	0.053880
38.13 	0.055904 	4937 	0.055192
38.15 	0.051444 	4918 	0.050967
38.17 	0.052535 	4930 	0.051585
38.19 	0.060446 	4930 	0.059615
38.21 	0.049766 	4923 	0.049409
38.23 	0.047185 	4938 	0.046355
38.25 	0.057759 	4917 	0.056687
38.27 	0.052738 	4930 	0.051907
38.29 	0.055849 	4924 	0.055492
38.31 	0.056424 	4927 	0.055235
38.33 	0.058895 	4924 	0.057825
38.35 	0.060065 	4928 	0.059114
38.37 	0.058083 	4924 	0.057607
38.39 	0.049908 	4909 	0.048834
38.41 	0.057688 	4923 	0.056598
38.43 	0.061025 	4916 	0.059814
38.45 	0.059170 	4918 	0.057860
38.47 	0.062971 	4907 	0.061777
38.49 	0.062949 	4877 	0.062108
38.51 	0.059408 	4932 	0.058814
38.53 	0.058024 	4929 	0.056835
38.55 	0.060373 	4936 	0.059542
38.57 	0.057688 	4923 	0.056855
38.59 	0.060317 	4924 	0.059484
38.61 	0.056929 	4936 	0.056098
38.63 	0.058895 	4924 	0.057943
38.65 	0.064864 	4918 	0.064030
38.67 	0.056715 	4937 	0.055409
38.69 	0.057091 	4922 	0.055405
38.71 	0.062551 	4924 	0.061123
38.73 	0.051647 	4918 	0.051171
38.75 	0.054800 	4927 	0.053730
38.77 	0.058907 	4923 	0.058074
38.79 	0.054114 	4934 	0.052808
38.81 	0.054764 	4912 	0.054168
38.83 	0.054483 	4919 	0.053649
38.85 	0.064332 	4912 	0.063140
38.87 	0.048463 	4911 	0.047966
38.89 	0.047376 	4897 	0.047137
38.91 	0.049154 	4903 	0.048317
38.93 	0.049413 	4938 	0.048820
38.95 	0.048800 	4918 	0.048205
38.97 	0.050700 	4931 	0.050106
38.99 	0.049828 	4937 	0.049116
39.01 	0.047377 	4918 	0.046424
39.03 	0.053709 	4934 	0.052284
39.05 	0.047716 	4925 	0.047101
39.07 	0.048741 	4924 	0.047789
39.09 	0.044688 	4923 	0.043617
39.11 	0.047049 	4931 	0.046455
39.13 	0.049766 	4923 	0.049171
39.15 	0.054730 	4915 	0.053896
39.17 	0.049625 	4937 	0.048676
39.19 	0.048200 	4917 	0.047843
39.21 	0.041344 	4910 	0.040628
39.23 	0.049746 	4925 	0.049151
39.25 	0.047745 	4922 	0.047626
39.27 	0.046436 	4910 	0.045839
39.29 	0.046317 	4901 	0.045959
39.31 	0.046683 	4884 	0.045963
39.33 	0.049888 	4931 	0.049413
39.35 	0.050253 	4935 	0.049422
39.37 	0.044025 	4929 	0.043669
39.39 	0.043619 	4929 	0.043144
39.41 	0.056581 	4931 	0.054918
39.43 	0.045408 	4933 	0.044696
39.45 	0.050355 	4925 	0.049761
39.47 	0.049563 	4923 	0.048492
39.49 	0.047233 	4933 	0.046520
39.51 	0.048741 	4924 	0.048384
39.53 	0.055657 	4923 	0.054586
39.55 	0.052246 	4919 	0.051413
39.57 	0.048855 	4933 	0.048142
39.59 	0.046824 	4912 	0.046466
39.61 	0.046923 	4923 	0.046189
39.63 	0.058310 	4922 	0.057715
39.65 	0.046082 	4926 	0.045487
39.67 	0.046204 	4913 	0.045727
39.69 	0.049024 	4916 	0.047455
39.71 	0.052094 	4895 	0.051376
39.73 	0.050530 	4908 	0.049694
39.75 	0.049107 	4928 	0.047918
39.77 	0.053901 	4935 	0.053070
39.79 	0.048315 	4926 	0.047720
39.81 	0.048508 	4927 	0.048270
39.83 	0.046413 	4934 	0.045463
39.85 	0.048914 	4927 	0.048439
39.87 	0.049340 	4925 	0.048983
39.89 	0.050466 	4934 	0.049991
39.91 	0.044494 	4922 	0.043542
39.93 	0.047397 	4937 	0.046804
39.95 	0.044151 	4915 	0.043912
39.97 	0.047281 	4928 	0.046687
39.99 	0.052109 	4932 	0.051277
40.01 	0.045547 	4918 	0.044694
40.03 	0.049107 	4928 	0.048037
40.05 	0.049217 	4917 	0.048621
40.07 	0.050376 	4923 	0.049543
40.09 	0.046176 	4916 	0.045580
40.11 	0.045159 	4916 	0.044682
40.13 	0.046773 	4896 	0.045816
40.15 	0.050071 	4913 	0.049594
40.17 	0.047078 	4928 	0.046484
40.19 	0.050314 	4929 	0.049601
40.21 	0.049645 	4935 	0.049171
40.23 	0.047040 	4932 	0.046070
40.25 	0.048577 	4920 	0.047506
40.27 	0.055702 	4937 	0.055465
40.29 	0.048305 	4927 	0.047235
40.31 	0.046568 	4939 	0.046094
40.33 	0.048459 	4932 	0.047865
40.35 	0.042082 	4919 	0.042082
40.37 	0.045242 	4929 	0.044529
40.39 	0.050497 	4931 	0.049546
40.41 	0.051777 	4925 	0.051420
40.43 	0.051402 	4922 	0.050807
40.45 	0.049057 	4933 	0.047989
40.47 	0.045750 	4918 	0.044917
40.49 	0.046285 	4926 	0.045690
40.51 	0.046119 	4922 	0.045148
40.53 	0.042107 	4916 	0.041512
40.55 	0.048696 	4908 	0.048338
40.57 	0.048671 	4890 	0.047952
40.59 	0.043549 	4937 	0.042955
40.61 	0.050253 	4935 	0.049422
40.63 	0.049493 	4930 	0.048780
40.65 	0.046992 	4937 	0.046162
40.67 	0.046229 	4932 	0.045635
40.69 	0.048410 	4937 	0.047698
40.71 	0.046837 	4932 	0.046124
40.73 	0.046488 	4926 	0.045061
40.75 	0.054553 	4931 	0.053464
40.77 	0.045758 	4939 	0.045402
40.79 	0.046304 	4924 	0.045947
40.81 	0.047359 	4941 	0.047240
40.83 	0.048498 	4928 	0.048142
40.85 	0.045288 	4924 	0.044099
40.87 	0.044440 	4928 	0.044083
40.89 	0.046238 	4931 	0.045882
40.91 	0.044891 	4923 	0.044415
40.93 	0.048845 	4934 	0.048489
40.95 	0.047222 	4913 	0.046149
40.97 	0.050569 	4924 	0.049379
40.99 	0.050975 	4924 	0.049785
41.01 	0.042142 	4912 	0.041545
41.03 	0.048522 	4905 	0.047547
41.05 	0.043152 	4936 	0.042559
41.07 	0.043002 	4930 	0.042408
41.09 	0.043734 	4939 	0.043141
41.11 	0.044377 	4935 	0.043783
41.13 	0.048825 	4936 	0.048232
41.15 	0.043311 	4941 	0.042600
41.17 	0.042359 	4934 	0.041766
41.19 	0.047465 	4930 	0.046514
41.21 	0.047600 	4937 	0.046888
41.23 	0.045961 	4939 	0.045467
41.25 	0.049463 	4933 	0.048988
41.27 	0.044616 	4931 	0.044259
41.29 	0.047890 	4928 	0.046939
41.31 	0.044395 	4933 	0.043920
41.33 	0.042739 	4937 	0.042126
41.35 	0.043945 	4938 	0.042759
41.37 	0.043867 	4924 	0.043153
41.39 	0.044192 	4933 	0.043836
41.41 	0.046285 	4926 	0.045928
41.43 	0.042808 	4929 	0.042451
41.45 	0.045381 	4914 	0.044546
41.47 	0.045473 	4926 	0.044878
41.49 	0.044971 	4892 	0.044373
41.51 	0.044737 	4940 	0.044025
41.53 	0.044296 	4944 	0.043941
41.55 	0.044782 	4935 	0.044070
41.57 	0.047966 	4941 	0.047373
41.59 	0.044395 	4933 	0.044157
41.61 	0.044014 	4953 	0.043304
41.63 	0.045970 	4938 	0.045496
41.65 	0.043822 	4929 	0.043347
41.67 	0.044130 	4940 	0.043399
41.69 	0.050131 	4947 	0.048947
41.71 	0.045805 	4934 	0.045330
41.73 	0.048015 	4936 	0.047421
41.75 	0.041996 	4929 	0.041521
41.77 	0.048776 	4941 	0.048538
41.79 	0.044701 	4944 	0.044108
41.81 	0.037885 	4936 	0.037648
41.83 	0.045049 	4928 	0.044692
41.85 	0.046568 	4939 	0.046212
41.87 	0.043769 	4935 	0.043294
41.89 	0.034056 	4933 	0.034056
41.91 	0.043760 	4936 	0.043048
41.93 	0.046026 	4932 	0.045195
41.95 	0.047049 	4931 	0.046574
41.97 	0.038869 	4914 	0.038749
41.99 	0.042202 	4905 	0.041844
42.01 	0.050182 	4942 	0.049827
42.03 	0.042519 	4939 	0.041926
42.05 	0.041195 	4952 	0.040722
42.07 	0.041523 	4937 	0.040792
42.09 	0.041835 	4948 	0.041835
42.11 	0.046512 	4945 	0.045801
42.13 	0.040243 	4945 	0.040006
42.15 	0.043135 	4938 	0.042898
42.17 	0.042904 	4918 	0.042308
42.19 	0.038712 	4908 	0.038354
42.21 	0.037747 	4901 	0.037269
42.23 	0.041087 	4892 	0.040968
42.25 	0.038454 	4889 	0.037735
42.27 	0.043086 	4874 	0.042345
42.29 	0.043183 	4863 	0.042581
42.31 	0.034192 	4855 	0.033830
42.33 	0.039719 	4834 	0.039113
42.35 	0.039893 	4838 	0.038803
42.37 	0.041822 	4830 	0.041337
42.39 	0.042673 	4804 	0.041941
42.41 	0.037885 	4804 	0.037397
42.43 	0.039232 	4792 	0.038621
42.45 	0.046273 	4776 	0.045537
42.47 	0.045331 	4765 	0.044347
42.49 	0.042812 	4765 	0.042320
42.51 	0.045330 	4743 	0.044836
42.53 	0.042301 	4728 	0.041929
42.55 	0.041631 	4708 	0.040885
42.57 	0.038689 	4730 	0.038442
42.59 	0.038697 	4729 	0.038450
42.61 	0.046092 	4708 	0.045470
42.63 	0.043746 	4709 	0.043228
42.65 	0.047599 	4685 	0.046723
42.67 	0.034159 	4684 	0.033408
42.69 	0.043860 	4674 	0.043233
42.71 	0.044606 	4663 	0.043476
42.73 	0.041595 	4640 	0.041216
42.75 	0.038986 	4617 	0.038479
42.77 	0.038478 	4600 	0.037842
42.79 	0.038848 	4582 	0.038464
42.81 	0.042525 	4562 	0.042140
42.83 	0.044092 	4536 	0.043704
42.85 	0.041299 	4528 	0.041040
42.87 	0.041787 	4499 	0.041006
42.89 	0.045759 	4480 	0.044974
42.91 	0.045557 	4456 	0.044899
42.93 	0.041835 	4446 	0.041704
42.95 	0.036458 	4416 	0.035928
42.97 	0.040900 	4401 	0.039946
42.99 	0.043101 	4385 	0.042278
43.01 	0.040110 	4363 	0.039841
43.03 	0.044311 	4333 	0.043906
43.05 	0.044162 	4325 	0.043756
43.07 	0.041667 	4296 	0.041394
43.09 	0.041093 	4283 	0.040956
43.11 	0.043008 	4255 	0.042595
43.13 	0.041303 	4237 	0.041165
43.15 	0.044936 	4206 	0.044518
43.17 	0.044987 	4179 	0.044426
43.19 	0.042680 	4194 	0.042121
43.21 	0.038111 	4172 	0.037971
43.23 	0.039961 	4154 	0.039679
43.25 	0.042563 	4135 	0.042138
43.27 	0.039464 	4105 	0.038893
43.29 	0.039512 	4100 	0.038798
43.31 	0.040696 	4079 	0.040265
43.33 	0.044433 	4051 	0.043566
43.35 	0.042411 	4032 	0.041515
43.37 	0.047572 	4015 	0.047280
43.39 	0.046227 	4002 	0.045934
43.41 	0.041793 	3972 	0.041203
43.43 	0.039646 	3960 	0.039499
43.45 	0.042694 	3935 	0.041949
43.47 	0.045907 	3921 	0.045608
43.49 	0.042084 	3897 	0.041482
43.51 	0.033273 	3877 	0.032820
43.53 	0.043490 	3863 	0.042706
43.55 	0.045547 	2964 	0.044954
43.57 	0.042895 	2238 	0.042110
43.59 	0.042383 	1746 	0.042047
43.61 	0.034049 	1351 	0.034049
43.63 	0.036963 	1001 	0.036378
43.65 	0.045124 	687 	0.044271
43.67 	0.055777 	502 	0.055777
43.69 	0.035422 	367 	0.033826
43.71 	0.029289 	239 	0.029289
43.73 	0.025000 	120 	0.025000
43.75 	0.000000 	16 	0.000000