File: Example_Data/25SC_s1_0047.004.dat
#F C:\frames\spec\25SC_s1_0047.004
#C title =s:47 frm:4 25SC_s1
#C wavelength =0.15406

#S 1  fr_average C:\frames\spec\25SC_s1_0047.004 C:\win32app\speccom\mask.axs chi 0 180 0 360 0.02
#C 2 theta =0.000000 to 180 deg
#C   q   =0.000000 to 81.568 nm^-1
#C  chi  =0.000000 to 360 deg
#C collumns:
#C  1 position (2theta or chi in degrees)
#C  2 average intensity (sum of all counts in the region divided with number of pixels)
#C  3 Number of pixels in region)
#C  4 error (sum of sqrt(intensity) for all pixels divided by number)
#N 4
#L TTh  Int  N_pix  Err
32.99 	0.098361 	61 	0.088758
33.01 	0.053837 	873 	0.053837
33.03 	0.058950 	1391 	0.058108
33.05 	0.048378 	1757 	0.048045
33.07 	0.055122 	2050 	0.054550
33.09 	0.062633 	2347 	0.061884
33.11 	0.063591 	2579 	0.061773
33.13 	0.058718 	2793 	0.058299
33.15 	0.056686 	2999 	0.055904
33.17 	0.058419 	3201 	0.058053
33.19 	0.049372 	3342 	0.049021
33.21 	0.062282 	3436 	0.060747
33.23 	0.049674 	3523 	0.048676
33.25 	0.054540 	3612 	0.053405
33.27 	0.057851 	3630 	0.056883
33.29 	0.058114 	3648 	0.056829
33.31 	0.060109 	3660 	0.058509
33.33 	0.057515 	3686 	0.056402
33.35 	0.056037 	3694 	0.054742
33.37 	0.055197 	3714 	0.054408
33.39 	0.055511 	3729 	0.053940
33.41 	0.058021 	3740 	0.056768
33.43 	0.058495 	3761 	0.057716
33.45 	0.066260 	3773 	0.065329
33.47 	0.061875 	3798 	0.061103
33.49 	0.060646 	3809 	0.059416
33.51 	0.055832 	3815 	0.054604
33.53 	0.057797 	3841 	0.057187
33.55 	0.055686 	3843 	0.054924
33.57 	0.058808 	3877 	0.058204
33.59 	0.053351 	3880 	0.052445
33.61 	0.065234 	3909 	0.064335
33.63 	0.054351 	3919 	0.053603
33.65 	0.059272 	3931 	0.057907
33.67 	0.056904 	3954 	0.055867
33.69 	0.057931 	3953 	0.057042
33.71 	0.064403 	3975 	0.063076
33.73 	0.048701 	4004 	0.048092
33.75 	0.054014 	3999 	0.053721
33.77 	0.055652 	4025 	0.054779
33.79 	0.056917 	4041 	0.055757
33.81 	0.056711 	4038 	0.055696
33.83 	0.052840 	4050 	0.051538
33.85 	0.058063 	4099 	0.056920
33.87 	0.061056 	4111 	0.060201
33.89 	0.060908 	4121 	0.059463
33.91 	0.060497 	4149 	0.059932
33.93 	0.062636 	4151 	0.060778
33.95 	0.051901 	4181 	0.050641
33.97 	0.056325 	4190 	0.055346
33.99 	0.058571 	4200 	0.057874
34.01 	0.060764 	4213 	0.059791
34.03 	0.065033 	4244 	0.063101
34.05 	0.055268 	4252 	0.053890
34.07 	0.061621 	4268 	0.060638
34.09 	0.059029 	4286 	0.058209
34.11 	0.068573 	4302 	0.067756
34.13 	0.048282 	4308 	0.047330
34.15 	0.057492 	4331 	0.055869
34.17 	0.052644 	4350 	0.051006
34.19 	0.063274 	4362 	0.061909
34.21 	0.056280 	4371 	0.055342
34.23 	0.056909 	4393 	0.055442
34.25 	0.055631 	4404 	0.054434
34.27 	0.059701 	4422 	0.058377
34.29 	0.056144 	4435 	0.054956
34.31 	0.058995 	4458 	0.058732
34.33 	0.057929 	4471 	0.057405
34.35 	0.056646 	4484 	0.055862
34.37 	0.057671 	4491 	0.055432
34.39 	0.058196 	4502 	0.057416
34.41 	0.054353 	4526 	0.053576
34.43 	0.058824 	4539 	0.057662
34.45 	0.058434 	4535 	0.057659
34.47 	0.057709 	4592 	0.056030
34.49 	0.062650 	4597 	0.061758
34.51 	0.058402 	4606 	0.057766
34.53 	0.057075 	4643 	0.056444
34.55 	0.060090 	4643 	0.058955
34.57 	0.059657 	4660 	0.058777
34.59 	0.059465 	4675 	0.058839
34.61 	0.058335 	4697 	0.057462
34.63 	0.054352 	4710 	0.053606
34.65 	0.061428 	4721 	0.060311
34.67 	0.061590 	4741 	0.060602
34.69 	0.055743 	4754 	0.055003
34.71 	0.057700 	4766 	0.056594
34.73 	0.063714 	4787 	0.062001
34.75 	0.054908 	4808 	0.053812
34.77 	0.061436 	4818 	0.060707
34.79 	0.055348 	4824 	0.053891
34.81 	0.062332 	4845 	0.061486
34.83 	0.055121 	4862 	0.053917
34.85 	0.064079 	4869 	0.063116
34.87 	0.059162 	4868 	0.057818
34.89 	0.058583 	4882 	0.057623
34.91 	0.056534 	4882 	0.055574
34.93 	0.060012 	4899 	0.059295
34.95 	0.056442 	4890 	0.055364
34.97 	0.056712 	4902 	0.055995
34.99 	0.058199 	4897 	0.056644
35.01 	0.062360 	4923 	0.061408
35.03 	0.058871 	4943 	0.058160
35.05 	0.058419 	4947 	0.057097
35.07 	0.056478 	4940 	0.055173
35.09 	0.060973 	4953 	0.059672
35.11 	0.055387 	4947 	0.054795
35.13 	0.062122 	4958 	0.060586
35.15 	0.065627 	4937 	0.065034
35.17 	0.061059 	4946 	0.060349
35.19 	0.059692 	4942 	0.058863
35.21 	0.060465 	4945 	0.059399
35.23 	0.057836 	4945 	0.056987
35.25 	0.056039 	4943 	0.055209
35.27 	0.064673 	4948 	0.063370
35.29 	0.064712 	4945 	0.064001
35.31 	0.055139 	4933 	0.054664
35.33 	0.053611 	4943 	0.053019
35.35 	0.053824 	4942 	0.053232
35.37 	0.068840 	4939 	0.067061
35.39 	0.054398 	4945 	0.054043
35.41 	0.063743 	4926 	0.062673
35.43 	0.058585 	4933 	0.057516
35.45 	0.056512 	4937 	0.055207
35.47 	0.062665 	4931 	0.062071
35.49 	0.065173 	4910 	0.063861
35.51 	0.057044 	4926 	0.056212
35.53 	0.066882 	4949 	0.064949
35.55 	0.059050 	4945 	0.058339
35.57 	0.057571 	4933 	0.057215
35.59 	0.062083 	4945 	0.061017
35.61 	0.057062 	4942 	0.056114
35.63 	0.058264 	4943 	0.057672
35.65 	0.065116 	4945 	0.063675
35.67 	0.058276 	4942 	0.056972
35.69 	0.060655 	4946 	0.059944
35.71 	0.059145 	4937 	0.058196
35.73 	0.055105 	4936 	0.054275
35.75 	0.056986 	4931 	0.056254
35.77 	0.064027 	4951 	0.062470
35.79 	0.062855 	4932 	0.061667
35.81 	0.057166 	4933 	0.056216
35.83 	0.056005 	4946 	0.054347
35.85 	0.060588 	4935 	0.059638
35.87 	0.059923 	4923 	0.058971
35.89 	0.058776 	4934 	0.057707
35.91 	0.054800 	4927 	0.053849
35.93 	0.061295 	4927 	0.060463
35.95 	0.060606 	4917 	0.059296
35.97 	0.057410 	4912 	0.055860
35.99 	0.057704 	4939 	0.056518
36.01 	0.059026 	4930 	0.057719
36.03 	0.049970 	4943 	0.048903
36.05 	0.064510 	4945 	0.063325
36.07 	0.062968 	4939 	0.062375
36.09 	0.055668 	4940 	0.055075
36.11 	0.064516 	4929 	0.062971
36.13 	0.064751 	4942 	0.063665
36.15 	0.058919 	4939 	0.058207
36.17 	0.052386 	4925 	0.051672
36.19 	0.059919 	4940 	0.058852
36.21 	0.058227 	4929 	0.057375
36.23 	0.058764 	4935 	0.058052
36.25 	0.064157 	4941 	0.063209
36.27 	0.055025 	4925 	0.054193
36.29 	0.055161 	4931 	0.054092
36.31 	0.062500 	4928 	0.061311
36.33 	0.052504 	4933 	0.051910
36.35 	0.060256 	4929 	0.058572
36.37 	0.056876 	4923 	0.056638
36.39 	0.058728 	4921 	0.057776
36.41 	0.054126 	4896 	0.053647
36.43 	0.053977 	4928 	0.053264
36.45 	0.054564 	4930 	0.053713
36.47 	0.056524 	4936 	0.055811
36.49 	0.062728 	4942 	0.061542
36.51 	0.052098 	4933 	0.051504
36.53 	0.057050 	4943 	0.056102
36.55 	0.055612 	4927 	0.054780
36.57 	0.054722 	4934 	0.054010
36.59 	0.058311 	4939 	0.057481
36.61 	0.053133 	4931 	0.052183
36.63 	0.050497 	4931 	0.049784
36.65 	0.058191 	4932 	0.056034
36.67 	0.060041 	4930 	0.059328
36.69 	0.059241 	4929 	0.057934
36.71 	0.058118 	4921 	0.057523
36.73 	0.051168 	4925 	0.049978
36.75 	0.058252 	4944 	0.057048
36.77 	0.057939 	4919 	0.057462
36.79 	0.053851 	4921 	0.052522
36.81 	0.054312 	4916 	0.053359
36.83 	0.052289 	4915 	0.051097
36.85 	0.057983 	4898 	0.056648
36.87 	0.051173 	4944 	0.050462
36.89 	0.061432 	4916 	0.060360
36.91 	0.052419 	4941 	0.051233
36.93 	0.055781 	4930 	0.055068
36.95 	0.052098 	4933 	0.050911
36.97 	0.048439 	4934 	0.047608
36.99 	0.054306 	4935 	0.053238
37.01 	0.049868 	4933 	0.049512
37.03 	0.055443 	4924 	0.054085
37.05 	0.058859 	4927 	0.058027
37.07 	0.053901 	4935 	0.052951
37.09 	0.053977 	4928 	0.053026
37.11 	0.051874 	4935 	0.050925
37.13 	0.055443 	4924 	0.054015
37.15 	0.056223 	4909 	0.055607
37.17 	0.049858 	4934 	0.049621
37.19 	0.051574 	4925 	0.051217
37.21 	0.052268 	4917 	0.051414
37.23 	0.053070 	4918 	0.051879
37.25 	0.052128 	4911 	0.051889
37.27 	0.057622 	4894 	0.056544
37.29 	0.051521 	4930 	0.050690
37.31 	0.060993 	4935 	0.059925
37.33 	0.056221 	4927 	0.055151
37.35 	0.053260 	4938 	0.052667
37.37 	0.057845 	4927 	0.057131
37.39 	0.056175 	4931 	0.055581
37.41 	0.057392 	4931 	0.056442
37.43 	0.054542 	4932 	0.053592
37.45 	0.053209 	4924 	0.051643
37.47 	0.053561 	4929 	0.052966
37.49 	0.058298 	4923 	0.056751
37.51 	0.051693 	4933 	0.050861
37.53 	0.057735 	4919 	0.056902
37.55 	0.050710 	4930 	0.049878
37.57 	0.057665 	4925 	0.056832
37.59 	0.059207 	4915 	0.057895
37.61 	0.056887 	4922 	0.056411
37.63 	0.051230 	4919 	0.050515
37.65 	0.061000 	4918 	0.060266
37.67 	0.058931 	4904 	0.057618
37.69 	0.055533 	4898 	0.054217
37.71 	0.053561 	4929 	0.052610
37.73 	0.057010 	4929 	0.055702
37.75 	0.057287 	4940 	0.056695
37.77 	0.054472 	4920 	0.053876
37.79 	0.057201 	4930 	0.056013
37.81 	0.056558 	4933 	0.055588
37.83 	0.049593 	4920 	0.048760
37.85 	0.056481 	4922 	0.055410
37.87 	0.054869 	4939 	0.053921
37.89 	0.052589 	4925 	0.052232
37.91 	0.056795 	4930 	0.056320
37.93 	0.059158 	4919 	0.058206
37.95 	0.058321 	4921 	0.057369
37.97 	0.053561 	4929 	0.053085
37.99 	0.054967 	4912 	0.053417
38.01 	0.050528 	4928 	0.049082
38.03 	0.054594 	4909 	0.053997
38.05 	0.050355 	4925 	0.049761
38.07 	0.055205 	4909 	0.054489
38.09 	0.053916 	4878 	0.053055
38.11 	0.059574 	4935 	0.057418
38.13 	0.057120 	4937 	0.056052
38.15 	0.056730 	4918 	0.055539
38.17 	0.061460 	4930 	0.060134
38.19 	0.062069 	4930 	0.061000
38.21 	0.061142 	4923 	0.060309
38.23 	0.061766 	4938 	0.060105
38.25 	0.057759 	4917 	0.057163
38.27 	0.054564 	4930 	0.053613
38.29 	0.055849 	4924 	0.054778
38.31 	0.056221 	4927 	0.055389
38.33 	0.061129 	4924 	0.059821
38.35 	0.054383 	4928 	0.053670
38.37 	0.053209 	4924 	0.052733
38.39 	0.055612 	4909 	0.054896
38.41 	0.058298 	4923 	0.057227
38.43 	0.058584 	4916 	0.057750
38.45 	0.053477 	4918 	0.052762
38.47 	0.069696 	4907 	0.067667
38.49 	0.068690 	4877 	0.067248
38.51 	0.066910 	4932 	0.065485
38.53 	0.064516 	4929 	0.063328
38.55 	0.066451 	4936 	0.065501
38.57 	0.064595 	4923 	0.063286
38.59 	0.062145 	4924 	0.060955
38.61 	0.064019 	4936 	0.063189
38.63 	0.061129 	4924 	0.059801
38.65 	0.069540 	4918 	0.067873
38.67 	0.065424 	4937 	0.063763
38.69 	0.060951 	4922 	0.060594
38.71 	0.063363 	4924 	0.061817
38.73 	0.058764 	4918 	0.057930
38.75 	0.061295 	4927 	0.060225
38.77 	0.055251 	4923 	0.054894
38.79 	0.059789 	4934 	0.059077
38.81 	0.062500 	4912 	0.061188
38.83 	0.067290 	4919 	0.065504
38.85 	0.058225 	4912 	0.057390
38.87 	0.057829 	4911 	0.056855
38.89 	0.059833 	4897 	0.058995
38.91 	0.054456 	4903 	0.053979
38.93 	0.047590 	4938 	0.046878
38.95 	0.051850 	4918 	0.051374
38.97 	0.055161 	4931 	0.054686
38.99 	0.054689 	4937 	0.053859
39.01 	0.056120 	4918 	0.054910
39.03 	0.059587 	4934 	0.058261
39.05 	0.052995 	4925 	0.052043
39.07 	0.050772 	4924 	0.049701
39.09 	0.051798 	4923 	0.050965
39.11 	0.049686 	4931 	0.048953
39.13 	0.055048 	4923 	0.054215
39.15 	0.061648 	4915 	0.060933
39.17 	0.054892 	4937 	0.053785
39.19 	0.049217 	4917 	0.048740
39.21 	0.056008 	4910 	0.055173
39.23 	0.052183 	4925 	0.051826
39.25 	0.048964 	4922 	0.048131
39.27 	0.054582 	4910 	0.054105
39.29 	0.058968 	4901 	0.058250
39.31 	0.057125 	4884 	0.056286
39.33 	0.053336 	4931 	0.052861
39.35 	0.055117 	4935 	0.054266
39.37 	0.056198 	4929 	0.054653
39.39 	0.047677 	4929 	0.047083
39.41 	0.049888 	4931 	0.049294
39.43 	0.052909 	4933 	0.051959
39.45 	0.050355 	4925 	0.049285
39.47 	0.060735 	4923 	0.059526
39.49 	0.053314 	4933 	0.052958
39.51 	0.055240 	4924 	0.054288
39.53 	0.054845 	4923 	0.054250
39.55 	0.055296 	4919 	0.054819
39.57 	0.054733 	4933 	0.053902
39.59 	0.055375 	4912 	0.054421
39.61 	0.056470 	4923 	0.055518
39.63 	0.064405 	4922 	0.063433
39.65 	0.051360 	4926 	0.050409
39.67 	0.057806 	4913 	0.056971
39.69 	0.051465 	4916 	0.050154
39.71 	0.050255 	4895 	0.049657
39.73 	0.059902 	4908 	0.059186
39.75 	0.053369 	4928 	0.052774
39.77 	0.052685 	4935 	0.052210
39.79 	0.062728 	4926 	0.061064
39.81 	0.053988 	4927 	0.053275
39.83 	0.054925 	4934 	0.053619
39.85 	0.057236 	4927 	0.056403
39.87 	0.056650 	4925 	0.055460
39.89 	0.058168 	4934 	0.057218
39.91 	0.055465 	4922 	0.054394
39.93 	0.053879 	4937 	0.052574
39.95 	0.056765 	4915 	0.055692
39.97 	0.048701 	4928 	0.047731
39.99 	0.056367 	4932 	0.055060
40.01 	0.053680 	4918 	0.052847
40.03 	0.053774 	4928 	0.053180
40.05 	0.049014 	4917 	0.048299
40.07 	0.051391 	4923 	0.050559
40.09 	0.051261 	4916 	0.049950
40.11 	0.053092 	4916 	0.052496
40.13 	0.053309 	4896 	0.052591
40.15 	0.053939 	4913 	0.052985
40.17 	0.051542 	4928 	0.050948
40.19 	0.060661 	4929 	0.059354
40.21 	0.051064 	4935 	0.050352
40.23 	0.058597 	4932 	0.057647
40.25 	0.050000 	4920 	0.048790
40.27 	0.054081 	4937 	0.052658
40.29 	0.048102 	4927 	0.047389
40.31 	0.051022 	4939 	0.050173
40.33 	0.057989 	4932 	0.056920
40.35 	0.053466 	4919 	0.053109
40.37 	0.051735 	4929 	0.051497
40.39 	0.047658 	4931 	0.047420
40.41 	0.054416 	4925 	0.053584
40.43 	0.050589 	4922 	0.049637
40.45 	0.047233 	4933 	0.046520
40.47 	0.054087 	4918 	0.052658
40.49 	0.043443 	4926 	0.042492
40.51 	0.049980 	4922 	0.049147
40.53 	0.046989 	4916 	0.046274
40.55 	0.047677 	4908 	0.047080
40.57 	0.048875 	4890 	0.048276
40.59 	0.058132 	4937 	0.057421
40.61 	0.052280 	4935 	0.051567
40.63 	0.052535 	4930 	0.050991
40.65 	0.051853 	4937 	0.051260
40.67 	0.046634 	4932 	0.045308
40.69 	0.056309 	4937 	0.055835
40.71 	0.044404 	4932 	0.043691
40.73 	0.056029 	4926 	0.054959
40.75 	0.052728 	4931 	0.051302
40.77 	0.048390 	4939 	0.047797
40.79 	0.054427 	4924 	0.053832
40.81 	0.048978 	4941 	0.048859
40.83 	0.050325 	4928 	0.049374
40.85 	0.052193 	4924 	0.051123
40.87 	0.050731 	4928 	0.050017
40.89 	0.052525 	4931 	0.051693
40.91 	0.050579 	4923 	0.049508
40.93 	0.044791 	4934 	0.044198
40.95 	0.049461 	4913 	0.048507
40.97 	0.051178 	4924 	0.050821
40.99 	0.044882 	4924 	0.044525
41.01 	0.052932 	4912 	0.052335
41.03 	0.053619 	4905 	0.052186
41.05 	0.051864 	4936 	0.051270
41.07 	0.047465 	4930 	0.046257
41.09 	0.048390 	4939 	0.048035
41.11 	0.056535 	4935 	0.056179
41.13 	0.054092 	4936 	0.052668
41.15 	0.050192 	4941 	0.049481
41.17 	0.049858 	4934 	0.048770
41.19 	0.051318 	4930 	0.050368
41.21 	0.044561 	4937 	0.044206
41.23 	0.048593 	4939 	0.047763
41.25 	0.054125 	4933 	0.052938
41.27 	0.046238 	4931 	0.045169
41.29 	0.049919 	4928 	0.049324
41.31 	0.049260 	4933 	0.048904
41.33 	0.052664 	4937 	0.051714
41.35 	0.052653 	4938 	0.051704
41.37 	0.048132 	4924 	0.047299
41.39 	0.053923 	4933 	0.053210
41.41 	0.047706 	4926 	0.047111
41.43 	0.057415 	4929 	0.056702
41.45 	0.045584 	4914 	0.044034
41.47 	0.052984 	4926 	0.052271
41.49 	0.046607 	4892 	0.045529
41.51 	0.049595 	4940 	0.049121
41.53 	0.051578 	4944 	0.050847
41.55 	0.054103 	4935 	0.053866
41.57 	0.046549 	4941 	0.045838
41.59 	0.051490 	4933 	0.050520
41.61 	0.047042 	4953 	0.046333
41.63 	0.049413 	4938 	0.048701
41.65 	0.056604 	4929 	0.055396
41.67 	0.048178 	4940 	0.046992
41.69 	0.049525 	4947 	0.048913
41.71 	0.047021 	4934 	0.046308
41.73 	0.051256 	4936 	0.050188
41.75 	0.051532 	4929 	0.050224
41.77 	0.048168 	4941 	0.047694
41.79 	0.046117 	4944 	0.045406
41.81 	0.044571 	4936 	0.043977
41.83 	0.048701 	4928 	0.048107
41.85 	0.048593 	4939 	0.047525
41.87 	0.044174 	4935 	0.043699
41.89 	0.054733 	4933 	0.053783
41.91 	0.045381 	4936 	0.045144
41.93 	0.047648 	4932 	0.046935
41.95 	0.044818 	4931 	0.044343
41.97 	0.048840 	4914 	0.048006
41.99 	0.050357 	4905 	0.049879
42.01 	0.047349 	4942 	0.046757
42.03 	0.052237 	4939 	0.050933
42.05 	0.051494 	4952 	0.050785
42.07 	0.044561 	4937 	0.043968
42.09 	0.042846 	4948 	0.042609
42.11 	0.048332 	4945 	0.047502
42.13 	0.047927 	4945 	0.047335
42.15 	0.042325 	4938 	0.041732
42.17 	0.044124 	4918 	0.043409
42.19 	0.045029 	4908 	0.044074
42.21 	0.046317 	4901 	0.045361
42.23 	0.050899 	4892 	0.050061
42.25 	0.049294 	4889 	0.048695
42.27 	0.040213 	4874 	0.039733
42.29 	0.046473 	4863 	0.045972
42.31 	0.045932 	4855 	0.045811
42.33 	0.052338 	4834 	0.051489
42.35 	0.044440 	4838 	0.043713
42.37 	0.045135 	4830 	0.044771
42.39 	0.047460 	4804 	0.047217
42.41 	0.049958 	4804 	0.049349
42.43 	0.044240 	4792 	0.043996
42.45 	0.048367 	4776 	0.047876
42.47 	0.045750 	4765 	0.045381
42.49 	0.045121 	4765 	0.044506
42.51 	0.046173 	4743 	0.045309
42.53 	0.049492 	4728 	0.049121
42.55 	0.043118 	4708 	0.042372
42.57 	0.048414 	4730 	0.047424
42.59 	0.046099 	4729 	0.045603
42.61 	0.046941 	4708 	0.045946
42.63 	0.043321 	4709 	0.042699
42.65 	0.050587 	4685 	0.049587
42.67 	0.046541 	4684 	0.045791
42.69 	0.043646 	4674 	0.043144
42.71 	0.042676 	4663 	0.042174
42.73 	0.044181 	4640 	0.043802
42.75 	0.047217 	4617 	0.046456
42.77 	0.047391 	4600 	0.047009
42.79 	0.041248 	4582 	0.041121
42.81 	0.052389 	4562 	0.051619
42.83 	0.048942 	4536 	0.047909
42.85 	0.045274 	4528 	0.044476
42.87 	0.042009 	4499 	0.041619
42.89 	0.046429 	4480 	0.045644
42.91 	0.050494 	4456 	0.049836
42.93 	0.046334 	4446 	0.045939
42.95 	0.046875 	4416 	0.046212
42.97 	0.047489 	4401 	0.047223
42.99 	0.045382 	4385 	0.045248
43.01 	0.048820 	4363 	0.048148
43.03 	0.047311 	4333 	0.046771
43.05 	0.043699 	4325 	0.042480
43.07 	0.047253 	4296 	0.046981
43.09 	0.044595 	4283 	0.043911
43.11 	0.046533 	4255 	0.045845
43.13 	0.044371 	4237 	0.044371
43.15 	0.049453 	4206 	0.049035
43.17 	0.041637 	4179 	0.041356
43.19 	0.042442 	4194 	0.041883
43.21 	0.046980 	4172 	0.046278
43.23 	0.043813 	4154 	0.043390
43.25 	0.042080 	4135 	0.041796
43.27 	0.043605 	4105 	0.042749
43.29 	0.049024 	4100 	0.048596
43.31 	0.046090 	4079 	0.045515
43.33 	0.042459 	4051 	0.041736
43.35 	0.043899 	4032 	0.043172
43.37 	0.046326 	4015 	0.045889
43.39 	0.043228 	4002 	0.042936
43.41 	0.048338 	3972 	0.048043
43.43 	0.042677 	3960 	0.042381
43.45 	0.048030 	3935 	0.047286
43.47 	0.043866 	3921 	0.043568
43.49 	0.047472 	3897 	0.047322
43.51 	0.037916 	3877 	0.037463
43.53 	0.049185 	3863 	0.048426
43.55 	0.041161 	2964 	0.040568
43.57 	0.037980 	2238 	0.037719
43.59 	0.053837 	1746 	0.052831
43.61 	0.042191 	1351 	0.041324
43.63 	0.057942 	1001 	0.056090
43.65 	0.059680 	687 	0.057122
43.67 	0.059761 	502 	0.058594
43.69 	0.054496 	367 	0.054496
43.71 	0.058577 	239 	0.058577
43.73 	0.033333 	120 	0.033333
43.75 	0.062500 	16 	0.062500