File: Example_Data/25SC_s1_0046.001.dat
#F C:\frames\spec\25SC_s1_0046.001
#C title =s:46 frm:1 25SC_s1
#C wavelength =0.15406

#S 1  fr_average C:\frames\spec\25SC_s1_0046.001 C:\win32app\speccom\mask.axs chi 0 180 0 360 0.02
#C 2 theta =0.000000 to 180 deg
#C   q   =0.000000 to 81.568 nm^-1
#C  chi  =0.000000 to 360 deg
#C collumns:
#C  1 position (2theta or chi in degrees)
#C  2 average intensity (sum of all counts in the region divided with number of pixels)
#C  3 Number of pixels in region)
#C  4 error (sum of sqrt(intensity) for all pixels divided by number)
#N 4
#L TTh  Int  N_pix  Err
32.99 	0.065574 	61 	0.065574
33.01 	0.074456 	873 	0.070990
33.03 	0.065421 	1391 	0.064157
33.05 	0.053500 	1757 	0.052833
33.07 	0.065366 	2050 	0.065080
33.09 	0.054112 	2347 	0.052864
33.11 	0.049632 	2579 	0.049405
33.13 	0.061224 	2793 	0.060176
33.15 	0.054351 	2999 	0.053765
33.17 	0.056545 	3201 	0.055264
33.19 	0.054159 	3342 	0.053108
33.21 	0.055006 	3436 	0.054153
33.23 	0.060744 	3523 	0.059912
33.25 	0.059247 	3612 	0.058436
33.27 	0.060055 	3630 	0.059410
33.29 	0.061678 	3648 	0.060554
33.31 	0.058197 	3660 	0.057717
33.33 	0.064297 	3686 	0.063026
33.35 	0.057661 	3694 	0.056868
33.37 	0.062197 	3714 	0.060778
33.39 	0.061411 	3729 	0.060311
33.41 	0.067112 	3740 	0.065859
33.43 	0.064610 	3761 	0.063676
33.45 	0.061755 	3773 	0.059711
33.47 	0.053976 	3798 	0.053359
33.49 	0.053820 	3809 	0.052436
33.51 	0.063434 	3815 	0.061284
33.53 	0.054153 	3841 	0.053085
33.55 	0.056727 	3843 	0.056117
33.57 	0.057003 	3877 	0.055794
33.59 	0.067010 	3880 	0.065953
33.61 	0.054745 	3909 	0.053996
33.63 	0.057923 	3919 	0.057325
33.65 	0.063851 	3931 	0.062361
33.67 	0.057663 	3954 	0.057071
33.69 	0.056413 	3953 	0.055820
33.71 	0.052327 	3975 	0.050853
33.73 	0.061688 	4004 	0.060079
33.75 	0.061015 	3999 	0.059063
33.77 	0.061118 	4025 	0.060099
33.79 	0.054442 	4041 	0.053427
33.81 	0.054978 	4038 	0.053527
33.83 	0.052593 	4050 	0.052303
33.85 	0.058795 	4099 	0.057366
33.87 	0.059110 	4111 	0.058255
33.89 	0.055084 	4121 	0.054350
33.91 	0.057604 	4149 	0.056757
33.93 	0.056854 	4151 	0.055443
33.95 	0.055250 	4181 	0.054269
33.97 	0.059666 	4190 	0.058827
33.99 	0.059762 	4200 	0.058786
34.01 	0.057441 	4213 	0.056746
34.03 	0.058200 	4244 	0.057372
34.05 	0.053387 	4252 	0.052836
34.07 	0.054358 	4268 	0.053397
34.09 	0.058096 	4286 	0.057413
34.11 	0.056253 	4302 	0.054891
34.13 	0.059192 	4308 	0.058376
34.15 	0.057262 	4331 	0.056856
34.17 	0.053793 	4350 	0.052581
34.19 	0.054333 	4362 	0.053930
34.21 	0.054450 	4371 	0.054182
34.23 	0.057364 	4393 	0.056297
34.25 	0.053134 	4404 	0.052734
34.27 	0.057440 	4422 	0.056248
34.29 	0.052762 	4435 	0.051838
34.31 	0.053611 	4458 	0.052692
34.33 	0.055021 	4471 	0.054366
34.35 	0.057984 	4484 	0.057723
34.37 	0.052995 	4491 	0.052212
34.39 	0.058196 	4502 	0.057025
34.41 	0.058992 	4526 	0.057957
34.43 	0.056620 	4539 	0.055975
34.45 	0.057111 	4535 	0.056315
34.47 	0.057927 	4592 	0.057289
34.49 	0.056124 	4597 	0.055741
34.51 	0.053409 	4606 	0.052391
34.53 	0.055568 	4643 	0.054811
34.55 	0.054491 	4643 	0.054112
34.57 	0.056009 	4660 	0.055129
34.59 	0.055615 	4675 	0.054111
34.61 	0.055567 	4697 	0.055069
34.63 	0.056263 	4710 	0.054895
34.65 	0.058250 	4721 	0.057134
34.67 	0.054841 	4741 	0.054079
34.69 	0.048170 	4754 	0.047554
34.71 	0.054343 	4766 	0.054097
34.73 	0.055776 	4787 	0.054919
34.75 	0.057404 	4808 	0.056551
34.77 	0.050643 	4818 	0.050400
34.79 	0.054104 	4824 	0.053497
34.81 	0.055315 	4845 	0.054831
34.83 	0.061086 	4862 	0.059861
34.85 	0.051140 	4869 	0.050177
34.87 	0.058751 	4868 	0.058029
34.89 	0.048546 	4882 	0.047946
34.91 	0.054281 	4882 	0.053921
34.93 	0.056338 	4899 	0.055621
34.95 	0.055010 	4890 	0.054531
34.97 	0.057732 	4902 	0.057254
34.99 	0.054932 	4897 	0.054214
35.01 	0.058704 	4923 	0.057633
35.03 	0.057050 	4943 	0.056339
35.05 	0.061249 	4947 	0.060420
35.07 	0.055466 	4940 	0.054873
35.09 	0.051282 	4953 	0.050336
35.11 	0.062058 	4947 	0.060637
35.13 	0.056071 	4958 	0.055106
35.15 	0.054284 	4937 	0.053216
35.17 	0.054590 	4946 	0.053524
35.19 	0.051194 	4942 	0.050483
35.21 	0.054196 	4945 	0.052893
35.23 	0.056016 	4945 	0.055305
35.25 	0.055230 	4943 	0.053808
35.27 	0.055376 	4948 	0.053936
35.29 	0.053185 	4945 	0.052119
35.31 	0.059193 	4933 	0.058243
35.33 	0.051588 	4943 	0.051114
35.35 	0.058276 	4942 	0.056972
35.37 	0.050213 	4939 	0.049620
35.39 	0.058847 	4945 	0.057663
35.41 	0.057247 	4926 	0.056296
35.43 	0.053720 	4933 	0.052651
35.45 	0.055702 	4937 	0.054990
35.47 	0.054958 	4931 	0.054127
35.49 	0.054175 	4910 	0.053082
35.51 	0.054608 	4926 	0.054133
35.53 	0.051121 	4949 	0.050648
35.55 	0.050556 	4945 	0.049589
35.57 	0.061626 	4933 	0.060201
35.59 	0.063903 	4945 	0.062481
35.61 	0.056860 	4942 	0.056030
35.63 	0.054218 	4943 	0.052796
35.65 	0.056825 	4945 	0.055996
35.67 	0.061311 	4942 	0.060007
35.69 	0.054792 	4946 	0.053963
35.71 	0.051246 	4937 	0.050415
35.73 	0.059360 	4936 	0.058529
35.75 	0.055972 	4931 	0.055260
35.77 	0.054938 	4951 	0.054110
35.79 	0.057583 	4932 	0.056633
35.81 	0.055747 	4933 	0.055153
35.83 	0.055803 	4946 	0.055092
35.85 	0.057548 	4935 	0.056836
35.87 	0.055657 	4923 	0.054586
35.89 	0.056546 	4934 	0.055715
35.91 	0.051553 	4927 	0.050483
35.93 	0.056627 	4927 	0.055438
35.95 	0.051047 	4917 	0.050452
35.97 	0.057410 	4912 	0.056814
35.99 	0.056894 	4939 	0.055352
36.01 	0.056389 	4930 	0.055538
36.03 	0.056646 	4943 	0.055816
36.05 	0.056016 	4945 	0.054713
36.07 	0.059324 	4939 	0.058612
36.09 	0.055263 	4940 	0.054433
36.11 	0.067559 	4929 	0.066133
36.13 	0.051801 	4942 	0.050853
36.15 	0.066005 	4939 	0.065037
36.17 	0.056853 	4925 	0.055882
36.19 	0.057895 	4940 	0.056828
36.21 	0.053966 	4929 	0.052639
36.23 	0.057953 	4935 	0.057004
36.25 	0.056062 	4941 	0.055587
36.27 	0.057462 	4925 	0.056015
36.29 	0.057189 	4931 	0.056358
36.31 	0.051136 	4928 	0.050404
36.33 	0.054733 	4933 	0.054258
36.35 	0.061473 	4929 	0.059532
36.37 	0.057688 	4923 	0.056836
36.39 	0.053851 	4921 	0.053018
36.41 	0.054534 	4896 	0.053577
36.43 	0.054992 	4928 	0.054516
36.45 	0.058215 	4930 	0.057502
36.47 	0.057536 	4936 	0.056943
36.49 	0.059490 	4942 	0.058660
36.51 	0.057977 	4933 	0.056532
36.53 	0.056646 	4943 	0.055935
36.55 	0.057033 	4927 	0.055963
36.57 	0.055533 	4934 	0.054702
36.59 	0.056489 	4939 	0.055303
36.61 	0.055770 	4931 	0.055057
36.63 	0.053742 	4931 	0.052910
36.65 	0.058191 	4932 	0.057103
36.67 	0.051318 	4930 	0.050724
36.69 	0.053966 	4929 	0.053016
36.71 	0.050396 	4921 	0.049563
36.73 	0.061320 	4925 	0.060249
36.75 	0.054814 	4944 	0.053847
36.77 	0.058752 	4919 	0.058156
36.79 	0.058118 	4921 	0.057761
36.81 	0.060212 	4916 	0.058782
36.83 	0.054323 	4915 	0.053847
36.85 	0.050837 	4898 	0.050000
36.87 	0.055016 	4944 	0.054187
36.89 	0.052278 	4916 	0.051325
36.91 	0.056062 	4941 	0.055232
36.93 	0.060649 	4930 	0.059936
36.95 	0.059599 	4933 	0.058767
36.97 	0.053101 	4934 	0.051538
36.99 	0.060588 	4935 	0.059282
37.01 	0.056355 	4933 	0.055504
37.03 	0.056052 	4924 	0.055219
37.05 	0.050538 	4927 	0.049943
37.07 	0.059372 	4935 	0.058422
37.09 	0.051542 	4928 	0.050829
37.11 	0.057953 	4935 	0.056766
37.13 	0.058489 	4924 	0.058013
37.15 	0.059279 	4909 	0.057827
37.17 	0.054722 	4934 	0.053773
37.19 	0.056447 	4925 	0.055614
37.21 	0.058572 	4917 	0.057719
37.23 	0.050224 	4918 	0.049628
37.25 	0.058440 	4911 	0.057128
37.27 	0.053535 	4894 	0.052577
37.29 	0.057404 	4930 	0.057166
37.31 	0.055319 	4935 	0.053776
37.33 	0.052770 	4927 	0.051582
37.35 	0.051843 	4938 	0.051131
37.37 	0.054597 	4927 	0.053408
37.39 	0.060028 	4931 	0.058246
37.41 	0.059826 	4931 	0.059113
37.43 	0.054339 	4932 	0.052657
37.45 	0.054833 	4924 	0.054239
37.47 	0.051329 	4929 	0.050497
37.49 	0.052610 	4923 	0.051539
37.51 	0.053720 	4933 	0.053482
37.53 	0.051027 	4919 	0.050193
37.55 	0.051521 	4930 	0.051402
37.57 	0.056650 	4925 	0.056174
37.59 	0.053306 	4915 	0.052114
37.61 	0.055872 	4922 	0.055019
37.63 	0.056516 	4919 	0.055563
37.65 	0.046157 	4918 	0.045423
37.67 	0.053630 	4904 	0.053032
37.69 	0.050837 	4898 	0.050478
37.71 	0.055792 	4929 	0.054960
37.73 	0.052546 	4929 	0.051595
37.75 	0.056478 	4940 	0.056122
37.77 	0.055081 	4920 	0.054605
37.79 	0.059026 	4930 	0.058195
37.81 	0.045611 	4933 	0.045255
37.83 	0.054472 	4920 	0.053995
37.85 	0.052824 	4922 	0.051991
37.87 	0.047176 	4939 	0.046444
37.89 	0.054416 	4925 	0.053584
37.91 	0.051318 	4930 	0.050368
37.93 	0.050417 	4919 	0.049683
37.95 	0.054460 	4921 	0.053627
37.97 	0.058227 	4929 	0.056801
37.99 	0.057614 	4912 	0.055944
38.01 	0.054180 	4928 	0.053467
38.03 	0.058871 	4909 	0.057559
38.05 	0.054416 	4925 	0.053465
38.07 	0.053168 	4909 	0.052690
38.09 	0.058221 	4878 	0.057480
38.11 	0.057345 	4935 	0.056515
38.13 	0.058740 	4937 	0.058028
38.15 	0.055307 	4918 	0.054354
38.17 	0.058418 	4930 	0.057111
38.19 	0.058012 	4930 	0.056943
38.21 	0.060126 	4923 	0.059055
38.23 	0.058728 	4938 	0.056949
38.25 	0.061826 	4917 	0.061112
38.27 	0.061663 	4930 	0.060812
38.29 	0.065800 	4924 	0.065086
38.31 	0.069008 	4927 	0.067205
38.33 	0.064379 	4924 	0.062832
38.35 	0.068385 	4928 	0.066582
38.37 	0.075345 	4924 	0.073799
38.39 	0.073742 	4909 	0.071475
38.41 	0.073126 	4923 	0.070846
38.43 	0.070179 	4916 	0.068134
38.45 	0.076454 	4918 	0.074310
38.47 	0.083350 	4907 	0.080227
38.49 	0.074226 	4877 	0.072424
38.51 	0.077453 	4932 	0.076384
38.53 	0.071820 	4929 	0.070631
38.55 	0.071718 	4936 	0.069938
38.57 	0.067032 	4923 	0.065723
38.59 	0.073314 	4924 	0.071768
38.61 	0.064627 	4936 	0.063678
38.63 	0.066409 	4924 	0.064863
38.65 	0.074827 	4918 	0.072664
38.67 	0.066235 	4937 	0.065404
38.69 	0.065624 	4922 	0.064434
38.71 	0.058895 	4924 	0.057706
38.73 	0.058560 	4918 	0.057846
38.75 	0.058656 	4927 	0.057230
38.77 	0.055860 	4923 	0.054908
38.79 	0.054114 	4934 	0.053521
38.81 	0.056393 	4912 	0.055677
38.83 	0.054483 	4919 	0.053649
38.85 	0.050692 	4912 	0.050215
38.87 	0.058237 	4911 	0.057005
38.89 	0.050235 	4897 	0.049517
38.91 	0.048134 	4903 	0.047178
38.93 	0.047590 	4938 	0.047116
38.95 	0.054900 	4918 	0.054305
38.97 	0.048469 	4931 	0.047043
38.99 	0.053271 	4937 	0.052322
39.01 	0.047784 	4918 	0.047307
39.03 	0.050263 	4934 	0.049907
39.05 	0.049746 	4925 	0.049132
39.07 	0.045695 	4924 	0.045576
39.09 	0.044079 	4923 	0.043603
39.11 	0.043602 	4931 	0.043245
39.13 	0.045704 	4923 	0.044871
39.15 	0.044557 	4915 	0.043584
39.17 	0.049018 	4937 	0.048187
39.19 	0.046980 	4917 	0.046503
39.21 	0.042770 	4910 	0.042293
39.23 	0.049746 	4925 	0.049389
39.25 	0.045713 	4922 	0.045118
39.27 	0.049695 	4910 	0.049098
39.29 	0.055295 	4901 	0.054080
39.31 	0.043817 	4884 	0.043217
39.33 	0.047860 	4931 	0.047504
39.35 	0.043769 	4935 	0.043413
39.37 	0.041591 	4929 	0.041353
39.39 	0.046460 	4929 	0.045628
39.41 	0.045630 	4931 	0.044917
39.43 	0.042773 	4933 	0.042654
39.45 	0.040203 	4925 	0.039846
39.47 	0.037579 	4923 	0.037579
39.49 	0.041151 	4933 	0.040558
39.51 	0.046913 	4924 	0.046299
39.53 	0.044688 	4923 	0.044093
39.55 	0.043708 	4919 	0.043232
39.57 	0.042165 	4933 	0.041690
39.59 	0.050489 	4912 	0.049873
39.61 	0.043469 	4923 	0.042993
39.63 	0.045104 	4922 	0.044747
39.65 	0.043646 	4926 	0.042932
39.67 	0.047222 	4913 	0.046864
39.69 	0.042311 	4916 	0.041477
39.71 	0.045761 	4895 	0.045023
39.73 	0.046455 	4908 	0.045977
39.75 	0.043628 	4928 	0.042915
39.77 	0.044377 	4935 	0.043902
39.79 	0.047300 	4926 	0.046824
39.81 	0.046276 	4927 	0.045562
39.83 	0.041346 	4934 	0.040990
39.85 	0.038563 	4927 	0.037850
39.87 	0.039797 	4925 	0.039440
39.89 	0.041346 	4934 	0.040752
39.91 	0.041650 	4922 	0.041412
39.93 	0.045979 	4937 	0.045386
39.95 	0.038657 	4915 	0.038300
39.97 	0.043425 	4928 	0.042237
39.99 	0.038727 	4932 	0.037876
40.01 	0.045140 	4918 	0.045140
40.03 	0.042208 	4928 	0.041376
40.05 	0.045760 	4917 	0.045045
40.07 	0.041235 	4923 	0.040521
40.09 	0.041904 	4916 	0.041427
40.11 	0.044345 	4916 	0.043988
40.13 	0.045343 	4896 	0.044506
40.15 	0.040912 	4913 	0.039958
40.17 	0.043425 	4928 	0.042950
40.19 	0.045851 	4929 	0.045019
40.21 	0.046201 	4935 	0.045488
40.23 	0.040754 	4932 	0.040398
40.25 	0.040447 	4920 	0.039733
40.27 	0.041118 	4937 	0.040762
40.29 	0.038157 	4927 	0.037919
40.31 	0.043936 	4939 	0.043224
40.33 	0.041565 	4932 	0.040971
40.35 	0.033950 	4919 	0.033712
40.37 	0.039968 	4929 	0.039373
40.39 	0.039749 	4931 	0.039273
40.41 	0.037766 	4925 	0.037291
40.43 	0.042666 	4922 	0.041951
40.45 	0.040543 	4933 	0.039950
40.47 	0.050834 	4918 	0.050119
40.49 	0.039586 	4926 	0.039110
40.51 	0.041243 	4922 	0.040529
40.53 	0.041294 	4916 	0.040698
40.55 	0.042380 	4908 	0.041902
40.57 	0.037219 	4890 	0.036859
40.59 	0.048613 	4937 	0.048375
40.61 	0.037690 	4935 	0.037334
40.63 	0.038945 	4930 	0.038470
40.65 	0.042536 	4937 	0.042061
40.67 	0.039132 	4932 	0.038895
40.69 	0.041928 	4937 	0.041691
40.71 	0.039538 	4932 	0.038825
40.73 	0.039383 	4926 	0.038888
40.75 	0.042385 	4931 	0.041672
40.77 	0.038469 	4939 	0.038232
40.79 	0.042445 	4924 	0.042088
40.81 	0.046752 	4941 	0.046277
40.83 	0.040584 	4928 	0.040228
40.85 	0.041430 	4924 	0.041073
40.87 	0.039773 	4928 	0.039297
40.89 	0.039546 	4931 	0.038952
40.91 	0.041844 	4923 	0.041249
40.93 	0.041346 	4934 	0.040258
40.95 	0.040708 	4913 	0.040470
40.97 	0.045491 	4924 	0.044996
40.99 	0.042445 	4924 	0.042088
41.01 	0.043770 	4912 	0.043413
41.03 	0.039755 	4905 	0.039636
41.05 	0.045381 	4936 	0.044669
41.07 	0.043611 	4930 	0.043373
41.09 	0.041304 	4939 	0.040711
41.11 	0.040122 	4935 	0.039528
41.13 	0.038898 	4936 	0.038423
41.15 	0.040680 	4941 	0.040324
41.17 	0.040332 	4934 	0.040214
41.19 	0.038337 	4930 	0.037980
41.21 	0.042333 	4937 	0.041977
41.23 	0.043936 	4939 	0.043462
41.25 	0.039732 	4933 	0.039139
41.27 	0.041777 	4931 	0.041183
41.29 	0.040990 	4928 	0.040396
41.31 	0.038922 	4933 	0.038447
41.33 	0.038282 	4937 	0.038045
41.35 	0.041717 	4938 	0.041124
41.37 	0.033306 	4924 	0.033187
41.39 	0.041760 	4933 	0.041522
41.41 	0.037150 	4926 	0.036674
41.43 	0.040779 	4929 	0.039809
41.45 	0.040293 	4914 	0.040055
41.47 	0.039992 	4926 	0.039635
41.49 	0.045993 	4892 	0.045395
41.51 	0.039271 	4940 	0.038916
41.53 	0.042476 	4944 	0.041646
41.55 	0.038703 	4935 	0.038347
41.57 	0.037644 	4941 	0.037407
41.59 	0.037503 	4933 	0.037384
41.61 	0.039976 	4953 	0.039858
41.63 	0.038275 	4938 	0.038156
41.65 	0.041388 	4929 	0.040793
41.67 	0.038462 	4940 	0.037987
41.69 	0.039014 	4947 	0.038658
41.71 	0.041143 	4934 	0.040787
41.73 	0.037075 	4936 	0.036600
41.75 	0.033881 	4929 	0.033168
41.77 	0.039870 	4941 	0.039396
41.79 	0.042678 	4944 	0.042204
41.81 	0.039100 	4936 	0.038844
41.83 	0.035308 	4928 	0.034476
41.85 	0.035837 	4939 	0.035600
41.87 	0.037893 	4935 	0.037418
41.89 	0.038922 	4933 	0.038328
41.91 	0.038088 	4936 	0.037850
41.93 	0.040552 	4932 	0.040195
41.95 	0.038937 	4931 	0.038343
41.97 	0.037851 	4914 	0.037613
41.99 	0.035678 	4905 	0.035200
42.01 	0.039458 	4942 	0.038509
42.03 	0.036040 	4939 	0.035447
42.05 	0.035541 	4952 	0.035186
42.07 	0.037877 	4937 	0.037640
42.09 	0.036985 	4948 	0.036610
42.11 	0.040040 	4945 	0.039804
42.13 	0.035794 	4945 	0.035675
42.15 	0.044957 	4938 	0.044483
42.17 	0.038430 	4918 	0.038430
42.19 	0.039935 	4908 	0.039318
42.21 	0.035299 	4901 	0.035179
42.23 	0.039452 	4892 	0.038853
42.25 	0.040499 	4889 	0.039780
42.27 	0.039598 	4874 	0.038757
42.29 	0.037425 	4863 	0.037185
42.31 	0.039341 	4855 	0.038617
42.33 	0.035788 	4834 	0.034940
42.35 	0.039066 	4838 	0.038945
42.37 	0.037888 	4830 	0.037403
42.39 	0.040591 	4804 	0.040347
42.41 	0.039550 	4804 	0.039063
42.43 	0.039232 	4792 	0.039110
42.45 	0.040201 	4776 	0.040201
42.47 	0.040504 	4765 	0.040258
42.49 	0.036097 	4765 	0.035974
42.51 	0.045962 	4743 	0.045221
42.53 	0.040821 	4728 	0.040201
42.55 	0.035896 	4708 	0.035523
42.57 	0.041015 	4730 	0.040767
42.59 	0.030239 	4729 	0.030239
42.61 	0.035684 	4708 	0.035311
42.63 	0.038012 	4709 	0.037266
42.65 	0.037567 	4685 	0.036942
42.67 	0.035440 	4684 	0.035315
42.69 	0.037655 	4674 	0.037530
42.71 	0.039245 	4663 	0.038994
42.73 	0.035776 	4640 	0.035397
42.75 	0.040936 	4617 	0.040428
42.77 	0.039130 	4600 	0.038366
42.79 	0.032737 	4582 	0.032737
42.81 	0.039456 	4562 	0.038814
42.83 	0.035714 	4536 	0.035327
42.85 	0.040194 	4528 	0.039397
42.87 	0.034897 	4499 	0.034766
42.89 	0.034375 	4480 	0.033721
42.91 	0.033887 	4456 	0.033493
42.93 	0.033963 	4446 	0.033568
42.95 	0.040987 	4416 	0.039926
42.97 	0.038855 	4401 	0.038455
42.99 	0.039909 	4385 	0.039374
43.01 	0.038964 	4363 	0.038561
43.03 	0.042465 	4333 	0.041654
43.05 	0.034220 	4325 	0.033949
43.07 	0.036080 	4296 	0.036080
43.09 	0.035256 	4283 	0.034982
43.11 	0.035958 	4255 	0.035682
43.13 	0.031154 	4237 	0.030463
43.15 	0.036614 	4206 	0.036197
43.17 	0.035654 	4179 	0.035234
43.19 	0.034335 	4194 	0.033613
43.21 	0.039310 	4172 	0.038888
43.23 	0.033943 	4154 	0.033661
43.25 	0.036276 	4135 	0.035567
43.27 	0.034348 	4105 	0.034063
43.29 	0.035610 	4100 	0.035038
43.31 	0.038490 	4079 	0.037915
43.33 	0.034313 	4051 	0.033734
43.35 	0.032986 	4032 	0.032841
43.37 	0.035616 	4015 	0.035325
43.39 	0.035732 	4002 	0.034854
43.41 	0.034743 	3972 	0.034301
43.43 	0.037121 	3960 	0.036973
43.45 	0.044473 	3935 	0.044324
43.47 	0.046417 	3921 	0.045520
43.49 	0.041570 	3897 	0.041570
43.51 	0.037142 	3877 	0.036689
43.53 	0.034429 	3863 	0.033974
43.55 	0.040486 	2964 	0.039893
43.57 	0.045576 	2238 	0.044529
43.59 	0.032073 	1746 	0.032073
43.61 	0.043671 	1351 	0.043238
43.63 	0.034965 	1001 	0.034380
43.65 	0.040757 	687 	0.040757
43.67 	0.035857 	502 	0.033523
43.69 	0.021798 	367 	0.021798
43.71 	0.033473 	239 	0.033473
43.73 	0.025000 	120 	0.025000
43.75 	0.125000 	16 	0.125000