File: Example_Data/25SC_s1_0032.001.dat
#F C:\frames\spec\25SC_s1_0032.001
#C title =s:32 frm:1 25SC_s1
#C wavelength =0.15406

#S 1  fr_average C:\frames\spec\25SC_s1_0032.001 C:\win32app\speccom\mask.axs chi 0 180 0 360 0.02
#C 2 theta =0.000000 to 180 deg
#C   q   =0.000000 to 81.568 nm^-1
#C  chi  =0.000000 to 360 deg
#C collumns:
#C  1 position (2theta or chi in degrees)
#C  2 average intensity (sum of all counts in the region divided with number of pixels)
#C  3 Number of pixels in region)
#C  4 error (sum of sqrt(intensity) for all pixels divided by number)
#N 4
#L TTh  Int  N_pix  Err
32.99 	0.065574 	61 	0.055971
33.01 	0.053837 	873 	0.053837
33.03 	0.070453 	1391 	0.068768
33.05 	0.057484 	1757 	0.056818
33.07 	0.064878 	2050 	0.063164
33.09 	0.050703 	2347 	0.049705
33.11 	0.061264 	2579 	0.059901
33.13 	0.060508 	2793 	0.058167
33.15 	0.053351 	2999 	0.052765
33.17 	0.058107 	3201 	0.057558
33.19 	0.063136 	3342 	0.061529
33.21 	0.056752 	3436 	0.055218
33.23 	0.058473 	3523 	0.057475
33.25 	0.057032 	3612 	0.056195
33.27 	0.055096 	3630 	0.054451
33.29 	0.060581 	3648 	0.058815
33.31 	0.056831 	3660 	0.055230
33.33 	0.056701 	3686 	0.055245
33.35 	0.057120 	3694 	0.055534
33.37 	0.059235 	3714 	0.058447
33.39 	0.062215 	3729 	0.061587
33.41 	0.060428 	3740 	0.059488
33.43 	0.059559 	3761 	0.059091
33.45 	0.050888 	3773 	0.050267
33.47 	0.058189 	3798 	0.057083
33.49 	0.052770 	3809 	0.051976
33.51 	0.057405 	3815 	0.057251
33.53 	0.065087 	3841 	0.063842
33.55 	0.059849 	3843 	0.058782
33.57 	0.060098 	3877 	0.059040
33.59 	0.054639 	3880 	0.054035
33.61 	0.054234 	3909 	0.053934
33.63 	0.056392 	3919 	0.054897
33.65 	0.059018 	3931 	0.057677
33.67 	0.060192 	3954 	0.059155
33.69 	0.061978 	3953 	0.060793
33.71 	0.058868 	3975 	0.058278
33.73 	0.063936 	4004 	0.062595
33.75 	0.063266 	3999 	0.061753
33.77 	0.057143 	4025 	0.056270
33.79 	0.060876 	4041 	0.059548
33.81 	0.060674 	4038 	0.059320
33.83 	0.061235 	4050 	0.060511
33.85 	0.066602 	4099 	0.065744
33.87 	0.061056 	4111 	0.060628
33.89 	0.057268 	4121 	0.055988
33.91 	0.058809 	4149 	0.057657
33.93 	0.057817 	4151 	0.056688
33.95 	0.054532 	4181 	0.054112
33.97 	0.057279 	4190 	0.056301
33.99 	0.062381 	4200 	0.061823
34.01 	0.049846 	4213 	0.049290
34.03 	0.050660 	4244 	0.050384
34.05 	0.055974 	4252 	0.054872
34.07 	0.058107 	4268 	0.057558
34.09 	0.060196 	4286 	0.058966
34.11 	0.058810 	4302 	0.057448
34.13 	0.053853 	4308 	0.053309
34.15 	0.060494 	4331 	0.059412
34.17 	0.052874 	4350 	0.052066
34.19 	0.056625 	4362 	0.055685
34.21 	0.051476 	4371 	0.050269
34.23 	0.056453 	4393 	0.055920
34.25 	0.050636 	4404 	0.050104
34.27 	0.066260 	4422 	0.064802
34.29 	0.054566 	4435 	0.053377
34.31 	0.059668 	4458 	0.058748
34.33 	0.052561 	4471 	0.052037
34.35 	0.064228 	4484 	0.063314
34.37 	0.057226 	4491 	0.056443
34.39 	0.060418 	4502 	0.059897
34.41 	0.058551 	4526 	0.056868
34.43 	0.056180 	4539 	0.055405
34.45 	0.053363 	4535 	0.052437
34.47 	0.057274 	4592 	0.056508
34.49 	0.055688 	4597 	0.054542
34.51 	0.056231 	4606 	0.055468
34.53 	0.059014 	4643 	0.058383
34.55 	0.053629 	4643 	0.052620
34.57 	0.058584 	4660 	0.057704
34.59 	0.047273 	4675 	0.046646
34.61 	0.054290 	4697 	0.052918
34.63 	0.050743 	4710 	0.049624
34.65 	0.061216 	4721 	0.059975
34.67 	0.056950 	4741 	0.056065
34.69 	0.056163 	4754 	0.055054
34.71 	0.053714 	4766 	0.053345
34.73 	0.058492 	4787 	0.056779
34.75 	0.058860 	4808 	0.058007
34.77 	0.057285 	4818 	0.056434
34.79 	0.048507 	4824 	0.047779
34.81 	0.058204 	4845 	0.057116
34.83 	0.058206 	4862 	0.057102
34.85 	0.063052 	4869 	0.062210
34.87 	0.058751 	4868 	0.057668
34.89 	0.054281 	4882 	0.054041
34.91 	0.057558 	4882 	0.056478
34.93 	0.062258 	4899 	0.060942
34.95 	0.055624 	4890 	0.054905
34.97 	0.053040 	4902 	0.052084
34.99 	0.059016 	4897 	0.058059
35.01 	0.050985 	4923 	0.050033
35.03 	0.050577 	4943 	0.049866
35.05 	0.055387 	4947 	0.054203
35.07 	0.059514 	4940 	0.058427
35.09 	0.051484 	4953 	0.050893
35.11 	0.055791 	4947 	0.055081
35.13 	0.056071 	4958 	0.055480
35.15 	0.058132 	4937 	0.057183
35.17 	0.056207 	4946 	0.054885
35.19 	0.056050 	4942 	0.055458
35.21 	0.057027 	4945 	0.056080
35.23 	0.053792 	4945 	0.052726
35.25 	0.058467 	4943 	0.057755
35.27 	0.054365 	4948 	0.053418
35.29 	0.055005 	4945 	0.054294
35.31 	0.057977 	4933 	0.056908
35.33 	0.054623 	4943 	0.053912
35.35 	0.052813 	4942 	0.051864
35.37 	0.054060 	4939 	0.053585
35.39 	0.056825 	4945 	0.055285
35.41 	0.058465 	4926 	0.056781
35.43 	0.054125 	4933 	0.053413
35.45 	0.058132 	4937 	0.057183
35.47 	0.053742 	4931 	0.052791
35.49 	0.055804 	4910 	0.054969
35.51 	0.056841 	4926 	0.056009
35.53 	0.057183 	4949 	0.056236
35.55 	0.055612 	4945 	0.054309
35.57 	0.057571 	4933 	0.056265
35.59 	0.057230 	4945 	0.056400
35.61 	0.054634 	4942 	0.053923
35.63 	0.054016 	4943 	0.053186
35.65 	0.056421 	4945 	0.055453
35.67 	0.056253 	4942 	0.055423
35.69 	0.061262 	4946 	0.059722
35.71 	0.053271 	4937 	0.052678
35.73 	0.057131 	4936 	0.055806
35.75 	0.060231 	4931 	0.059261
35.77 	0.056150 	4951 	0.055204
35.79 	0.063463 	4932 	0.062394
35.81 	0.052909 	4933 	0.052196
35.83 	0.054994 	4946 	0.054283
35.85 	0.055927 	4935 	0.055096
35.87 	0.059517 	4923 	0.058803
35.89 	0.062221 	4934 	0.060658
35.91 	0.055409 	4927 	0.054933
35.93 	0.060483 	4927 	0.059294
35.95 	0.055318 	4917 	0.055080
35.97 	0.057410 	4912 	0.056933
35.99 	0.060539 	4939 	0.059946
36.01 	0.064300 	4930 	0.063568
36.03 	0.055027 	4943 	0.054198
36.05 	0.057027 	4945 	0.056080
36.07 	0.060336 	4939 	0.058794
36.09 	0.059514 	4940 	0.058328
36.11 	0.051126 	4929 	0.050175
36.13 	0.052408 	4942 	0.052052
36.15 	0.058109 	4939 	0.057160
36.17 	0.053198 	4925 	0.052722
36.19 	0.057085 	4940 	0.055899
36.21 	0.059241 	4929 	0.057934
36.23 	0.062614 	4935 	0.062020
36.25 	0.059705 	4941 	0.058638
36.27 	0.058477 	4925 	0.057387
36.29 	0.055161 	4931 	0.054211
36.31 	0.057427 	4928 	0.056595
36.33 	0.060207 	4933 	0.058188
36.35 	0.057618 	4929 	0.056667
36.37 	0.057688 	4923 	0.056617
36.39 	0.046332 	4921 	0.045717
36.41 	0.056577 	4896 	0.055480
36.43 	0.065747 	4928 	0.064796
36.45 	0.050507 	4930 	0.049438
36.47 	0.059360 	4936 	0.058648
36.49 	0.054634 	4942 	0.053685
36.51 	0.056761 	4933 	0.055929
36.53 	0.056039 	4943 	0.054854
36.55 	0.056627 	4927 	0.056151
36.57 	0.053304 	4934 	0.052591
36.59 	0.060944 	4939 	0.059520
36.61 	0.063882 	4931 	0.062337
36.63 	0.054958 	4931 	0.054127
36.65 	0.053731 	4932 	0.053493
36.67 	0.055984 	4930 	0.054914
36.69 	0.051938 	4929 	0.051343
36.71 	0.053038 	4921 	0.052562
36.73 	0.051371 	4925 	0.050281
36.75 	0.052387 	4944 	0.052031
36.77 	0.053060 	4919 	0.052345
36.79 	0.055883 	4921 	0.054574
36.81 	0.062653 	4916 	0.061203
36.83 	0.051882 	4915 	0.051048
36.85 	0.054920 	4898 	0.054203
36.87 	0.058657 	4944 	0.057946
36.89 	0.048820 	4916 	0.048463
36.91 	0.054240 	4941 	0.053884
36.93 	0.052333 	4930 	0.052214
36.95 	0.055747 	4933 	0.054797
36.97 	0.055128 	4934 	0.054534
36.99 	0.056130 	4935 	0.055417
37.01 	0.053517 	4933 	0.052923
37.03 	0.058489 	4924 	0.057656
37.05 	0.055409 	4927 	0.054815
37.07 	0.046201 	4935 	0.045370
37.09 	0.049513 	4928 	0.048562
37.11 	0.054103 	4935 	0.053272
37.13 	0.057067 	4924 	0.055025
37.15 	0.056223 	4909 	0.055507
37.17 	0.054317 	4934 	0.053605
37.19 	0.054619 	4925 	0.053787
37.21 	0.053488 	4917 	0.052773
37.23 	0.058967 	4918 	0.057518
37.25 	0.049074 	4911 	0.048716
37.27 	0.055578 	4894 	0.054262
37.29 	0.062069 	4930 	0.060881
37.31 	0.050659 	4935 	0.050302
37.33 	0.055409 	4927 	0.054557
37.35 	0.051438 	4938 	0.050489
37.37 	0.056627 	4927 	0.055913
37.39 	0.064084 	4931 	0.063134
37.41 	0.057189 	4931 	0.056120
37.43 	0.047648 	4932 	0.047410
37.45 	0.048132 	4924 	0.047656
37.47 	0.050517 	4929 	0.049804
37.49 	0.050782 	4923 	0.049711
37.51 	0.055747 	4933 	0.055035
37.53 	0.055296 	4919 	0.054224
37.55 	0.053347 	4930 	0.052396
37.57 	0.055025 	4925 	0.053836
37.59 	0.052085 	4915 	0.051013
37.61 	0.054449 	4922 	0.053616
37.63 	0.052246 	4919 	0.051155
37.65 	0.053680 	4918 	0.052708
37.67 	0.056077 	4904 	0.055360
37.69 	0.056758 	4898 	0.055562
37.71 	0.052749 	4929 	0.051561
37.73 	0.061473 	4929 	0.060403
37.75 	0.055466 	4940 	0.054379
37.77 	0.055894 	4920 	0.055180
37.79 	0.052738 	4930 	0.051907
37.81 	0.058382 	4933 	0.057551
37.83 	0.054065 	4920 	0.053232
37.85 	0.050996 	4922 	0.050400
37.87 	0.052845 	4939 	0.051777
37.89 	0.051574 	4925 	0.050365
37.91 	0.050304 	4930 	0.049354
37.93 	0.053466 	4919 	0.053109
37.95 	0.052632 	4921 	0.051679
37.97 	0.049909 	4929 	0.048720
37.99 	0.053542 	4912 	0.052708
38.01 	0.054586 	4928 	0.053992
38.03 	0.055001 	4909 	0.054285
38.05 	0.049949 	4925 	0.049117
38.07 	0.056223 	4909 	0.055507
38.09 	0.058016 	4878 	0.057055
38.11 	0.053495 	4935 	0.052022
38.13 	0.055904 	4937 	0.054599
38.15 	0.056527 	4918 	0.055336
38.17 	0.061866 	4930 	0.060540
38.19 	0.059635 	4930 	0.058328
38.21 	0.054438 	4923 	0.053843
38.23 	0.057716 	4938 	0.056885
38.25 	0.063860 	4917 	0.062550
38.27 	0.065720 	4930 	0.064294
38.29 	0.058083 	4924 	0.057607
38.31 	0.066369 	4927 	0.065775
38.33 	0.061942 	4924 	0.060990
38.35 	0.065138 	4928 	0.063236
38.37 	0.064175 	4924 	0.063343
38.39 	0.072520 	4909 	0.070452
38.41 	0.072314 	4923 	0.071481
38.43 	0.070179 	4916 	0.069325
38.45 	0.075030 	4918 	0.073244
38.47 	0.068270 	4907 	0.066340
38.49 	0.074226 	4877 	0.072254
38.51 	0.073601 	4932 	0.072057
38.53 	0.069791 	4929 	0.068365
38.55 	0.074757 	4936 	0.073214
38.57 	0.071501 	4923 	0.070311
38.59 	0.074736 	4924 	0.073070
38.61 	0.072326 	4936 	0.071732
38.63 	0.071080 	4924 	0.069058
38.65 	0.067507 	4918 	0.065820
38.67 	0.077983 	4937 	0.076302
38.69 	0.065421 	4922 	0.064468
38.71 	0.070065 	4924 	0.068518
38.73 	0.059577 	4918 	0.058386
38.75 	0.060077 	4927 	0.058631
38.77 	0.059110 	4923 	0.057544
38.79 	0.064451 	4934 	0.063620
38.81 	0.064739 	4912 	0.063070
38.83 	0.049807 	4919 	0.049073
38.85 	0.053950 	4912 	0.052876
38.87 	0.057015 	4911 	0.055941
38.89 	0.052685 	4897 	0.051728
38.91 	0.055272 	4903 	0.054177
38.93 	0.053463 	4938 	0.052870
38.95 	0.055307 	4918 	0.054592
38.97 	0.042993 	4931 	0.042637
38.99 	0.042131 	4937 	0.041775
39.01 	0.046564 	4918 	0.045968
39.03 	0.045602 	4934 	0.044633
39.05 	0.047107 	4925 	0.046393
39.07 	0.048944 	4924 	0.048111
39.09 	0.049360 	4923 	0.049003
39.11 	0.054756 	4931 	0.053211
39.13 	0.053220 	4923 	0.052030
39.15 	0.051679 	4915 	0.050963
39.17 	0.046384 	4937 	0.046147
39.19 	0.050437 	4917 	0.050437
39.21 	0.044603 	4910 	0.043768
39.23 	0.044670 	4925 	0.044075
39.25 	0.046932 	4922 	0.046218
39.27 	0.043788 	4910 	0.042834
39.29 	0.049174 	4901 	0.048217
39.31 	0.039926 	4884 	0.039327
39.33 	0.052119 	4931 	0.051644
39.35 	0.045795 	4935 	0.045677
39.37 	0.046054 	4929 	0.045460
39.39 	0.051126 	4929 	0.049938
39.41 	0.041979 	4931 	0.041385
39.43 	0.045408 	4933 	0.044558
39.45 	0.046091 	4925 	0.045239
39.47 	0.045907 	4923 	0.045193
39.49 	0.045003 	4933 	0.044528
39.51 	0.047116 	4924 	0.046402
39.53 	0.044891 	4923 	0.044534
39.55 	0.044725 	4919 	0.044367
39.57 	0.042773 	4933 	0.041942
39.59 	0.042549 	4912 	0.041953
39.61 	0.042048 	4923 	0.041810
39.63 	0.041853 	4922 	0.041734
39.65 	0.047706 	4926 	0.047349
39.67 	0.039691 	4913 	0.039214
39.69 	0.048617 	4916 	0.047902
39.71 	0.049642 	4895 	0.048446
39.73 	0.035249 	4908 	0.035010
39.75 	0.044440 	4928 	0.043588
39.77 	0.047214 	4935 	0.046145
39.79 	0.044255 	4926 	0.043779
39.81 	0.046276 	4927 	0.045800
39.83 	0.048034 	4934 	0.047797
39.85 	0.046276 	4927 	0.045800
39.87 	0.040000 	4925 	0.039643
39.89 	0.044183 	4934 	0.042996
39.91 	0.044088 	4922 	0.043235
39.93 	0.043346 	4937 	0.042634
39.95 	0.044964 	4915 	0.044488
39.97 	0.041599 	4928 	0.041005
39.99 	0.040754 	4932 	0.039923
40.01 	0.043514 	4918 	0.043156
40.03 	0.042411 	4928 	0.041460
40.05 	0.050641 	4917 	0.048973
40.07 	0.043266 	4923 	0.042394
40.09 	0.042921 	4916 	0.042444
40.11 	0.039870 	4916 	0.039393
40.13 	0.045956 	4896 	0.045118
40.15 	0.044169 	4913 	0.043215
40.17 	0.042208 	4928 	0.041475
40.19 	0.043417 	4929 	0.043179
40.21 	0.050456 	4935 	0.049388
40.23 	0.045012 	4932 	0.044656
40.25 	0.037195 	4920 	0.036719
40.27 	0.037270 	4937 	0.036676
40.29 	0.039578 	4927 	0.038508
40.31 	0.048593 	4939 	0.048237
40.33 	0.040957 	4932 	0.040244
40.35 	0.045131 	4919 	0.044536
40.37 	0.040982 	4929 	0.040744
40.39 	0.048469 	4931 	0.047875
40.41 	0.041421 	4925 	0.040946
40.43 	0.040024 	4922 	0.039310
40.45 	0.044395 	4933 	0.043920
40.47 	0.042497 	4918 	0.041663
40.49 	0.039992 	4926 	0.039516
40.51 	0.042869 	4922 	0.042016
40.53 	0.045769 	4916 	0.044935
40.55 	0.037082 	4908 	0.036963
40.57 	0.044581 	4890 	0.044221
40.59 	0.042131 	4937 	0.041775
40.61 	0.047011 	4935 	0.046180
40.63 	0.039351 	4930 	0.038876
40.65 	0.044359 	4937 	0.044122
40.67 	0.042782 	4932 	0.042426
40.69 	0.046790 	4937 	0.046196
40.71 	0.043390 	4932 	0.042796
40.73 	0.039383 	4926 	0.039145
40.75 	0.037518 	4931 	0.037161
40.77 	0.041911 	4939 	0.041437
40.79 	0.043664 	4924 	0.043188
40.81 	0.039668 	4941 	0.039194
40.83 	0.038555 	4928 	0.037604
40.85 	0.036759 	4924 	0.036283
40.87 	0.048093 	4928 	0.047498
40.89 	0.038937 	4931 	0.038343
40.91 	0.046719 	4923 	0.046363
40.93 	0.039319 	4934 	0.039082
40.95 	0.034602 	4913 	0.034364
40.97 	0.047319 	4924 	0.046249
40.99 	0.046507 	4924 	0.046150
41.01 	0.043160 	4912 	0.042802
41.03 	0.040571 	4905 	0.040093
41.05 	0.040113 	4936 	0.039757
41.07 	0.037323 	4930 	0.036728
41.09 	0.043329 	4939 	0.042953
41.11 	0.039108 	4935 	0.038396
41.13 	0.042545 	4936 	0.042070
41.15 	0.044525 	4941 	0.044288
41.17 	0.040535 	4934 	0.039704
41.19 	0.038540 	4930 	0.038183
41.21 	0.036257 	4937 	0.035901
41.23 	0.045556 	4939 	0.044726
41.25 	0.040341 	4933 	0.039866
41.27 	0.037315 	4931 	0.036959
41.29 	0.041802 	4928 	0.041683
41.31 	0.041151 	4933 	0.040914
41.33 	0.039093 	4937 	0.038618
41.35 	0.041312 	4938 	0.040838
41.37 	0.042242 	4924 	0.041766
41.39 	0.047030 	4933 	0.046436
41.41 	0.037962 	4926 	0.037367
41.43 	0.036924 	4929 	0.036568
41.45 	0.036834 	4914 	0.036476
41.47 	0.041210 	4926 	0.040734
41.49 	0.039043 	4892 	0.038804
41.51 	0.039474 	4940 	0.038762
41.53 	0.041262 	4944 	0.040788
41.55 	0.036474 	4935 	0.035999
41.57 	0.047156 	4941 	0.046801
41.59 	0.034867 	4933 	0.034273
41.61 	0.040581 	4953 	0.040345
41.63 	0.040705 	4938 	0.040230
41.65 	0.041185 	4929 	0.040591
41.67 	0.042915 	4940 	0.042678
41.69 	0.032141 	4947 	0.031549
41.71 	0.039522 	4934 	0.038809
41.73 	0.034643 	4936 	0.034406
41.75 	0.037330 	4929 	0.036855
41.77 	0.037239 	4941 	0.037121
41.79 	0.039442 	4944 	0.039205
41.81 	0.036264 	4936 	0.035671
41.83 	0.040381 	4928 	0.040025
41.85 	0.036242 	4939 	0.035768
41.87 	0.039311 	4935 	0.038718
41.89 	0.040543 	4933 	0.040306
41.91 	0.035251 	4936 	0.035251
41.93 	0.045215 	4932 	0.044265
41.95 	0.034679 	4931 	0.034441
41.97 	0.038665 	4914 	0.037831
41.99 	0.041182 	4905 	0.040824
42.01 	0.036423 	4942 	0.036185
42.03 	0.033408 	4939 	0.033170
42.05 	0.040388 	4952 	0.039915
42.07 	0.038890 	4937 	0.038534
42.09 	0.036176 	4948 	0.035466
42.11 	0.041052 	4945 	0.040341
42.13 	0.038827 	4945 	0.038353
42.15 	0.033819 	4938 	0.033463
42.17 	0.039854 	4918 	0.039615
42.19 	0.036267 	4908 	0.035909
42.21 	0.039992 	4901 	0.039872
42.23 	0.042518 	4892 	0.042039
42.25 	0.039067 	4889 	0.038588
42.27 	0.038367 	4874 	0.038247
42.29 	0.032901 	4863 	0.032901
42.31 	0.038105 	4855 	0.037864
42.33 	0.040960 	4834 	0.040596
42.35 	0.038032 	4838 	0.037548
42.37 	0.035404 	4830 	0.034656
42.39 	0.035179 	4804 	0.034935
42.41 	0.042465 	4804 	0.041611
42.43 	0.041528 	4792 	0.040672
42.45 	0.034338 	4776 	0.033602
42.47 	0.040294 	4765 	0.040048
42.49 	0.039664 	4765 	0.039172
42.51 	0.037107 	4743 	0.036737
42.53 	0.040186 	4728 	0.039443
42.55 	0.033985 	4708 	0.033736
42.57 	0.037632 	4730 	0.037261
42.59 	0.038274 	4729 	0.037903
42.61 	0.032285 	4708 	0.032161
42.63 	0.033553 	4709 	0.033180
42.65 	0.039061 	4685 	0.038686
42.67 	0.038002 	4684 	0.037106
42.69 	0.037869 	4674 	0.037493
42.71 	0.036243 	4663 	0.035992
42.73 	0.038578 	4640 	0.038199
42.75 	0.036820 	4617 	0.036313
42.77 	0.037174 	4600 	0.037047
42.79 	0.037756 	4582 	0.037117
42.81 	0.038580 	4562 	0.037938
42.83 	0.038580 	4536 	0.037805
42.85 	0.039311 	4528 	0.039182
42.87 	0.032896 	4499 	0.032375
42.89 	0.040179 	4480 	0.040048
42.91 	0.039273 	4456 	0.038616
42.93 	0.041610 	4446 	0.040820
42.95 	0.032609 	4416 	0.032343
42.97 	0.033174 	4401 	0.033041
42.99 	0.034892 	4385 	0.034624
43.01 	0.036672 	4363 	0.036269
43.03 	0.036926 	4333 	0.036656
43.05 	0.039075 	4325 	0.038804
43.07 	0.040037 	4296 	0.039355
43.09 	0.044128 	4283 	0.043444
43.11 	0.037838 	4255 	0.037425
43.13 	0.038707 	4237 	0.038430
43.15 	0.038992 	4206 	0.037738
43.17 	0.034937 	4179 	0.034937
43.19 	0.036481 	4194 	0.036062
43.21 	0.043864 	4172 	0.043723
43.23 	0.038036 	4154 	0.038036
43.25 	0.038694 	4135 	0.038269
43.27 	0.037515 	4105 	0.037515
43.29 	0.040488 	4100 	0.040059
43.31 	0.034077 	4079 	0.033646
43.33 	0.039250 	4051 	0.038816
43.35 	0.037698 	4032 	0.036391
43.37 	0.035118 	4015 	0.034681
43.39 	0.036982 	4002 	0.036982
43.41 	0.037513 	3972 	0.037070
43.43 	0.038889 	3960 	0.038593
43.45 	0.042948 	3935 	0.042650
43.47 	0.034685 	3921 	0.034685
43.49 	0.038748 	3897 	0.038597
43.51 	0.039979 	3877 	0.039677
43.53 	0.034170 	3863 	0.033867
43.55 	0.043185 	2964 	0.043185
43.57 	0.032172 	2238 	0.032172
43.59 	0.036655 	1746 	0.036655
43.61 	0.030348 	1351 	0.029914
43.63 	0.030969 	1001 	0.030969
43.65 	0.033479 	687 	0.033479
43.67 	0.035857 	502 	0.035857
43.69 	0.046322 	367 	0.044725
43.71 	0.037657 	239 	0.037657
43.73 	0.025000 	120 	0.025000
43.75 	0.125000 	16 	0.125000