File: Example_Data/25SC_s1_0034.003.dat
#F C:\frames\spec\25SC_s1_0034.003
#C title =s:34 frm:3 25SC_s1
#C wavelength =0.15406

#S 1  fr_average C:\frames\spec\25SC_s1_0034.003 C:\win32app\speccom\mask.axs chi 0 180 0 360 0.02
#C 2 theta =0.000000 to 180 deg
#C   q   =0.000000 to 81.568 nm^-1
#C  chi  =0.000000 to 360 deg
#C collumns:
#C  1 position (2theta or chi in degrees)
#C  2 average intensity (sum of all counts in the region divided with number of pixels)
#C  3 Number of pixels in region)
#C  4 error (sum of sqrt(intensity) for all pixels divided by number)
#N 4
#L TTh  Int  N_pix  Err
32.99 	0.065574 	61 	0.065574
33.01 	0.061856 	873 	0.061185
33.03 	0.053918 	1391 	0.053076
33.05 	0.055777 	1757 	0.054110
33.07 	0.056585 	2050 	0.056300
33.09 	0.058798 	2347 	0.058299
33.11 	0.063978 	2579 	0.062843
33.13 	0.057286 	2793 	0.056447
33.15 	0.067689 	2999 	0.066713
33.17 	0.056232 	3201 	0.055683
33.19 	0.064333 	3342 	0.063632
33.21 	0.053551 	3436 	0.053039
33.23 	0.051093 	3523 	0.050261
33.25 	0.057309 	3612 	0.056498
33.27 	0.055923 	3630 	0.054632
33.29 	0.055921 	3648 	0.055279
33.31 	0.057923 	3660 	0.056483
33.33 	0.064026 	3686 	0.062755
33.35 	0.054683 	3694 	0.054049
33.37 	0.060851 	3714 	0.059116
33.39 	0.063824 	3729 	0.062253
33.41 	0.057219 	3740 	0.055653
33.43 	0.063813 	3761 	0.063034
33.45 	0.059634 	3773 	0.059013
33.47 	0.063981 	3798 	0.063364
33.49 	0.062746 	3809 	0.061208
33.51 	0.060813 	3815 	0.060045
33.53 	0.065087 	3841 	0.063537
33.55 	0.062972 	3843 	0.061422
33.57 	0.055455 	3877 	0.055304
33.59 	0.056701 	3880 	0.055946
33.61 	0.061653 	3909 	0.061053
33.63 	0.058944 	3919 	0.058196
33.65 	0.055965 	3931 	0.054922
33.67 	0.065250 	3954 	0.064213
33.69 	0.063749 	3953 	0.062267
33.71 	0.059874 	3975 	0.059285
33.73 	0.060440 	4004 	0.059123
33.75 	0.052513 	3999 	0.052220
33.77 	0.066832 	4025 	0.065814
33.79 	0.061371 	4041 	0.060066
33.81 	0.056711 	4038 	0.055986
33.83 	0.060741 	4050 	0.059584
33.85 	0.053916 	4099 	0.053630
33.87 	0.065434 	4111 	0.064722
33.89 	0.062606 	4121 	0.062038
33.91 	0.057122 	4149 	0.055828
33.93 	0.066008 	4151 	0.064597
33.95 	0.067926 	4181 	0.067226
33.97 	0.058473 	4190 	0.057191
33.99 	0.068095 	4200 	0.066538
34.01 	0.058628 	4213 	0.058072
34.03 	0.059378 	4244 	0.058274
34.05 	0.054092 	4252 	0.052990
34.07 	0.063027 	4268 	0.061769
34.09 	0.060196 	4286 	0.058260
34.11 	0.057183 	4302 	0.056366
34.13 	0.062906 	4308 	0.061818
34.15 	0.060263 	4331 	0.059857
34.17 	0.059080 	4350 	0.058003
34.19 	0.061669 	4362 	0.060729
34.21 	0.061084 	4371 	0.060548
34.23 	0.059185 	4393 	0.058518
34.25 	0.056994 	4404 	0.055908
34.27 	0.058345 	4422 	0.057682
34.29 	0.063811 	4435 	0.061786
34.31 	0.051817 	4458 	0.050766
34.33 	0.065310 	4471 	0.063738
34.35 	0.059099 	4484 	0.058446
34.37 	0.059230 	4491 	0.058317
34.39 	0.052421 	4502 	0.051510
34.41 	0.055236 	4526 	0.054201
34.43 	0.057061 	4539 	0.056029
34.45 	0.061080 	4535 	0.059789
34.47 	0.055749 	4592 	0.054580
34.49 	0.058734 	4597 	0.057587
34.51 	0.059053 	4606 	0.058290
34.53 	0.060737 	4643 	0.059727
34.55 	0.059444 	4643 	0.058687
34.57 	0.056009 	4660 	0.055380
34.59 	0.060107 	4675 	0.059856
34.61 	0.051948 	4697 	0.051449
34.63 	0.054989 	4710 	0.054492
34.65 	0.062275 	4721 	0.060714
34.67 	0.055684 	4741 	0.054820
34.69 	0.056794 	4754 	0.056178
34.71 	0.060848 	4766 	0.059864
34.73 	0.054523 	4787 	0.053788
34.75 	0.056780 	4808 	0.055664
34.77 	0.057700 	4818 	0.056971
34.79 	0.060738 	4824 	0.059159
34.81 	0.053251 	4845 	0.051921
34.83 	0.056561 	4862 	0.054995
34.85 	0.059971 	4869 	0.058768
34.87 	0.054232 	4868 	0.052628
34.89 	0.055510 	4882 	0.055270
34.91 	0.052438 	4882 	0.051838
34.93 	0.051235 	4899 	0.049920
34.95 	0.063804 	4890 	0.062486
34.97 	0.052428 	4902 	0.051352
34.99 	0.059424 	4897 	0.058706
35.01 	0.054845 	4923 	0.053774
35.03 	0.060894 	4943 	0.059808
35.05 	0.056802 	4947 	0.056092
35.07 	0.056275 	4940 	0.055920
35.09 	0.058147 	4953 	0.056688
35.11 	0.050131 	4947 	0.050013
35.13 	0.054457 	4958 	0.053867
35.15 	0.052461 	4937 	0.051986
35.17 	0.055398 	4946 	0.054569
35.19 	0.057264 	4942 	0.056534
35.21 	0.053185 	4945 	0.052474
35.23 	0.056825 	4945 	0.055996
35.25 	0.051993 	4943 	0.051637
35.27 	0.060226 	4948 	0.059398
35.29 	0.056218 	4945 	0.054777
35.31 	0.058585 	4933 	0.057754
35.33 	0.056039 	4943 	0.055091
35.35 	0.057871 	4942 	0.057160
35.37 	0.057704 	4939 	0.056874
35.39 	0.063903 	4945 	0.061840
35.41 	0.052578 	4926 	0.051627
35.43 	0.059193 	4933 	0.058599
35.45 	0.056512 	4937 	0.055563
35.47 	0.058609 	4931 	0.057540
35.49 	0.057026 	4910 	0.056191
35.51 	0.058059 	4926 	0.057207
35.53 	0.053748 	4949 	0.053512
35.55 	0.056421 	4945 	0.054881
35.57 	0.050679 	4933 	0.049848
35.59 	0.057432 	4945 	0.056346
35.61 	0.054229 	4942 	0.053873
35.63 	0.053409 	4943 	0.052461
35.65 	0.058645 	4945 	0.057816
35.67 	0.064549 	4942 	0.063482
35.69 	0.056005 	4946 	0.055768
35.71 	0.060158 	4937 	0.058971
35.73 	0.056929 	4936 	0.056098
35.75 	0.056175 	4931 	0.055581
35.77 	0.063825 	4951 	0.062524
35.79 	0.052920 	4932 	0.051494
35.81 	0.057977 	4933 	0.057146
35.83 	0.056611 	4946 	0.055190
35.85 	0.054711 	4935 	0.054118
35.87 	0.051391 	4923 	0.050677
35.89 	0.058776 	4934 	0.058301
35.91 	0.057845 	4927 	0.056893
35.93 	0.057642 	4927 	0.056928
35.95 	0.060199 	4917 	0.058889
35.97 	0.058632 	4912 	0.058036
35.99 	0.058716 	4939 	0.058123
36.01 	0.051724 	4930 	0.051011
36.03 	0.056443 	4943 	0.055495
36.05 	0.057027 	4945 	0.056317
36.07 	0.055477 	4939 	0.054390
36.09 	0.058502 	4940 	0.057198
36.11 	0.059038 	4929 	0.057949
36.13 	0.052813 	4942 	0.051015
36.15 	0.056692 	4939 	0.055387
36.17 	0.054619 	4925 	0.053311
36.19 	0.047571 	4940 	0.046741
36.21 	0.052140 	4929 	0.051071
36.23 	0.058764 	4935 	0.058527
36.25 	0.052014 	4941 	0.050947
36.27 	0.057665 	4925 	0.056713
36.29 	0.050497 	4931 	0.049665
36.31 	0.051339 	4928 	0.051102
36.33 	0.058788 	4933 	0.058075
36.35 	0.056401 	4929 	0.055807
36.37 	0.056673 	4923 	0.055959
36.39 	0.052835 	4921 	0.052240
36.41 	0.052900 	4896 	0.052043
36.43 	0.052963 	4928 	0.052131
36.45 	0.061460 	4930 	0.060153
36.47 	0.054092 	4936 	0.053380
36.49 	0.059288 	4942 	0.058339
36.51 	0.053720 	4933 	0.053126
36.53 	0.053409 	4943 	0.052105
36.55 	0.049929 	4927 	0.049097
36.57 	0.051480 	4934 	0.050886
36.59 	0.050415 	4939 	0.050059
36.61 	0.044818 	4931 	0.044581
36.63 	0.055770 	4931 	0.055057
36.65 	0.052109 	4932 	0.051277
36.67 	0.052738 	4930 	0.051550
36.69 	0.050923 	4929 	0.050804
36.71 	0.053648 	4921 	0.053291
36.73 	0.045482 	4925 	0.045244
36.75 	0.057646 	4944 	0.057290
36.77 	0.061801 	4919 	0.060491
36.79 	0.052022 	4921 	0.051308
36.81 	0.051871 	4916 	0.051395
36.83 	0.053713 	4915 	0.052382
36.85 	0.055941 	4898 	0.054626
36.87 	0.058455 	4944 	0.057270
36.89 	0.048413 	4916 	0.047579
36.91 	0.049585 	4941 	0.048992
36.93 	0.053550 	4930 	0.052817
36.95 	0.053314 	4933 	0.051771
36.97 	0.052088 	4934 	0.051731
36.99 	0.051469 	4935 	0.050994
37.01 	0.058585 	4933 	0.057754
37.03 	0.053006 	4924 	0.052054
37.05 	0.050741 	4927 	0.049552
37.07 	0.053698 	4935 	0.052630
37.09 	0.048498 	4928 	0.048142
37.11 	0.051064 	4935 	0.050114
37.13 	0.052803 	4924 	0.051732
37.15 	0.047056 	4909 	0.046221
37.17 	0.052088 	4934 	0.051138
37.19 	0.051777 	4925 	0.050687
37.21 	0.055522 	4917 	0.054330
37.23 	0.051647 	4918 	0.051290
37.25 	0.061087 	4911 	0.060014
37.27 	0.051696 	4894 	0.050958
37.29 	0.043205 	4930 	0.042492
37.31 	0.050051 	4935 	0.049338
37.33 	0.047899 	4927 	0.047662
37.35 	0.053058 	4938 	0.051634
37.37 	0.053785 	4927 	0.053191
37.39 	0.050902 	4931 	0.050071
37.41 	0.056175 	4931 	0.055225
37.43 	0.047040 	4932 	0.046327
37.45 	0.051381 	4924 	0.050905
37.47 	0.048083 	4929 	0.047607
37.49 	0.053829 	4923 	0.053115
37.51 	0.051693 	4933 	0.051099
37.53 	0.050213 	4919 	0.049499
37.55 	0.050507 	4930 	0.049913
37.57 	0.055228 	4925 	0.054634
37.59 	0.051272 	4915 	0.050557
37.61 	0.044697 	4922 	0.044340
37.63 	0.052450 	4919 	0.051854
37.65 	0.056934 	4918 	0.056219
37.67 	0.049959 	4904 	0.049004
37.69 	0.050020 	4898 	0.049183
37.71 	0.052343 	4929 	0.051749
37.73 	0.051329 	4929 	0.050497
37.75 	0.056275 	4940 	0.055090
37.77 	0.056707 	4920 	0.055398
37.79 	0.056187 	4930 	0.054979
37.81 	0.051287 	4933 	0.050100
37.83 	0.050610 	4920 	0.050134
37.85 	0.049777 	4922 	0.049181
37.87 	0.051225 	4939 	0.050395
37.89 	0.042843 	4925 	0.042010
37.91 	0.050710 	4930 	0.050353
37.93 	0.048384 	4919 	0.047550
37.95 	0.049177 	4921 	0.048463
37.97 	0.055589 	4929 	0.054639
37.99 	0.047842 	4912 	0.047007
38.01 	0.049716 	4928 	0.048745
38.03 	0.051742 	4909 	0.050548
38.05 	0.046701 	4925 	0.046463
38.07 	0.054594 	4909 	0.053878
38.09 	0.053506 	4878 	0.052905
38.11 	0.051469 	4935 	0.050401
38.13 	0.049018 	4937 	0.048662
38.15 	0.052054 	4918 	0.051200
38.17 	0.055781 	4930 	0.054454
38.19 	0.048479 	4930 	0.047766
38.21 	0.050782 	4923 	0.050425
38.23 	0.058728 	4938 	0.057661
38.25 	0.054912 	4917 	0.054177
38.27 	0.059026 	4930 	0.057581
38.29 	0.059504 	4924 	0.058533
38.31 	0.060483 	4927 	0.059889
38.33 	0.058692 	4924 	0.058097
38.35 	0.059253 	4928 	0.058540
38.37 	0.058083 	4924 	0.057012
38.39 	0.063353 	4909 	0.062040
38.41 	0.059517 	4923 	0.058307
38.43 	0.057567 	4916 	0.056376
38.45 	0.062424 	4918 	0.061114
38.47 	0.058284 	4907 	0.057448
38.49 	0.065614 	4877 	0.064393
38.51 	0.061436 	4932 	0.059773
38.53 	0.061473 	4929 	0.060879
38.55 	0.053890 	4936 	0.053178
38.57 	0.055048 	4923 	0.054572
38.59 	0.055849 	4924 	0.054402
38.61 	0.058549 	4936 	0.057837
38.63 	0.056052 	4924 	0.054466
38.65 	0.058357 	4918 	0.057404
38.67 	0.053069 	4937 	0.052475
38.69 	0.049370 	4922 	0.048418
38.71 	0.046304 	4924 	0.046185
38.73 	0.054494 	4918 	0.053779
38.75 	0.052365 	4927 	0.051770
38.77 	0.052813 	4923 	0.052456
38.79 	0.053912 	4934 	0.052804
38.81 	0.051710 	4912 	0.050756
38.83 	0.054686 	4919 	0.054090
38.85 	0.048453 	4912 	0.047737
38.87 	0.052942 	4911 	0.051988
38.89 	0.047376 	4897 	0.046399
38.91 	0.050581 	4903 	0.049506
38.93 	0.055488 	4938 	0.054776
38.95 	0.049410 	4918 	0.048696
38.97 	0.045832 	4931 	0.044882
38.99 	0.049625 	4937 	0.048657
39.01 	0.046767 	4918 	0.045933
39.03 	0.046818 	4934 	0.045749
39.05 	0.045685 	4925 	0.045210
39.07 	0.049350 	4924 	0.048993
39.09 	0.046516 	4923 	0.046159
39.11 	0.043399 	4931 	0.042924
39.13 	0.047329 	4923 	0.046377
39.15 	0.048627 	4915 	0.047912
39.17 	0.048815 	4937 	0.047510
39.19 	0.048403 	4917 	0.047689
39.21 	0.050916 	4910 	0.050201
39.23 	0.052386 	4925 	0.051434
39.25 	0.046323 	4922 	0.045966
39.27 	0.042566 	4910 	0.042089
39.29 	0.049582 	4901 	0.048745
39.31 	0.048731 	4884 	0.048131
39.33 	0.049077 	4931 	0.048226
39.35 	0.044377 	4935 	0.044021
39.37 	0.047068 	4929 	0.046593
39.39 	0.052343 	4929 	0.051987
39.41 	0.045021 	4931 	0.044071
39.43 	0.046422 	4933 	0.045947
39.45 	0.046091 	4925 	0.045497
39.47 	0.045704 	4923 	0.045228
39.49 	0.050274 	4933 	0.049442
39.51 	0.040617 	4924 	0.039904
39.53 	0.048345 	4923 	0.047155
39.55 	0.043505 	4919 	0.042909
39.57 	0.049463 	4933 	0.048513
39.59 	0.047028 	4912 	0.046431
39.61 	0.046719 	4923 	0.045887
39.63 	0.049980 	4922 	0.049742
39.65 	0.050345 	4926 	0.049869
39.67 	0.051496 	4913 	0.050781
39.69 	0.050448 	4916 	0.050209
39.71 	0.045148 	4895 	0.044550
39.73 	0.050326 	4908 	0.049849
39.75 	0.043019 	4928 	0.041831
39.77 	0.046606 	4935 	0.045894
39.79 	0.047909 	4926 	0.046839
39.81 	0.049320 	4927 	0.048131
39.83 	0.049250 	4934 	0.048538
39.85 	0.045667 	4927 	0.044478
39.87 	0.049543 	4925 	0.048711
39.89 	0.049453 	4934 	0.048740
39.91 	0.045104 	4922 	0.044013
39.93 	0.044764 	4937 	0.044408
39.95 	0.044354 	4915 	0.043639
39.97 	0.044643 	4928 	0.044405
39.99 	0.045823 	4932 	0.045111
40.01 	0.047784 	4918 	0.047069
40.03 	0.044440 	4928 	0.044083
40.05 	0.043319 	4917 	0.042723
40.07 	0.050376 	4923 	0.049781
40.09 	0.044142 	4916 	0.044022
40.11 	0.048617 	4916 	0.048259
40.13 	0.044526 	4896 	0.044167
40.15 	0.048850 	4913 	0.048254
40.17 	0.048093 	4928 	0.047617
40.19 	0.049706 	4929 	0.049349
40.21 	0.041945 	4935 	0.041352
40.23 	0.041363 	4932 	0.040769
40.25 	0.043089 	4920 	0.042137
40.27 	0.044359 	4937 	0.043766
40.29 	0.047290 	4927 	0.046339
40.31 	0.046973 	4939 	0.046499
40.33 	0.044809 	4932 	0.044216
40.35 	0.047571 	4919 	0.047094
40.37 	0.043011 	4929 	0.042892
40.39 	0.041777 	4931 	0.041183
40.41 	0.044061 	4925 	0.042872
40.43 	0.047948 	4922 	0.047710
40.45 	0.046017 	4933 	0.045898
40.47 	0.046564 	4918 	0.046325
40.49 	0.042631 	4926 	0.042036
40.51 	0.050386 	4922 	0.049553
40.53 	0.048617 	4916 	0.048140
40.55 	0.045640 	4908 	0.044665
40.57 	0.040286 	4890 	0.039687
40.59 	0.038890 	4937 	0.038178
40.61 	0.043364 	4935 	0.043245
40.63 	0.049087 	4930 	0.048493
40.65 	0.040308 	4937 	0.039596
40.67 	0.045620 	4932 	0.045264
40.69 	0.044359 	4937 	0.044003
40.71 	0.038727 	4932 	0.038489
40.73 	0.042225 	4926 	0.041868
40.75 	0.042588 	4931 	0.042231
40.77 	0.048593 	4939 	0.048474
40.79 	0.047319 	4924 	0.046962
40.81 	0.045335 	4941 	0.044861
40.83 	0.043019 	4928 	0.042663
40.85 	0.053412 	4924 	0.052916
40.87 	0.046063 	4928 	0.045350
40.89 	0.042588 	4931 	0.041994
40.91 	0.046923 	4923 	0.045971
40.93 	0.042562 	4934 	0.041849
40.95 	0.040912 	4913 	0.040435
40.97 	0.043054 	4924 	0.042816
40.99 	0.045288 	4924 	0.044456
41.01 	0.048656 	4912 	0.048060
41.03 	0.041182 	4905 	0.040824
41.05 	0.042950 	4936 	0.042712
41.07 	0.046045 	4930 	0.045451
41.09 	0.041101 	4939 	0.040864
41.11 	0.039514 	4935 	0.039158
41.13 	0.039506 	4936 	0.039150
41.15 	0.036430 	4941 	0.035956
41.17 	0.047831 	4934 	0.047594
41.19 	0.040162 	4930 	0.039568
41.21 	0.042131 	4937 	0.041419
41.23 	0.041709 	4939 	0.041353
41.25 	0.039530 	4933 	0.039173
41.27 	0.043805 	4931 	0.042617
41.29 	0.043019 	4928 	0.042168
41.31 	0.044800 	4933 	0.044207
41.33 	0.042941 	4937 	0.042091
41.35 	0.042730 	4938 	0.042255
41.37 	0.043054 	4924 	0.042579
41.39 	0.041760 	4933 	0.041166
41.41 	0.046285 	4926 	0.045928
41.43 	0.042402 	4929 	0.041689
41.45 	0.038665 	4914 	0.038188
41.47 	0.042428 	4926 	0.042190
41.49 	0.047629 	4892 	0.047270
41.51 	0.044332 	4940 	0.043739
41.53 	0.040453 	4944 	0.040216
41.55 	0.044580 	4935 	0.044105
41.57 	0.047156 	4941 	0.046445
41.59 	0.040543 	4933 	0.040187
41.61 	0.037957 	4953 	0.037484
41.63 	0.042932 	4938 	0.041983
41.65 	0.046460 	4929 	0.045747
41.67 	0.040081 	4940 	0.040081
41.69 	0.048919 	4947 	0.048445
41.71 	0.043575 	4934 	0.042863
41.73 	0.045989 	4936 	0.045633
41.75 	0.047474 	4929 	0.047355
41.77 	0.042906 	4941 	0.042551
41.79 	0.043285 	4944 	0.042455
41.81 	0.043355 	4936 	0.042762
41.83 	0.035511 	4928 	0.035036
41.85 	0.037659 	4939 	0.037422
41.87 	0.042553 	4935 	0.042197
41.89 	0.041557 	4933 	0.040844
41.91 	0.044368 	4936 	0.043537
41.93 	0.042782 	4932 	0.042307
41.95 	0.037315 	4931 	0.036840
41.97 	0.035206 	4914 	0.034729
41.99 	0.040979 	4905 	0.040620
42.01 	0.040672 	4942 	0.040198
42.03 	0.044138 	4939 	0.043545
42.05 	0.038974 	4952 	0.038856
42.07 	0.038890 	4937 	0.038415
42.09 	0.043654 	4948 	0.043299
42.11 	0.043074 	4945 	0.042600
42.13 	0.040647 	4945 	0.040173
42.15 	0.039692 	4938 	0.039336
42.17 	0.046564 	4918 	0.046325
42.19 	0.038916 	4908 	0.038319
42.21 	0.039788 	4901 	0.038951
42.23 	0.043336 	4892 	0.042498
42.25 	0.037431 	4889 	0.036832
42.27 	0.042470 	4874 	0.041869
42.29 	0.040510 	4863 	0.039667
42.31 	0.040989 	4855 	0.040627
42.33 	0.034340 	4834 	0.034219
42.35 	0.040513 	4838 	0.040270
42.37 	0.042236 	4830 	0.042115
42.39 	0.044546 	4804 	0.043815
42.41 	0.040591 	4804 	0.039738
42.43 	0.042988 	4792 	0.042377
42.45 	0.045017 	4776 	0.044403
42.47 	0.039454 	4765 	0.039208
42.49 	0.040504 	4765 	0.040135
42.51 	0.045119 	4743 	0.044872
42.53 	0.038917 	4728 	0.038793
42.55 	0.043331 	4708 	0.042439
42.57 	0.039535 	4730 	0.039040
42.59 	0.045676 	4729 	0.044685
42.61 	0.044605 	4708 	0.044356
42.63 	0.038649 	4709 	0.038027
42.65 	0.043970 	4685 	0.043074
42.67 	0.045474 	4684 	0.044724
42.69 	0.041292 	4674 	0.040645
42.71 	0.044392 	4663 	0.044266
42.73 	0.039224 	4640 	0.038972
42.75 	0.039853 	4617 	0.039218
42.77 	0.043043 	4600 	0.042534
42.79 	0.037320 	4582 	0.037064
42.81 	0.034196 	4562 	0.033939
42.83 	0.041887 	4536 	0.041241
42.85 	0.040194 	4528 	0.039936
42.87 	0.043565 	4499 	0.042914
42.89 	0.038616 	4480 	0.037701
42.91 	0.044434 	4456 	0.044172
42.93 	0.040036 	4446 	0.039904
42.95 	0.041893 	4416 	0.041230
42.97 	0.039536 	4401 	0.039403
42.99 	0.037856 	4385 	0.037589
43.01 	0.042173 	4363 	0.041367
43.03 	0.040849 	4333 	0.040714
43.05 	0.041850 	4325 	0.041173
43.07 	0.038175 	4296 	0.037766
43.09 	0.040626 	4283 	0.040215
43.11 	0.033373 	4255 	0.032662
43.13 	0.044607 	4237 	0.043755
43.15 	0.039705 	4206 	0.039427
43.17 	0.040680 	4179 	0.040119
43.19 	0.043872 	4194 	0.043314
43.21 	0.039549 	4172 	0.039409
43.23 	0.041165 	4154 	0.040460
43.25 	0.038936 	4135 	0.038653
43.27 	0.038977 	4105 	0.038691
43.29 	0.041707 	4100 	0.041422
43.31 	0.036774 	4079 	0.036486
43.33 	0.039250 	4051 	0.039105
43.35 	0.035962 	4032 	0.035091
43.37 	0.041096 	4015 	0.040512
43.39 	0.043228 	4002 	0.042204
43.41 	0.044814 	3972 	0.044519
43.43 	0.043687 	3960 	0.042627
43.45 	0.039136 	3935 	0.038838
43.47 	0.042336 	3921 	0.041589
43.49 	0.035668 	3897 	0.035067
43.51 	0.036368 	3877 	0.035311
43.53 	0.043748 	3863 	0.043142
43.55 	0.039136 	2964 	0.038939
43.57 	0.035299 	2238 	0.035038
43.59 	0.048110 	1746 	0.047103
43.61 	0.039970 	1351 	0.039103
43.63 	0.045954 	1001 	0.044784
43.65 	0.029112 	687 	0.029112
43.67 	0.059761 	502 	0.059761
43.69 	0.035422 	367 	0.035422
43.71 	0.020921 	239 	0.020921
43.73 	0.025000 	120 	0.025000
43.75 	0.062500 	16 	0.062500