File: Example_Data/25SC_s1_0045.004.dat
#F C:\frames\spec\25SC_s1_0045.004
#C title =s:45 frm:4 25SC_s1
#C wavelength =0.15406

#S 1  fr_average C:\frames\spec\25SC_s1_0045.004 C:\win32app\speccom\mask.axs chi 0 180 0 360 0.02
#C 2 theta =0.000000 to 180 deg
#C   q   =0.000000 to 81.568 nm^-1
#C  chi  =0.000000 to 360 deg
#C collumns:
#C  1 position (2theta or chi in degrees)
#C  2 average intensity (sum of all counts in the region divided with number of pixels)
#C  3 Number of pixels in region)
#C  4 error (sum of sqrt(intensity) for all pixels divided by number)
#N 4
#L TTh  Int  N_pix  Err
32.99 	0.032787 	61 	0.032787
33.01 	0.063001 	873 	0.060988
33.03 	0.058950 	1391 	0.058950
33.05 	0.050085 	1757 	0.049085
33.07 	0.061951 	2050 	0.061094
33.09 	0.053259 	2347 	0.052261
33.11 	0.052734 	2579 	0.051825
33.13 	0.058360 	2793 	0.057521
33.15 	0.059687 	2999 	0.059101
33.17 	0.054046 	3201 	0.053497
33.19 	0.049372 	3342 	0.048320
33.21 	0.060827 	3436 	0.059804
33.23 	0.052796 	3523 	0.052297
33.25 	0.055094 	3612 	0.054283
33.27 	0.062259 	3630 	0.061748
33.29 	0.059485 	3648 	0.058682
33.31 	0.054918 	3660 	0.053891
33.33 	0.056158 	3686 	0.055205
33.35 	0.056849 	3694 	0.056215
33.37 	0.055197 	3714 	0.054566
33.39 	0.060070 	3729 	0.058185
33.41 	0.054011 	3740 	0.053541
33.43 	0.060622 	3761 	0.059220
33.45 	0.060429 	3773 	0.059964
33.47 	0.062665 	3798 	0.061585
33.49 	0.059333 	3809 	0.059179
33.51 	0.060026 	3815 	0.058005
33.53 	0.060401 	3841 	0.059638
33.55 	0.053864 	3843 	0.052492
33.57 	0.054939 	3877 	0.054184
33.59 	0.065206 	3880 	0.063394
33.61 	0.057304 	3909 	0.056405
33.63 	0.056647 	3919 	0.056199
33.65 	0.054693 	3931 	0.054097
33.67 	0.059686 	3954 	0.058649
33.69 	0.062737 	3953 	0.061403
33.71 	0.065660 	3975 	0.064334
33.73 	0.055694 	4004 	0.055255
33.75 	0.062516 	3999 	0.061637
33.77 	0.060621 	4025 	0.059602
33.79 	0.053452 	4041 	0.052437
33.81 	0.058445 	4038 	0.058300
33.83 	0.058519 	4050 	0.057506
33.85 	0.058795 	4099 	0.057937
33.87 	0.058866 	4111 	0.058154
33.89 	0.057753 	4121 	0.055740
33.91 	0.059050 	4149 	0.058627
33.93 	0.059986 	4151 	0.058857
33.95 	0.063143 	4181 	0.062162
33.97 	0.057518 	4190 	0.056819
33.99 	0.055714 	4200 	0.054877
34.01 	0.055305 	4213 	0.053915
34.03 	0.055844 	4244 	0.055291
34.05 	0.057385 	4252 	0.056971
34.07 	0.060918 	4268 	0.060232
34.09 	0.062996 	4286 	0.061356
34.11 	0.057183 	4302 	0.056910
34.13 	0.058032 	4308 	0.056944
34.15 	0.066036 	4331 	0.064818
34.17 	0.054253 	4350 	0.052906
34.19 	0.059606 	4362 	0.059069
34.21 	0.053306 	4371 	0.052234
34.23 	0.061461 	4393 	0.060261
34.25 	0.056540 	4404 	0.055741
34.27 	0.062867 	4422 	0.061940
34.29 	0.055468 	4435 	0.054279
34.31 	0.056528 	4458 	0.055476
34.33 	0.057929 	4471 	0.057143
34.35 	0.057092 	4484 	0.056439
34.37 	0.058116 	4491 	0.056942
34.39 	0.059973 	4502 	0.059583
34.41 	0.060539 	4526 	0.059353
34.43 	0.066314 	4539 	0.065153
34.45 	0.059537 	4535 	0.058633
34.47 	0.052918 	4592 	0.051749
34.49 	0.062867 	4597 	0.061593
34.51 	0.056448 	4606 	0.055431
34.53 	0.058798 	4643 	0.057663
34.55 	0.060521 	4643 	0.058986
34.57 	0.065236 	4660 	0.063812
34.59 	0.061390 	4675 	0.060137
34.61 	0.057484 	4697 	0.055987
34.63 	0.057113 	4710 	0.055993
34.65 	0.056132 	4721 	0.055243
34.67 	0.049779 	4741 	0.049161
34.69 	0.064998 	4754 	0.064259
34.71 	0.063995 	4766 	0.061783
34.73 	0.060372 	4787 	0.059638
34.75 	0.059900 	4808 	0.058784
34.77 	0.064965 	4818 	0.063870
34.79 	0.064677 	4824 	0.063705
34.81 	0.058617 	4845 	0.057408
34.83 	0.053476 	4862 	0.052271
34.85 	0.055453 	4869 	0.054129
34.87 	0.060394 	4868 	0.058950
34.89 	0.058173 	4882 	0.057093
34.91 	0.062679 	4882 	0.062199
34.93 	0.060012 	4899 	0.058817
34.95 	0.060327 	4890 	0.059009
34.97 	0.053244 	4902 	0.052646
34.99 	0.059833 	4897 	0.058756
35.01 	0.056470 	4923 	0.055637
35.03 	0.060490 	4943 	0.059779
35.05 	0.052557 	4947 	0.051965
35.07 	0.049595 	4940 	0.048765
35.09 	0.061175 	4953 	0.059992
35.11 	0.058824 	4947 	0.057758
35.13 	0.058290 	4958 	0.057581
35.15 	0.061373 	4937 	0.060305
35.17 	0.057825 	4946 	0.056858
35.19 	0.064346 	4942 	0.062687
35.21 	0.055612 	4945 	0.054526
35.23 	0.060061 	4945 	0.058639
35.25 	0.061906 	4943 	0.060602
35.27 	0.059418 	4948 	0.058471
35.29 	0.058847 	4945 	0.058255
35.31 	0.058180 	4933 	0.057348
35.33 	0.057455 	4943 	0.056270
35.35 	0.056253 	4942 	0.055778
35.37 	0.065195 	4939 	0.063753
35.39 	0.053185 	4945 	0.052593
35.41 	0.063743 	4926 	0.062435
35.43 	0.057977 	4933 	0.057264
35.45 	0.059955 	4937 	0.059125
35.47 	0.060637 	4931 	0.059924
35.49 	0.056415 	4910 	0.055700
35.51 	0.060495 	4926 	0.059049
35.53 	0.056375 	4949 	0.056020
35.55 	0.060870 	4945 	0.059803
35.57 	0.059193 	4933 	0.058599
35.59 	0.056623 	4945 	0.055794
35.61 	0.056860 	4942 	0.056267
35.63 	0.055432 	4943 	0.054128
35.65 	0.062487 	4945 	0.060928
35.67 	0.058276 	4942 	0.057190
35.69 	0.055398 	4946 	0.054332
35.71 	0.065627 	4937 	0.063966
35.73 	0.057536 	4936 	0.056112
35.75 	0.050902 	4931 	0.049952
35.77 	0.053323 	4951 	0.052376
35.79 	0.054339 	4932 	0.053389
35.81 	0.059599 	4933 	0.059005
35.83 	0.059038 	4946 	0.058445
35.85 	0.060790 	4935 	0.059228
35.87 	0.057079 	4923 	0.056008
35.89 	0.061411 	4934 	0.059610
35.91 	0.057236 	4927 	0.056027
35.93 	0.056830 	4927 	0.055641
35.95 	0.060606 	4917 	0.059395
35.97 	0.062093 	4912 	0.060781
35.99 	0.057097 	4939 	0.056504
36.01 	0.060041 	4930 	0.058833
36.03 	0.063524 	4943 	0.062675
36.05 	0.055814 	4945 	0.054866
36.07 	0.058919 	4939 	0.058207
36.09 	0.058907 	4940 	0.058077
36.11 	0.060661 	4929 	0.059829
36.13 	0.064751 	4942 	0.063546
36.15 	0.057299 	4939 	0.055876
36.17 	0.058071 	4925 	0.056763
36.19 	0.058907 	4940 	0.058195
36.21 	0.059038 	4929 	0.057593
36.23 	0.064235 	4935 	0.063404
36.25 	0.055252 	4941 	0.054778
36.27 	0.057868 	4925 	0.056679
36.29 	0.059420 	4931 	0.058470
36.31 	0.048701 	4928 	0.047988
36.33 	0.052909 	4933 	0.051959
36.35 	0.058430 	4929 	0.057717
36.37 	0.062360 	4923 	0.061527
36.39 	0.060760 	4921 	0.059173
36.41 	0.058824 	4896 	0.057986
36.43 	0.060674 	4928 	0.059842
36.45 	0.058824 	4930 	0.058111
36.47 	0.059157 	4936 	0.057832
36.49 	0.057264 	4942 	0.056059
36.51 	0.056963 	4933 	0.055895
36.53 	0.056646 	4943 	0.055579
36.55 	0.055409 	4927 	0.054815
36.57 	0.061005 	4934 	0.059937
36.59 	0.062563 	4939 	0.061852
36.61 	0.055770 	4931 	0.054938
36.63 	0.056784 	4931 	0.055695
36.65 	0.060422 	4932 	0.058977
36.67 	0.054970 	4930 	0.054257
36.69 	0.058430 	4929 	0.056964
36.71 	0.060150 	4921 	0.058960
36.73 	0.057259 	4925 	0.056783
36.75 	0.054005 	4944 	0.052820
36.77 	0.053060 	4919 	0.052107
36.79 	0.053444 	4921 	0.052492
36.81 	0.056753 	4916 	0.056158
36.83 	0.058596 	4915 	0.057623
36.85 	0.060024 	4898 	0.058829
36.87 	0.057039 	4944 	0.055953
36.89 	0.053906 	4916 	0.053191
36.91 	0.062943 	4941 	0.062113
36.93 	0.052738 	4930 	0.051273
36.95 	0.052504 	4933 	0.051316
36.97 	0.058370 	4934 	0.057421
36.99 	0.057548 	4935 	0.057192
37.01 	0.054125 	4933 	0.053413
37.03 	0.051787 	4924 	0.051192
37.05 	0.056627 	4927 	0.055200
37.07 	0.053495 	4935 	0.052764
37.09 	0.057630 	4928 	0.057154
37.11 	0.057953 	4935 	0.057122
37.13 	0.054833 	4924 	0.053644
37.15 	0.055001 	4909 	0.054285
37.17 	0.053304 	4934 	0.052947
37.19 	0.055228 	4925 	0.053801
37.21 	0.055928 	4917 	0.055094
37.23 	0.056120 	4918 	0.055267
37.25 	0.054979 	4911 	0.054501
37.27 	0.052922 	4894 	0.051964
37.29 	0.060852 	4930 	0.059783
37.31 	0.049443 	4935 	0.048731
37.33 	0.054800 	4927 	0.053710
37.35 	0.055488 	4938 	0.054520
37.37 	0.058656 	4927 	0.057705
37.39 	0.062056 	4931 	0.060849
37.41 	0.054958 	4931 	0.054364
37.43 	0.050689 	4932 	0.050214
37.45 	0.058895 	4924 	0.057706
37.47 	0.051329 	4929 	0.050616
37.49 	0.052204 	4923 	0.051490
37.51 	0.050882 	4933 	0.050526
37.53 	0.055702 	4919 	0.055226
37.55 	0.059838 	4930 	0.058749
37.57 	0.057056 	4925 	0.056223
37.59 	0.053713 	4915 	0.052521
37.61 	0.056278 	4922 	0.055564
37.63 	0.062614 	4919 	0.062019
37.65 	0.054697 	4918 	0.053863
37.67 	0.052610 	4904 	0.051635
37.69 	0.057575 	4898 	0.056598
37.71 	0.059647 	4929 	0.058577
37.73 	0.058835 	4929 	0.057647
37.75 	0.052834 	4940 	0.052241
37.77 	0.054472 	4920 	0.053876
37.79 	0.052738 	4930 	0.051907
37.81 	0.057774 	4933 	0.056705
37.83 	0.053049 	4920 	0.051839
37.85 	0.057903 	4922 	0.056713
37.87 	0.055274 	4939 	0.054207
37.89 	0.054619 	4925 	0.053311
37.91 	0.056389 	4930 	0.055795
37.93 	0.056516 	4919 	0.055444
37.95 	0.055477 	4921 	0.054762
37.97 	0.056401 	4929 	0.055688
37.99 	0.058225 	4912 	0.057271
38.01 	0.058036 	4928 	0.056966
38.03 	0.055001 	4909 	0.054524
38.05 	0.054416 	4925 	0.053227
38.07 	0.050112 	4909 	0.049157
38.09 	0.060681 	4878 	0.059360
38.11 	0.055724 	4935 	0.054537
38.13 	0.056107 	4937 	0.055158
38.15 	0.053274 	4918 	0.052797
38.17 	0.053955 	4930 	0.053242
38.19 	0.058621 	4930 	0.057432
38.21 	0.062157 	4923 	0.061324
38.23 	0.056703 	4938 	0.056229
38.25 	0.057759 	4917 	0.056429
38.27 	0.054564 	4930 	0.053851
38.29 	0.057067 	4924 	0.056116
38.31 	0.055003 	4927 	0.053695
38.33 	0.067019 	4924 	0.065829
38.35 	0.059862 	4928 	0.059387
38.37 	0.066206 	4924 	0.065493
38.39 	0.057038 	4909 	0.056083
38.41 	0.067845 	4923 	0.066060
38.43 	0.060822 	4916 	0.059749
38.45 	0.065067 	4918 	0.063618
38.47 	0.065621 	4907 	0.064307
38.49 	0.066229 	4877 	0.065148
38.51 	0.068532 	4932 	0.067107
38.53 	0.069385 	4929 	0.067603
38.55 	0.071110 	4936 	0.069805
38.57 	0.064595 	4923 	0.063762
38.59 	0.068643 	4924 	0.067097
38.61 	0.060778 	4936 	0.060066
38.63 	0.064379 	4924 	0.063308
38.65 	0.066897 	4918 	0.065468
38.67 	0.059145 	4937 	0.058414
38.69 	0.061560 	4922 	0.061203
38.71 	0.065597 	4924 	0.064407
38.73 	0.056324 	4918 	0.055728
38.75 	0.057236 	4927 	0.056522
38.77 	0.058298 	4923 	0.056989
38.79 	0.056344 	4934 	0.055750
38.81 	0.061686 	4912 	0.060255
38.83 	0.054279 	4919 	0.053208
38.85 	0.056596 	4912 	0.055384
38.87 	0.062513 	4911 	0.061201
38.89 	0.055953 	4897 	0.054876
38.91 	0.058536 	4903 	0.056843
38.93 	0.058728 	4938 	0.057186
38.95 	0.055917 	4918 	0.055202
38.97 	0.057392 	4931 	0.056085
38.99 	0.055297 	4937 	0.053992
39.01 	0.051850 	4918 	0.050878
39.03 	0.052493 	4934 	0.052137
39.05 	0.055025 	4925 	0.054074
39.07 	0.051584 	4924 	0.050275
39.09 	0.056673 	4923 	0.055959
39.11 	0.053742 	4931 	0.053029
39.13 	0.053626 	4923 	0.053150
39.15 	0.047406 	4915 	0.046572
39.17 	0.061373 	4937 	0.059949
39.19 	0.054301 	4917 	0.054063
39.21 	0.049287 	4910 	0.048691
39.23 	0.050964 	4925 	0.050013
39.25 	0.052824 	4922 	0.052348
39.27 	0.055193 	4910 	0.053881
39.29 	0.054683 	4901 	0.054444
39.31 	0.055487 	4884 	0.054048
39.33 	0.050294 	4931 	0.050056
39.35 	0.056940 	4935 	0.056109
39.37 	0.052140 	4929 	0.051308
39.39 	0.055386 	4929 	0.054555
39.41 	0.049077 	4931 	0.048483
39.43 	0.050476 	4933 	0.049764
39.45 	0.049746 	4925 	0.048418
39.47 	0.056673 	4923 	0.055364
39.49 	0.049057 	4933 	0.048107
39.51 	0.050772 	4924 	0.049919
39.53 	0.056063 	4923 	0.055230
39.55 	0.050823 	4919 	0.050228
39.57 	0.049666 	4933 	0.049072
39.59 	0.051710 	4912 	0.051114
39.61 	0.054641 	4923 	0.053571
39.63 	0.055465 	4922 	0.054513
39.65 	0.050954 	4926 	0.050459
39.67 	0.061877 	4913 	0.060565
39.69 	0.056550 	4916 	0.055597
39.71 	0.057610 	4895 	0.056533
39.73 	0.060717 	4908 	0.059524
39.75 	0.053571 	4928 	0.052383
39.77 	0.058156 	4935 	0.057206
39.79 	0.059277 	4926 	0.058683
39.81 	0.055815 	4927 	0.055220
39.83 	0.059992 	4934 	0.059141
39.85 	0.055815 	4927 	0.054626
39.87 	0.055431 	4925 	0.054837
39.89 	0.059587 	4934 	0.058637
39.91 	0.058919 	4922 	0.058086
39.93 	0.054689 	4937 	0.053582
39.95 	0.059410 	4915 	0.058337
39.97 	0.050325 	4928 	0.049374
39.99 	0.055353 	4932 	0.054996
40.01 	0.053680 	4918 	0.052708
40.03 	0.055398 	4928 	0.054447
40.05 	0.056335 	4917 	0.055224
40.07 	0.053423 	4923 	0.052233
40.09 	0.054516 	4916 	0.053424
40.11 	0.054516 	4916 	0.053682
40.13 	0.054534 	4896 	0.053816
40.15 	0.052717 	4913 	0.051744
40.17 	0.055195 	4928 	0.054125
40.19 	0.058024 	4929 	0.057311
40.21 	0.047416 	4935 	0.046942
40.23 	0.053122 	4932 	0.052766
40.25 	0.048984 	4920 	0.048627
40.27 	0.055702 	4937 	0.055465
40.29 	0.059265 	4927 	0.058195
40.31 	0.053250 	4939 	0.052301
40.33 	0.054542 	4932 	0.053829
40.35 	0.051840 	4919 	0.051006
40.37 	0.057415 	4929 	0.056346
40.39 	0.054350 	4931 	0.053518
40.41 	0.054619 	4925 	0.053668
40.43 	0.054653 	4922 	0.053581
40.45 	0.051490 	4933 	0.051134
40.47 	0.050834 	4918 	0.050119
40.49 	0.053390 	4926 	0.052677
40.51 	0.048761 	4922 	0.048047
40.53 	0.048210 	4916 	0.047614
40.55 	0.047270 	4908 	0.046673
40.57 	0.051738 	4890 	0.050780
40.59 	0.050030 	4937 	0.049081
40.61 	0.055117 	4935 	0.054286
40.63 	0.058824 	4930 	0.057992
40.65 	0.052664 	4937 	0.051714
40.67 	0.052311 	4932 	0.051836
40.69 	0.047802 	4937 	0.046972
40.71 	0.050081 	4932 	0.049725
40.73 	0.055623 	4926 	0.055148
40.75 	0.047860 	4931 	0.046791
40.77 	0.053655 	4939 	0.053299
40.79 	0.046710 	4924 	0.045877
40.81 	0.056264 	4941 	0.055553
40.83 	0.053166 	4928 	0.052571
40.85 	0.053209 	4924 	0.052852
40.87 	0.050731 	4928 	0.049304
40.89 	0.051511 	4931 	0.050679
40.91 	0.051188 	4923 	0.050355
40.93 	0.052290 	4934 	0.051815
40.95 	0.054142 	4913 	0.053427
40.97 	0.056052 	4924 	0.055219
40.99 	0.047929 	4924 	0.047334
41.01 	0.061279 	4912 	0.059967
41.03 	0.050765 	4905 	0.050406
41.05 	0.054903 	4936 	0.053835
41.07 	0.053144 	4930 	0.052550
41.09 	0.055679 	4939 	0.054137
41.11 	0.051672 	4935 	0.050841
41.13 	0.051256 	4936 	0.050900
41.15 	0.049787 	4941 	0.049313
41.17 	0.052696 	4934 	0.051865
41.19 	0.053753 	4930 	0.052683
41.21 	0.048207 	4937 	0.047733
41.23 	0.049605 	4939 	0.049131
41.25 	0.052301 	4933 	0.050975
41.27 	0.049888 	4931 	0.049413
41.29 	0.050933 	4928 	0.049745
41.31 	0.045003 	4933 	0.044647
41.33 	0.049828 	4937 	0.049116
41.35 	0.049008 	4938 	0.048889
41.37 	0.047725 	4924 	0.047012
41.39 	0.047841 	4933 	0.047366
41.41 	0.055623 	4926 	0.054672
41.43 	0.046663 	4929 	0.045950
41.45 	0.050672 	4914 	0.050076
41.47 	0.047706 	4926 	0.046993
41.49 	0.049877 	4892 	0.049159
41.51 	0.049595 	4940 	0.049121
41.53 	0.046117 	4944 	0.045761
41.55 	0.047822 	4935 	0.047109
41.57 	0.048371 	4941 	0.047541
41.59 	0.053517 	4933 	0.053042
41.61 	0.042600 	4953 	0.041773
41.63 	0.048198 	4938 	0.047605
41.65 	0.046257 	4929 	0.045663
41.67 	0.042308 	4940 	0.041952
41.69 	0.050334 	4947 	0.050097
41.71 	0.047426 	4934 	0.046951
41.73 	0.047204 	4936 	0.046730
41.75 	0.048489 	4929 	0.047657
41.77 	0.048168 	4941 	0.047556
41.79 	0.050566 	4944 	0.050092
41.81 	0.047609 	4936 	0.047016
41.83 	0.043019 	4928 	0.042306
41.85 	0.047783 	4939 	0.047546
41.87 	0.047011 	4935 	0.046062
41.89 	0.050476 	4933 	0.049507
41.91 	0.050851 	4936 	0.050614
41.93 	0.044201 	4932 	0.043251
41.95 	0.048874 	4931 	0.048399
41.97 	0.048230 	4914 	0.047991
41.99 	0.048726 	4905 	0.047890
42.01 	0.047956 	4942 	0.047008
42.03 	0.050213 	4939 	0.049738
42.05 	0.048869 	4952 	0.048278
42.07 	0.043549 	4937 	0.042955
42.09 	0.049313 	4948 	0.048721
42.11 	0.050961 	4945 	0.050368
42.13 	0.047321 	4945 	0.046965
42.15 	0.046173 	4938 	0.045935
42.17 	0.049410 	4918 	0.048934
42.19 	0.049307 	4908 	0.048591
42.21 	0.049582 	4901 	0.048626
42.23 	0.045176 	4892 	0.044817
42.25 	0.046840 	4889 	0.046001
42.27 	0.050267 	4874 	0.049666
42.29 	0.042566 	4863 	0.042446
42.31 	0.040783 	4855 	0.040179
42.33 	0.044063 	4834 	0.043457
42.35 	0.045680 	4838 	0.044348
42.37 	0.044720 	4830 	0.044235
42.39 	0.047252 	4804 	0.046643
42.41 	0.042881 	4804 	0.042637
42.43 	0.049249 	4792 	0.048149
42.45 	0.047320 	4776 	0.047197
42.47 	0.043652 	4765 	0.042894
42.49 	0.052256 	4765 	0.051395
42.51 	0.046806 	4743 	0.046188
42.53 	0.050338 	4728 	0.050091
42.55 	0.047154 	4708 	0.046656
42.57 	0.052854 	4730 	0.052606
42.59 	0.046310 	4729 	0.045443
42.61 	0.048428 	4708 	0.047537
42.63 	0.046082 	4709 	0.045709
42.65 	0.047812 	4685 	0.047312
42.67 	0.047182 	4684 	0.046807
42.69 	0.045571 	4674 	0.044819
42.71 	0.045893 	4663 	0.045391
42.73 	0.041595 	4640 	0.040837
42.75 	0.042452 	4617 	0.041691
42.77 	0.047174 	4600 	0.046537
42.79 	0.048232 	4582 	0.047721
42.81 	0.048663 	4562 	0.048149
42.83 	0.048501 	4536 	0.047963
42.85 	0.049470 	4528 	0.048564
42.87 	0.043565 	4499 	0.043044
42.89 	0.051116 	4480 	0.050462
42.91 	0.050943 	4456 	0.050548
42.93 	0.042510 	4446 	0.041983
42.95 	0.054121 	4416 	0.053591
42.97 	0.044308 	4401 	0.043376
42.99 	0.049031 	4385 	0.048630
43.01 	0.049278 	4363 	0.048741
43.03 	0.049158 	4333 	0.048887
43.05 	0.043931 	4325 	0.043253
43.07 	0.052374 	4296 	0.050874
43.09 	0.049031 	4283 	0.048484
43.11 	0.047474 	4255 	0.047061
43.13 	0.046967 	4237 	0.046552
43.15 	0.046125 	4206 	0.045405
43.17 	0.040919 	4179 	0.040358
43.19 	0.041726 	4194 	0.040888
43.21 	0.048897 	4172 	0.047915
43.23 	0.043813 	4154 	0.043108
43.25 	0.047158 	4135 	0.045860
43.27 	0.052619 	4105 	0.051334
43.29 	0.051951 	4100 	0.051665
43.31 	0.046580 	4079 	0.046149
43.33 	0.044433 	4051 	0.043566
43.35 	0.045387 	4032 	0.045096
43.37 	0.048568 	4015 	0.048276
43.39 	0.056972 	4002 	0.055361
43.41 	0.050101 	3972 	0.049953
43.43 	0.053283 	3960 	0.052099
43.45 	0.044981 	3935 	0.044088
43.47 	0.047437 	3921 	0.047287
43.49 	0.044906 	3897 	0.044280
43.51 	0.046428 	3877 	0.045974
43.53 	0.049185 	3863 	0.048275
43.55 	0.049258 	2964 	0.048467
43.57 	0.043342 	2238 	0.042295
43.59 	0.059565 	1746 	0.057497
43.61 	0.044412 	1351 	0.043978
43.63 	0.055944 	1001 	0.055359
43.65 	0.043668 	687 	0.042815
43.67 	0.061753 	502 	0.061753
43.69 	0.065395 	367 	0.065395
43.71 	0.033473 	239 	0.033473
43.73 	0.008333 	120 	0.008333
43.75 	0.000000 	16 	0.000000