File: Example_Data/25SC_s1_0012.000.dat
#F C:\frames\spec\25SC_s1_0012.000
#C title =s:12 frm:0 25SC_s1
#C wavelength =0.15406

#S 1  fr_average C:\frames\spec\25SC_s1_0012.000 C:\win32app\speccom\mask.axs chi 0 180 0 360 0.02
#C 2 theta =0.000000 to 180 deg
#C   q   =0.000000 to 81.568 nm^-1
#C  chi  =0.000000 to 360 deg
#C collumns:
#C  1 position (2theta or chi in degrees)
#C  2 average intensity (sum of all counts in the region divided with number of pixels)
#C  3 Number of pixels in region)
#C  4 error (sum of sqrt(intensity) for all pixels divided by number)
#N 4
#L TTh  Int  N_pix  Err
32.99 	0.065574 	61 	0.055971
33.01 	0.079038 	873 	0.077696
33.03 	0.053199 	1391 	0.052778
33.05 	0.072851 	1757 	0.071184
33.07 	0.058049 	2050 	0.056334
33.09 	0.061781 	2347 	0.060283
33.11 	0.066693 	2579 	0.064875
33.13 	0.059434 	2793 	0.057547
33.15 	0.054351 	2999 	0.052984
33.17 	0.065605 	3201 	0.064506
33.19 	0.064632 	3342 	0.063405
33.21 	0.065483 	3436 	0.064460
33.23 	0.066988 	3523 	0.065326
33.25 	0.062846 	3612 	0.062035
33.27 	0.059504 	3630 	0.058213
33.29 	0.053454 	3648 	0.052009
33.31 	0.059016 	3660 	0.057069
33.33 	0.061042 	3686 	0.060247
33.35 	0.058744 	3694 	0.057475
33.37 	0.061928 	3714 	0.060193
33.39 	0.056584 	3729 	0.055144
33.41 	0.064438 	3740 	0.063342
33.43 	0.055570 	3761 	0.054792
33.45 	0.048768 	3773 	0.047836
33.47 	0.061085 	3798 	0.059234
33.49 	0.063271 	3809 	0.061529
33.51 	0.058716 	3815 	0.058101
33.53 	0.068732 	3841 	0.066597
33.55 	0.059329 	3843 	0.058084
33.57 	0.061130 	3877 	0.060525
33.59 	0.058505 	3880 	0.057297
33.61 	0.060629 	3909 	0.059880
33.63 	0.062261 	3919 	0.061065
33.65 	0.063851 	3931 	0.062808
33.67 	0.057410 	3954 	0.056225
33.69 	0.052871 	3953 	0.052575
33.71 	0.071195 	3975 	0.069427
33.73 	0.057193 	4004 	0.056754
33.75 	0.057264 	3999 	0.056385
33.77 	0.057391 	4025 	0.056809
33.79 	0.057659 	4041 	0.057079
33.81 	0.065874 	4038 	0.064859
33.83 	0.059259 	4050 	0.058102
33.85 	0.056599 	4099 	0.055742
33.87 	0.057164 	4111 	0.056166
33.89 	0.065033 	4121 	0.063896
33.91 	0.055194 	4149 	0.053900
33.93 	0.053722 	4151 	0.053440
33.95 	0.056924 	4181 	0.055943
33.97 	0.063723 	4190 	0.062185
33.99 	0.056190 	4200 	0.055052
34.01 	0.058391 	4213 	0.056815
34.03 	0.056315 	4244 	0.055487
34.05 	0.054798 	4252 	0.054109
34.07 	0.060450 	4268 	0.059215
34.09 	0.055996 	4286 	0.055176
34.11 	0.056950 	4302 	0.055589
34.13 	0.058728 	4308 	0.057504
34.15 	0.060032 	4331 	0.059356
34.17 	0.055402 	4350 	0.054864
34.19 	0.058689 	4362 	0.057749
34.21 	0.053535 	4371 	0.052463
34.23 	0.067608 	4393 	0.066541
34.25 	0.056767 	4404 	0.055969
34.27 	0.057892 	4422 	0.055862
34.29 	0.056370 	4435 	0.055445
34.31 	0.058098 	4458 	0.057704
34.33 	0.058600 	4471 	0.057028
34.35 	0.058207 	4484 	0.057140
34.37 	0.058116 	4491 	0.057334
34.39 	0.055975 	4502 	0.055455
34.41 	0.056562 	4526 	0.055786
34.43 	0.054858 	4539 	0.054084
34.45 	0.054906 	4535 	0.054002
34.47 	0.062282 	4592 	0.061389
34.49 	0.055471 	4597 	0.054431
34.51 	0.053191 	4606 	0.052301
34.53 	0.062675 	4643 	0.061287
34.55 	0.054706 	4643 	0.053823
34.57 	0.054077 	4660 	0.053323
34.59 	0.056043 	4675 	0.055416
34.61 	0.048755 	4697 	0.047965
34.63 	0.053928 	4710 	0.052435
34.65 	0.057403 	4721 	0.056162
34.67 	0.053786 	4741 	0.052798
34.69 	0.058056 	4754 	0.057194
34.71 	0.056861 	4766 	0.055878
34.73 	0.060790 	4787 	0.059933
34.75 	0.063852 	4808 	0.062146
34.77 	0.058738 	4818 	0.057259
34.79 	0.055763 	4824 	0.055399
34.81 	0.061094 	4845 	0.060248
34.83 	0.053476 	4862 	0.052753
34.85 	0.058534 	4869 	0.057190
34.87 	0.050740 	4868 	0.049897
34.89 	0.061860 	4882 	0.060660
34.91 	0.050184 	4882 	0.049464
34.93 	0.057359 	4899 	0.056163
34.95 	0.062781 	4890 	0.062062
34.97 	0.057324 	4902 	0.055770
34.99 	0.059628 	4897 	0.058911
35.01 	0.059313 	4923 	0.058599
35.03 	0.062917 	4943 	0.062325
35.05 	0.062866 	4947 	0.061090
35.07 	0.056883 	4940 	0.055815
35.09 	0.052292 	4953 	0.051937
35.11 	0.055791 	4947 	0.055791
35.13 	0.058290 	4958 	0.057226
35.15 	0.056309 	4937 	0.055479
35.17 	0.059240 	4946 	0.058529
35.19 	0.058681 	4942 	0.057614
35.21 	0.062285 	4945 	0.060864
35.23 	0.057432 	4945 	0.056603
35.25 	0.057455 	4943 	0.056744
35.27 	0.059620 	4948 	0.059028
35.29 	0.054803 	4945 	0.054447
35.31 	0.054733 	4933 	0.053546
35.33 	0.055837 	4943 	0.055363
35.35 	0.055241 	4942 	0.054411
35.37 	0.056084 	4939 	0.054424
35.39 	0.055410 	4945 	0.054324
35.41 	0.056232 	4926 	0.055400
35.43 	0.056963 	4933 	0.056013
35.45 	0.064817 	4937 	0.063986
35.47 	0.059623 	4931 	0.058435
35.49 	0.058248 	4910 	0.057055
35.51 	0.060292 	4926 	0.059103
35.53 	0.058396 	4949 	0.057449
35.55 	0.060061 	4945 	0.058876
35.57 	0.055544 	4933 	0.054951
35.59 	0.058241 	4945 	0.057530
35.61 	0.065965 	4942 	0.064780
35.63 	0.050981 	4943 	0.049796
35.65 	0.060263 	4945 	0.059789
35.67 	0.062930 	4942 	0.061982
35.69 	0.054590 	4946 	0.053524
35.71 	0.060563 	4937 	0.059495
35.73 	0.058752 	4936 	0.057921
35.75 	0.054553 	4931 	0.053365
35.77 	0.058776 	4951 	0.058184
35.79 	0.062247 	4932 	0.060940
35.81 	0.064869 	4933 	0.063801
35.83 	0.061262 	4946 	0.060077
35.85 	0.053698 	4935 	0.053105
35.87 	0.060329 	4923 	0.059853
35.89 	0.056344 	4934 	0.055513
35.91 	0.060483 	4927 	0.060007
35.93 	0.066572 	4927 	0.065264
35.95 	0.063657 	4917 	0.063061
35.97 	0.065147 	4912 	0.063477
35.99 	0.060539 	4939 	0.059115
36.01 	0.061663 	4930 	0.061069
36.03 	0.055027 	4943 	0.053605
36.05 	0.062083 	4945 	0.061372
36.07 	0.059526 	4939 	0.058340
36.09 	0.059717 	4940 	0.058056
36.11 	0.061676 	4929 	0.060487
36.13 	0.055038 	4942 	0.054209
36.15 	0.057097 	4939 	0.056029
36.17 	0.064569 	4925 	0.063617
36.19 	0.061134 	4940 	0.060185
36.21 	0.061473 	4929 	0.059690
36.23 	0.063019 	4935 	0.061931
36.25 	0.062943 	4941 	0.061994
36.27 	0.057259 	4925 	0.056545
36.29 	0.060434 	4931 	0.059484
36.31 	0.053166 	4928 	0.052571
36.33 	0.059193 	4933 	0.057649
36.35 	0.062082 	4929 	0.060636
36.37 	0.061548 	4923 	0.060358
36.39 	0.058118 	4921 	0.057523
36.41 	0.058619 	4896 	0.057542
36.43 	0.061080 	4928 	0.060604
36.45 	0.063895 	4930 	0.062687
36.47 	0.059562 	4936 	0.058732
36.49 	0.057669 	4942 	0.056365
36.51 	0.059599 	4933 	0.058510
36.53 	0.061703 	4943 	0.060637
36.55 	0.061092 	4927 	0.059546
36.57 	0.061816 	4934 	0.061203
36.59 	0.059121 	4939 	0.057817
36.61 	0.066315 	4931 	0.064989
36.63 	0.057392 	4931 	0.055966
36.65 	0.066504 	4932 	0.065079
36.67 	0.065720 	4930 	0.064770
36.69 	0.059647 	4929 	0.058934
36.71 	0.065434 	4921 	0.064720
36.73 	0.057056 	4925 	0.056104
36.75 	0.061691 	4944 	0.059756
36.77 	0.064444 	4919 	0.063610
36.79 	0.061370 	4921 	0.060179
36.81 	0.062449 	4916 	0.061834
36.83 	0.061038 	4915 	0.060323
36.85 	0.061249 	4898 	0.060153
36.87 	0.064118 	4944 	0.063170
36.89 	0.066517 	4916 	0.065564
36.91 	0.069217 	4941 	0.067676
36.93 	0.055578 	4930 	0.054865
36.95 	0.058788 	4933 	0.058194
36.97 	0.059587 	4934 	0.059230
36.99 	0.060993 	4935 	0.060281
37.01 	0.051895 	4933 	0.051183
37.03 	0.058489 	4924 	0.058132
37.05 	0.057033 	4927 	0.056200
37.07 	0.060790 	4935 	0.059841
37.09 	0.065138 	4928 	0.064187
37.11 	0.060993 	4935 	0.060261
37.13 	0.062551 	4924 	0.061837
37.15 	0.058668 	4909 	0.057832
37.17 	0.061613 	4934 	0.061020
37.19 	0.058071 	4925 	0.057120
37.21 	0.056742 	4917 	0.056146
37.23 	0.063847 	4918 	0.063132
37.25 	0.057626 	4911 	0.056910
37.27 	0.058643 	4894 	0.057566
37.29 	0.061663 	4930 	0.060356
37.31 	0.062614 	4935 	0.062139
37.33 	0.063325 	4927 	0.062373
37.35 	0.055893 	4938 	0.054707
37.37 	0.062513 	4927 	0.060967
37.39 	0.054553 	4931 	0.053484
37.41 	0.061448 	4931 	0.059884
37.43 	0.060422 	4932 	0.058996
37.45 	0.060520 	4924 	0.059211
37.47 	0.056401 	4929 	0.055569
37.49 	0.065814 	4923 	0.064624
37.51 	0.061220 	4933 	0.060270
37.53 	0.055092 	4919 	0.054021
37.55 	0.056795 	4930 	0.055963
37.57 	0.058883 	4925 	0.058269
37.59 	0.056968 	4915 	0.056373
37.61 	0.054246 	4922 	0.052580
37.63 	0.056109 	4919 	0.055514
37.65 	0.053884 	4918 	0.053407
37.67 	0.060971 	4904 	0.060015
37.69 	0.051450 	4898 	0.050234
37.71 	0.062082 	4929 	0.060774
37.73 	0.053966 	4929 	0.053372
37.75 	0.064777 	4940 	0.064066
37.77 	0.056301 	4920 	0.054991
37.79 	0.053753 	4930 	0.053158
37.81 	0.059599 	4933 	0.057936
37.83 	0.055894 	4920 	0.054704
37.85 	0.056684 	4922 	0.055851
37.87 	0.053857 	4939 	0.052908
37.89 	0.054619 	4925 	0.053529
37.91 	0.061460 	4930 	0.060391
37.93 	0.059972 	4919 	0.059138
37.95 	0.056289 	4921 	0.055694
37.97 	0.052546 	4929 	0.051952
37.99 	0.049471 	4912 	0.048736
38.01 	0.057224 	4928 	0.056254
38.03 	0.053575 	4909 	0.052620
38.05 	0.061523 	4925 	0.060571
38.07 	0.058057 	4909 	0.056983
38.09 	0.050841 	4878 	0.049860
38.11 	0.058359 	4935 	0.057033
38.13 	0.060361 	4937 	0.059886
38.15 	0.057137 	4918 	0.055708
38.17 	0.052738 	4930 	0.051669
38.19 	0.058215 	4930 	0.057146
38.21 	0.059517 	4923 	0.058327
38.23 	0.052045 	4938 	0.051334
38.25 	0.061826 	4917 	0.060873
38.27 	0.057606 	4930 	0.057131
38.29 	0.056052 	4924 	0.055814
38.31 	0.058250 	4927 	0.057537
38.33 	0.061535 	4924 	0.060445
38.35 	0.060877 	4928 	0.059807
38.37 	0.054021 	4924 	0.053307
38.39 	0.059483 	4909 	0.058647
38.41 	0.056470 	4923 	0.055717
38.43 	0.067535 	4916 	0.065628
38.45 	0.064864 	4918 	0.062938
38.47 	0.064602 	4907 	0.063050
38.49 	0.067870 	4877 	0.066629
38.51 	0.066302 	4932 	0.065114
38.53 	0.073443 	4929 	0.071779
38.55 	0.078201 	4936 	0.076540
38.57 	0.072111 	4923 	0.071040
38.59 	0.071893 	4924 	0.070565
38.61 	0.077998 	4936 	0.076574
38.63 	0.079204 	4924 	0.077300
38.65 	0.076657 	4918 	0.075228
38.67 	0.078995 	4937 	0.077809
38.69 	0.084722 	4922 	0.083174
38.71 	0.081844 	4924 	0.080060
38.73 	0.080114 	4918 	0.078446
38.75 	0.088898 	4927 	0.085430
38.77 	0.082876 	4923 	0.081567
38.79 	0.082084 	4934 	0.080758
38.81 	0.082451 	4912 	0.081259
38.83 	0.077251 	4919 	0.075803
38.85 	0.071050 	4912 	0.069023
38.87 	0.077174 	4911 	0.075146
38.89 	0.070656 	4897 	0.069699
38.91 	0.068326 	4903 	0.067489
38.93 	0.079182 	4938 	0.077264
38.95 	0.064254 	4918 	0.063063
38.97 	0.065504 	4931 	0.064178
38.99 	0.065424 	4937 	0.063407
39.01 	0.053274 	4918 	0.052559
39.03 	0.057154 	4934 	0.055848
39.05 	0.060102 	4925 	0.058774
39.07 	0.054021 	4924 	0.052831
39.09 	0.054845 	4923 	0.054131
39.11 	0.051916 	4931 	0.051441
39.13 	0.053016 	4923 	0.052540
39.15 	0.054730 	4915 	0.054135
39.17 	0.049828 	4937 	0.048997
39.19 	0.053081 	4917 	0.052605
39.21 	0.055193 	4910 	0.054120
39.23 	0.048934 	4925 	0.048220
39.25 	0.045510 	4922 	0.045391
39.27 	0.046436 	4910 	0.045362
39.29 	0.053050 	4901 	0.051955
39.31 	0.046888 	4884 	0.046048
39.33 	0.049280 	4931 	0.048567
39.35 	0.052077 	4935 	0.051484
39.37 	0.046865 	4929 	0.046390
39.39 	0.048894 	4929 	0.048300
39.41 	0.048469 	4931 	0.047974
39.43 	0.053112 	4933 	0.051786
39.45 	0.040609 	4925 	0.040371
39.47 	0.044485 	4923 	0.043890
39.49 	0.046017 	4933 	0.045185
39.51 	0.054021 	4924 	0.053188
39.53 	0.049157 	4923 	0.048067
39.55 	0.049197 	4919 	0.048482
39.57 	0.046422 	4933 	0.046066
39.59 	0.049471 	4912 	0.048397
39.61 	0.039813 	4923 	0.039199
39.63 	0.051605 	4922 	0.051010
39.65 	0.046082 	4926 	0.045725
39.67 	0.048646 	4913 	0.048031
39.69 	0.048210 	4916 	0.047852
39.71 	0.045148 	4895 	0.044669
39.73 	0.047677 	4908 	0.047200
39.75 	0.049919 	4928 	0.049324
39.77 	0.045795 	4935 	0.044826
39.79 	0.045067 	4926 	0.044353
39.81 	0.045667 	4927 	0.045548
39.83 	0.045805 	4934 	0.044855
39.85 	0.045870 	4927 	0.045394
39.87 	0.042234 	4925 	0.041163
39.89 	0.051277 	4934 	0.050683
39.91 	0.047542 	4922 	0.047066
39.93 	0.047397 	4937 	0.046685
39.95 	0.046999 	4915 	0.046046
39.97 	0.037338 	4928 	0.037219
39.99 	0.044607 	4932 	0.043775
40.01 	0.047987 	4918 	0.047153
40.03 	0.044237 	4928 	0.043762
40.05 	0.047590 	4917 	0.046736
40.07 	0.044891 	4923 	0.044058
40.09 	0.045566 	4916 	0.044970
40.11 	0.045972 	4916 	0.045615
40.13 	0.040237 	4896 	0.039758
40.15 	0.042337 	4913 	0.041979
40.17 	0.041396 	4928 	0.041039
40.19 	0.042199 	4929 	0.041843
40.21 	0.044174 	4935 	0.043462
40.23 	0.047445 	4932 	0.046851
40.25 	0.042683 	4920 	0.042445
40.27 	0.045169 	4937 	0.044695
40.29 	0.044449 	4927 	0.044211
40.31 	0.039482 	4939 	0.039126
40.33 	0.042376 	4932 	0.042020
40.35 	0.041675 	4919 	0.041199
40.37 	0.041793 	4929 	0.041556
40.39 	0.049686 	4931 	0.049092
40.41 	0.041015 	4925 	0.040302
40.43 	0.040431 	4922 	0.040074
40.45 	0.038719 	4933 	0.037888
40.47 	0.041480 	4918 	0.040766
40.49 	0.045270 	4926 	0.044299
40.51 	0.040634 	4922 	0.039424
40.53 	0.045362 	4916 	0.044885
40.55 	0.042380 	4908 	0.042260
40.57 	0.043763 	4890 	0.043044
40.59 	0.047600 	4937 	0.047006
40.61 	0.044174 	4935 	0.042987
40.63 	0.041988 	4930 	0.041394
40.65 	0.039093 	4937 	0.038737
40.67 	0.040552 	4932 	0.039601
40.69 	0.041523 	4937 	0.041167
40.71 	0.040957 	4932 	0.040719
40.73 	0.049939 	4926 	0.048750
40.75 	0.037518 	4931 	0.037161
40.77 	0.047176 	4939 	0.046227
40.79 	0.041024 	4924 	0.040052
40.81 	0.046549 	4941 	0.045719
40.83 	0.046266 	4928 	0.045315
40.85 	0.047929 	4924 	0.046838
40.87 	0.043831 	4928 	0.043356
40.89 	0.037315 	4931 	0.036721
40.91 	0.040423 	4923 	0.040185
40.93 	0.040940 	4934 	0.040584
40.95 	0.042133 	4913 	0.041537
40.97 	0.047116 	4924 	0.046521
40.99 	0.042039 	4924 	0.041682
41.01 	0.047028 	4912 	0.046312
41.03 	0.045872 	4905 	0.045394
41.05 	0.041734 	4936 	0.041378
41.07 	0.044219 	4930 	0.043744
41.09 	0.042519 	4939 	0.041807
41.11 	0.043161 	4935 	0.042805
41.13 	0.042747 	4936 	0.042154
41.15 	0.044525 	4941 	0.043696
41.17 	0.043981 	4934 	0.043387
41.19 	0.039959 	4930 	0.039722
41.21 	0.041523 	4937 	0.041049
41.23 	0.042924 	4939 	0.042331
41.25 	0.038922 	4933 	0.038922
41.27 	0.038937 	4931 	0.038561
41.29 	0.044846 	4928 	0.044370
41.31 	0.041151 	4933 	0.040320
41.33 	0.040916 	4937 	0.040441
41.35 	0.049210 	4938 	0.048498
41.37 	0.037571 	4924 	0.037333
41.39 	0.041760 	4933 	0.041522
41.41 	0.040398 	4926 	0.039684
41.43 	0.044837 	4929 	0.044242
41.45 	0.045177 	4914 	0.044581
41.47 	0.037353 	4926 	0.036639
41.49 	0.038430 	4892 	0.037831
41.51 	0.041296 	4940 	0.040821
41.53 	0.043083 	4944 	0.042372
41.55 	0.042958 	4935 	0.041871
41.57 	0.036632 	4941 	0.036277
41.59 	0.040746 	4933 	0.040509
41.61 	0.037957 	4953 	0.037602
41.63 	0.042527 	4938 	0.042053
41.65 	0.041591 	4929 	0.040759
41.67 	0.041700 	4940 	0.041226
41.69 	0.046089 	4947 	0.045141
41.71 	0.044386 	4934 	0.043674
41.73 	0.043152 	4936 	0.043034
41.75 	0.041388 	4929 	0.040912
41.77 	0.044525 	4941 	0.044051
41.79 	0.041060 	4944 	0.040230
41.81 	0.040316 	4936 	0.039841
41.83 	0.044643 	4928 	0.044286
41.85 	0.039887 	4939 	0.039412
41.87 	0.039514 	4935 	0.039276
41.89 	0.044395 	4933 	0.043663
41.91 	0.041734 	4936 	0.041497
41.93 	0.042174 	4932 	0.041342
41.95 	0.042588 	4931 	0.042113
41.97 	0.041921 	4914 	0.041087
41.99 	0.039551 	4905 	0.039551
42.01 	0.033792 	4942 	0.033436
42.03 	0.044948 	4939 	0.044237
42.05 	0.038772 	4952 	0.038417
42.07 	0.042333 	4937 	0.041859
42.09 	0.042441 	4948 	0.041948
42.11 	0.038220 	4945 	0.037984
42.13 	0.036603 	4945 	0.036366
42.15 	0.045160 	4938 	0.044567
42.17 	0.042090 	4918 	0.041733
42.19 	0.041769 	4908 	0.041172
42.21 	0.041012 	4901 	0.040534
42.23 	0.043949 	4892 	0.043231
42.25 	0.044590 	4889 	0.044350
42.27 	0.038982 	4874 	0.038261
42.29 	0.044417 	4863 	0.044056
42.31 	0.035015 	4855 	0.034895
42.33 	0.042408 	4834 	0.041802
42.35 	0.040306 	4838 	0.040185
42.37 	0.041615 	4830 	0.041251
42.39 	0.033306 	4804 	0.033184
42.41 	0.038093 	4804 	0.037727
42.43 	0.036728 	4792 	0.036361
42.45 	0.040201 	4776 	0.039588
42.47 	0.038825 	4765 	0.038702
42.49 	0.045121 	4765 	0.044752
42.51 	0.042800 	4743 	0.042676
42.53 	0.034898 	4728 	0.034403
42.55 	0.039507 	4708 	0.039134
42.57 	0.038689 	4730 	0.038194
42.59 	0.038486 	4729 	0.038362
42.61 	0.042268 	4708 	0.041771
42.63 	0.036526 	4709 	0.036153
42.65 	0.037140 	4685 	0.037015
42.67 	0.040991 	4684 	0.040490
42.69 	0.036799 	4674 	0.036173
42.71 	0.039460 	4663 	0.039208
42.73 	0.042672 	4640 	0.042167
42.75 	0.040069 	4617 	0.039689
42.77 	0.038913 	4600 	0.038404
42.79 	0.042121 	4582 	0.041461
42.81 	0.037264 	4562 	0.037008
42.83 	0.033510 	4536 	0.033381
42.85 	0.039532 	4528 	0.039402
42.87 	0.039787 	4499 	0.038745
42.89 	0.034152 	4480 	0.033760
42.91 	0.039497 	4456 	0.038840
42.93 	0.037562 	4446 	0.037298
42.95 	0.043252 	4416 	0.043252
42.97 	0.037491 	4401 	0.036826
42.99 	0.043330 	4385 	0.042795
43.01 	0.037130 	4363 	0.036996
43.03 	0.041080 	4333 	0.040269
43.05 	0.036994 	4325 	0.036588
43.07 	0.039572 	4296 	0.038617
43.09 	0.044128 	4283 	0.043444
43.11 	0.040658 	4255 	0.039947
43.13 	0.036819 	4237 	0.036542
43.15 	0.037803 	4206 	0.037664
43.17 	0.040680 	4179 	0.039839
43.19 	0.036719 	4194 	0.036021
43.21 	0.041946 	4172 	0.041244
43.23 	0.039239 	4154 	0.038816
43.25 	0.042563 	4135 	0.041572
43.27 	0.042875 	4105 	0.042589
43.29 	0.035854 	4100 	0.035711
43.31 	0.043883 	4079 	0.043309
43.33 	0.040978 	4051 	0.040688
43.35 	0.042163 	4032 	0.041000
43.37 	0.033624 	4015 	0.033162
43.39 	0.041229 	4002 	0.040498
43.41 	0.035498 	3972 	0.035056
43.43 	0.037121 	3960 	0.036973
43.45 	0.037611 	3935 	0.037462
43.47 	0.034430 	3921 	0.034281
43.49 	0.036952 	3897 	0.036501
43.51 	0.036884 	3877 	0.036582
43.53 	0.040124 	3863 	0.039518
43.55 	0.038462 	2964 	0.037836
43.57 	0.048257 	2238 	0.048257
43.59 	0.032073 	1746 	0.032073
43.61 	0.038490 	1351 	0.038056
43.63 	0.029970 	1001 	0.029970
43.65 	0.033479 	687 	0.032626
43.67 	0.043825 	502 	0.043825
43.69 	0.027248 	367 	0.025652
43.71 	0.041841 	239 	0.041841
43.73 	0.058333 	120 	0.053452
43.75 	0.062500 	16 	0.062500