File: Example_Data/25SC_s1_0006.002.dat
#F C:\frames\spec\25SC_s1_0006.002
#C title =s:6 frm:2 25SC_s1
#C wavelength =0.15406

#S 1  fr_average C:\frames\spec\25SC_s1_0006.002 C:\win32app\speccom\mask.axs chi 0 180 0 360 0.02
#C 2 theta =0.000000 to 180 deg
#C   q   =0.000000 to 81.568 nm^-1
#C  chi  =0.000000 to 360 deg
#C collumns:
#C  1 position (2theta or chi in degrees)
#C  2 average intensity (sum of all counts in the region divided with number of pixels)
#C  3 Number of pixels in region)
#C  4 error (sum of sqrt(intensity) for all pixels divided by number)
#N 4
#L TTh  Int  N_pix  Err
32.99 	0.081967 	61 	0.081967
33.01 	0.058419 	873 	0.058419
33.03 	0.068296 	1391 	0.067454
33.05 	0.059761 	1757 	0.059094
33.07 	0.060488 	2050 	0.060202
33.09 	0.057520 	2347 	0.056771
33.11 	0.058938 	2579 	0.058256
33.13 	0.055138 	2793 	0.053670
33.15 	0.050684 	2999 	0.049512
33.17 	0.053733 	3201 	0.052452
33.19 	0.060742 	3342 	0.060041
33.21 	0.063446 	3436 	0.061571
33.23 	0.048538 	3523 	0.048206
33.25 	0.058416 	3612 	0.056308
33.27 	0.051240 	3630 	0.050271
33.29 	0.055099 	3648 	0.054296
33.31 	0.060929 	3660 	0.059489
33.33 	0.066468 	3686 	0.064402
33.35 	0.058202 	3694 	0.057092
33.37 	0.061120 	3714 	0.059858
33.39 	0.056852 	3729 	0.055281
33.41 	0.057487 	3740 	0.056547
33.43 	0.064345 	3761 	0.063254
33.45 	0.054864 	3773 	0.054553
33.47 	0.059768 	3798 	0.059460
33.49 	0.061959 	3809 	0.060574
33.51 	0.059240 	3815 	0.058626
33.53 	0.057537 	3841 	0.056622
33.55 	0.060370 	3843 	0.059760
33.57 	0.051328 	3877 	0.051026
33.59 	0.065722 	3880 	0.064514
33.61 	0.062164 	3909 	0.060816
33.63 	0.064047 	3919 	0.063300
33.65 	0.059018 	3931 	0.057975
33.67 	0.060951 	3954 	0.058828
33.69 	0.052618 	3953 	0.052322
33.71 	0.054340 	3975 	0.052842
33.73 	0.055694 	4004 	0.055255
33.75 	0.059515 	3999 	0.057904
33.77 	0.061615 	4025 	0.061033
33.79 	0.061371 	4041 	0.060646
33.81 	0.058940 	4038 	0.058070
33.83 	0.059753 	4050 	0.059030
33.85 	0.058307 	4099 	0.057164
33.87 	0.066164 	4111 	0.065024
33.89 	0.057996 	4121 	0.057143
33.91 	0.054712 	4149 	0.054006
33.93 	0.065285 	4151 	0.064157
33.95 	0.057403 	4181 	0.056422
33.97 	0.058473 	4190 	0.058193
33.99 	0.059286 	4200 	0.058449
34.01 	0.053881 	4213 	0.052212
34.03 	0.056550 	4244 	0.055308
34.05 	0.053622 	4252 	0.052221
34.07 	0.057404 	4268 	0.056169
34.09 	0.054130 	4286 	0.053173
34.11 	0.060902 	4302 	0.060221
34.13 	0.054550 	4308 	0.053870
34.15 	0.055414 	4331 	0.054581
34.17 	0.057931 	4350 	0.056988
34.19 	0.053645 	4362 	0.052549
34.21 	0.054907 	4371 	0.054237
34.23 	0.057136 	4393 	0.056470
34.25 	0.066303 	4404 	0.065372
34.27 	0.056988 	4422 	0.055090
34.29 	0.055919 	4435 	0.055258
34.31 	0.064603 	4458 	0.063793
34.33 	0.053232 	4471 	0.052577
34.35 	0.055977 	4484 	0.055454
34.37 	0.059230 	4491 	0.058577
34.39 	0.059973 	4502 	0.058802
34.41 	0.053690 	4526 	0.053172
34.43 	0.056841 	4539 	0.055937
34.45 	0.054024 	4535 	0.053508
34.47 	0.055314 	4592 	0.054293
34.49 	0.060692 	4597 	0.060055
34.51 	0.052106 	4606 	0.051343
34.53 	0.060952 	4643 	0.060069
34.55 	0.058798 	4643 	0.057789
34.57 	0.050858 	4660 	0.049853
34.59 	0.058182 	4675 	0.056929
34.61 	0.058761 	4697 	0.058013
34.63 	0.056476 	4710 	0.055481
34.65 	0.052955 	4721 	0.052066
34.67 	0.057161 	4741 	0.055534
34.69 	0.054060 	4754 	0.053197
34.71 	0.061897 	4766 	0.060545
34.73 	0.062879 	4787 	0.061757
34.75 	0.061148 	4808 	0.060904
34.77 	0.055210 	4818 	0.053994
34.79 	0.064884 	4824 	0.063670
34.81 	0.059030 	4845 	0.058304
34.83 	0.053270 	4862 	0.052668
34.85 	0.060587 	4869 	0.059264
34.87 	0.061627 	4868 	0.059802
34.89 	0.056944 	4882 	0.055724
34.91 	0.055305 	4882 	0.054345
34.93 	0.059808 	4899 	0.059091
34.95 	0.057669 	4890 	0.056211
34.97 	0.059772 	4902 	0.058577
34.99 	0.053706 	4897 	0.052630
35.01 	0.052813 	4923 	0.052218
35.03 	0.063120 	4943 	0.062053
35.05 	0.061451 	4947 	0.060129
35.07 	0.055061 	4940 	0.054586
35.09 	0.053301 	4953 	0.052710
35.11 	0.056398 	4947 	0.055687
35.13 	0.060912 	4958 	0.059848
35.15 	0.054487 	4937 	0.054012
35.17 	0.062879 	4946 	0.060747
35.19 	0.061514 	4942 	0.060328
35.21 	0.062487 	4945 	0.061540
35.23 	0.058645 	4945 	0.057342
35.25 	0.056241 	4943 	0.054819
35.27 	0.060024 	4948 	0.058840
35.29 	0.061072 	4945 	0.059413
35.31 	0.053720 	4933 	0.053007
35.33 	0.062310 	4943 	0.060651
35.35 	0.055645 	4942 	0.054579
35.37 	0.055477 	4939 	0.054153
35.39 	0.060263 	4945 	0.059078
35.41 	0.059074 	4926 	0.058123
35.43 	0.054936 	4933 	0.054105
35.45 	0.053069 	4937 	0.052831
35.47 	0.056378 	4931 	0.055309
35.49 	0.060285 	4910 	0.058853
35.51 	0.059683 	4926 	0.058851
35.53 	0.058800 	4949 	0.057379
35.55 	0.057634 	4945 	0.056686
35.57 	0.056761 	4933 	0.055811
35.59 	0.047927 	4945 	0.047572
35.61 	0.062728 	4942 	0.061779
35.63 	0.056848 	4943 	0.055900
35.65 	0.060870 	4945 	0.059803
35.67 	0.062323 	4942 	0.060901
35.69 	0.063283 	4946 	0.062099
35.71 	0.061778 	4937 	0.060355
35.73 	0.052674 	4936 	0.052437
35.75 	0.058812 	4931 	0.057861
35.77 	0.059180 	4951 	0.058233
35.79 	0.057380 	4932 	0.056173
35.81 	0.059193 	4933 	0.058243
35.83 	0.057622 	4946 	0.056793
35.85 	0.058967 	4935 	0.058254
35.87 	0.061548 	4923 	0.060358
35.89 	0.056344 	4934 	0.055631
35.91 	0.061701 	4927 	0.060869
35.93 	0.052567 	4927 	0.051240
35.95 	0.059182 	4917 	0.058329
35.97 	0.055985 	4912 	0.055389
35.99 	0.059729 	4939 	0.059136
36.01 	0.056795 	4930 	0.056082
36.03 	0.056646 	4943 	0.055935
36.05 	0.053387 	4945 	0.052302
36.07 	0.057097 	4939 	0.056148
36.09 	0.052024 	4940 	0.051669
36.11 	0.055386 	4929 	0.054555
36.13 	0.061109 	4942 	0.059410
36.15 	0.054464 	4939 	0.053990
36.17 	0.057259 	4925 	0.056188
36.19 	0.059717 	4940 	0.058768
36.21 	0.055184 	4929 	0.053976
36.23 	0.054306 	4935 	0.053238
36.25 	0.059705 	4941 	0.058993
36.27 	0.059086 	4925 	0.057897
36.29 	0.053944 	4931 	0.053232
36.31 	0.051136 	4928 	0.050542
36.33 	0.065275 	4933 	0.064325
36.35 	0.055589 	4929 	0.054639
36.37 	0.059517 	4923 	0.058208
36.39 	0.060760 	4921 	0.059808
36.41 	0.059436 	4896 	0.058340
36.43 	0.058442 	4928 	0.056896
36.45 	0.059838 	4930 	0.058650
36.47 	0.058752 	4936 	0.057684
36.49 	0.057062 	4942 	0.056469
36.51 	0.059396 	4933 	0.058446
36.53 	0.059883 	4943 	0.058224
36.55 	0.057236 	4927 	0.056027
36.57 	0.054722 	4934 	0.053773
36.59 	0.057299 	4939 	0.056193
36.61 	0.056175 	4931 	0.055106
36.63 	0.051916 	4931 	0.050828
36.65 	0.057989 	4932 	0.056920
36.67 	0.052738 	4930 	0.052025
36.69 	0.059647 	4929 	0.058340
36.71 	0.056086 	4921 	0.055372
36.73 	0.058274 	4925 	0.057798
36.75 	0.058455 	4944 	0.057981
36.77 	0.059158 	4919 	0.058325
36.79 	0.052428 	4921 	0.051714
36.81 	0.059805 	4916 	0.057978
36.83 	0.060834 	4915 	0.060000
36.85 	0.057575 	4898 	0.056737
36.87 	0.056634 	4944 	0.056160
36.89 	0.054312 	4916 	0.052883
36.91 	0.052419 	4941 	0.051352
36.93 	0.062880 	4930 	0.062049
36.95 	0.064058 	4933 	0.062733
36.97 	0.056952 	4934 	0.055883
36.99 	0.057143 	4935 	0.055837
37.01 	0.055139 	4933 	0.054545
37.03 	0.054833 	4924 	0.053882
37.05 	0.052162 	4927 	0.051567
37.07 	0.057953 	4935 	0.057004
37.09 	0.054586 	4928 	0.053754
37.11 	0.055724 	4935 	0.054894
37.13 	0.060723 	4924 	0.059890
37.15 	0.057242 	4909 	0.055552
37.17 	0.056749 	4934 	0.055799
37.19 	0.054822 	4925 	0.053633
37.21 	0.050437 	4917 	0.049246
37.23 	0.058357 	4918 	0.057285
37.25 	0.053146 	4911 	0.052669
37.27 	0.055987 	4894 	0.055029
37.29 	0.061866 	4930 	0.060797
37.31 	0.059980 	4935 	0.059268
37.33 	0.056830 	4927 	0.055621
37.35 	0.058323 	4938 	0.057493
37.37 	0.059062 	4927 	0.057636
37.39 	0.056784 	4931 	0.055714
37.41 	0.056986 	4931 	0.055917
37.43 	0.059813 	4932 	0.058863
37.45 	0.058895 	4924 	0.057943
37.47 	0.056198 	4929 	0.055247
37.49 	0.056673 	4923 	0.054769
37.51 	0.057977 	4933 	0.057027
37.53 	0.053060 	4919 	0.052345
37.55 	0.056592 	4930 	0.055998
37.57 	0.052792 	4925 	0.052316
37.59 	0.054934 	4915 	0.053623
37.61 	0.054246 	4922 	0.053651
37.63 	0.051637 	4919 	0.051279
37.65 	0.052257 	4918 	0.051781
37.67 	0.056892 	4904 	0.056415
37.69 	0.054104 	4898 	0.053506
37.71 	0.060459 	4929 	0.059745
37.73 	0.055184 	4929 	0.053520
37.75 	0.048381 	4940 	0.047531
37.77 	0.051016 	4920 	0.049826
37.79 	0.054158 	4930 	0.053089
37.81 	0.054936 	4933 	0.053967
37.83 	0.053455 	4920 	0.052364
37.85 	0.050792 	4922 	0.049602
37.87 	0.048593 	4939 	0.048118
37.89 	0.048122 	4925 	0.047527
37.91 	0.054970 	4930 	0.054257
37.93 	0.049807 	4919 	0.048854
37.95 	0.057305 	4921 	0.055996
37.97 	0.056198 	4929 	0.055010
37.99 	0.055171 	4912 	0.054455
38.01 	0.059456 	4928 	0.058862
38.03 	0.052149 	4909 	0.051910
38.05 	0.055025 	4925 	0.053479
38.07 	0.048279 	4909 	0.047443
38.09 	0.054941 	4878 	0.054100
38.11 	0.053495 	4935 	0.052665
38.13 	0.053474 	4937 	0.052762
38.15 	0.051037 	4918 	0.049727
38.17 	0.054564 	4930 	0.054089
38.19 	0.053144 	4930 	0.052530
38.21 	0.049970 	4923 	0.049732
38.23 	0.052045 	4938 	0.051195
38.25 	0.055318 	4917 	0.054603
38.27 	0.057404 	4930 	0.056334
38.29 	0.060723 	4924 	0.060009
38.31 	0.050132 	4927 	0.049656
38.33 	0.055240 	4924 	0.054764
38.35 	0.058644 	4928 	0.058169
38.37 	0.057677 	4924 	0.056725
38.39 	0.060094 	4909 	0.059020
38.41 	0.056267 	4923 	0.055553
38.43 	0.062653 	4916 	0.061561
38.45 	0.059170 	4918 	0.058456
38.47 	0.063379 	4907 	0.062304
38.49 	0.060898 	4877 	0.059096
38.51 	0.068938 	4932 	0.067869
38.53 	0.059038 	4929 	0.058444
38.55 	0.066653 	4936 	0.065348
38.57 	0.065814 	4923 	0.064862
38.59 	0.063972 	4924 	0.062426
38.61 	0.066856 	4936 	0.065194
38.63 	0.067425 	4924 	0.065997
38.65 	0.061204 	4918 	0.059894
38.67 	0.062791 	4937 	0.061486
38.69 	0.060341 	4922 	0.059151
38.71 	0.058692 	4924 	0.057364
38.73 	0.057544 	4918 	0.056690
38.75 	0.060280 	4927 	0.058972
38.77 	0.052610 	4923 	0.052253
38.79 	0.067491 	4934 	0.065947
38.81 	0.060871 	4912 	0.060275
38.83 	0.054686 	4919 	0.053714
38.85 	0.057818 	4912 	0.056983
38.87 	0.056200 	4911 	0.055843
38.89 	0.050439 	4897 	0.049362
38.91 	0.050989 	4903 	0.049794
38.93 	0.049818 	4938 	0.049343
38.95 	0.054087 	4918 	0.053015
38.97 	0.053133 	4931 	0.052539
38.99 	0.052461 	4937 	0.051037
39.01 	0.045954 	4918 	0.045477
39.03 	0.053709 	4934 	0.053234
39.05 	0.047513 	4925 	0.047037
39.07 	0.049147 	4924 	0.048790
39.09 	0.047532 	4923 	0.046580
39.11 	0.047252 	4931 	0.046539
39.13 	0.042860 	4923 	0.041908
39.15 	0.044557 	4915 	0.044319
39.17 	0.048005 	4937 	0.047293
39.19 	0.043522 	4917 	0.042808
39.21 	0.046232 	4910 	0.045994
39.23 	0.048325 	4925 	0.047849
39.25 	0.051402 	4922 	0.051045
39.27 	0.050713 	4910 	0.050355
39.29 	0.051214 	4901 	0.050138
39.31 	0.045864 	4884 	0.044885
39.33 	0.043602 	4931 	0.042414
39.35 	0.052685 	4935 	0.051617
39.37 	0.047677 	4929 	0.047202
39.39 	0.050923 	4929 	0.050567
39.41 	0.042588 	4931 	0.042231
39.43 	0.040949 	4933 	0.040217
39.45 	0.047919 	4925 	0.046967
39.47 	0.046516 	4923 	0.045564
39.49 	0.045003 	4933 	0.044409
39.51 	0.046101 	4924 	0.045387
39.53 	0.045501 	4923 	0.045025
39.55 	0.046351 	4919 	0.045875
39.57 	0.041557 	4933 	0.041082
39.59 	0.045603 	4912 	0.045006
39.61 	0.043469 	4923 	0.042755
39.63 	0.046932 	4922 	0.046337
39.65 	0.044661 	4926 	0.043829
39.67 	0.042133 	4913 	0.041656
39.69 	0.041904 	4916 	0.041070
39.71 	0.043922 	4895 	0.043683
39.73 	0.049104 	4908 	0.048626
39.75 	0.042614 	4928 	0.042019
39.77 	0.047822 	4935 	0.046279
39.79 	0.039789 	4926 	0.039313
39.81 	0.046073 	4927 	0.045102
39.83 	0.050061 	4934 	0.049467
39.85 	0.047290 	4927 	0.046577
39.87 	0.044264 	4925 	0.043550
39.89 	0.050466 	4934 	0.049516
39.91 	0.045510 	4922 	0.044915
39.93 	0.049828 	4937 	0.048997
39.95 	0.045778 	4915 	0.045540
39.97 	0.044034 	4928 	0.043321
39.99 	0.048054 	4932 	0.047460
40.01 	0.047987 	4918 	0.047391
40.03 	0.047890 	4928 	0.047295
40.05 	0.041082 	4917 	0.040963
40.07 	0.045298 	4923 	0.044941
40.09 	0.046786 	4916 	0.045952
40.11 	0.042921 	4916 	0.042325
40.13 	0.039011 	4896 	0.038533
40.15 	0.047018 	4913 	0.046422
40.17 	0.044846 	4928 	0.044489
40.19 	0.051735 	4929 	0.051259
40.21 	0.040932 	4935 	0.040339
40.23 	0.044809 	4932 	0.044216
40.25 	0.045325 	4920 	0.044492
40.27 	0.043549 	4937 	0.042599
40.29 	0.042622 	4927 	0.042147
40.31 	0.046973 	4939 	0.046143
40.33 	0.046634 	4932 	0.046278
40.35 	0.039032 	4919 	0.038437
40.37 	0.040576 	4929 	0.040457
40.39 	0.047049 	4931 	0.046693
40.41 	0.043655 	4925 	0.043179
40.43 	0.045713 	4922 	0.045356
40.45 	0.044192 	4933 	0.043242
40.47 	0.040870 	4918 	0.040751
40.49 	0.044661 	4926 	0.044304
40.51 	0.045713 	4922 	0.045356
40.53 	0.043938 	4916 	0.043462
40.55 	0.048289 	4908 	0.047334
40.57 	0.042331 	4890 	0.041852
40.59 	0.044359 	4937 	0.043884
40.61 	0.045187 	4935 	0.044713
40.63 	0.047667 	4930 	0.047311
40.65 	0.042536 	4937 	0.042061
40.67 	0.050284 	4932 	0.049452
40.69 	0.042333 	4937 	0.041503
40.71 	0.047040 	4932 	0.046565
40.73 	0.043443 	4926 	0.043086
40.75 	0.044818 	4931 	0.044462
40.77 	0.040696 	4939 	0.040222
40.79 	0.046101 	4924 	0.045724
40.81 	0.046752 	4941 	0.046396
40.83 	0.043425 	4928 	0.043069
40.85 	0.042039 	4924 	0.041682
40.87 	0.038555 	4928 	0.037961
40.89 	0.044818 	4931 	0.044205
40.91 	0.045094 	4923 	0.044500
40.93 	0.041346 	4934 	0.040752
40.95 	0.043761 	4913 	0.042927
40.97 	0.039196 	4924 	0.038720
40.99 	0.042851 	4924 	0.042613
41.01 	0.042752 	4912 	0.042514
41.03 	0.044648 	4905 	0.043932
41.05 	0.045786 	4936 	0.044936
41.07 	0.037728 	4930 	0.037372
41.09 	0.044341 	4939 	0.043867
41.11 	0.044377 	4935 	0.044140
41.13 	0.048622 	4936 	0.047910
41.15 	0.045740 	4941 	0.044198
41.17 	0.047223 	4934 	0.046867
41.19 	0.045639 	4930 	0.045401
41.21 	0.045979 	4937 	0.044773
41.23 	0.042924 	4939 	0.042331
41.25 	0.045408 	4933 	0.044815
41.27 	0.049686 	4931 	0.048973
41.29 	0.041193 	4928 	0.041074
41.31 	0.044395 	4933 	0.044157
41.33 	0.039295 	4937 	0.039058
41.35 	0.046578 	4938 	0.046103
41.37 	0.041227 	4924 	0.040513
41.39 	0.042165 	4933 	0.041928
41.41 	0.042631 	4926 	0.041917
41.43 	0.046663 	4929 	0.046068
41.45 	0.041514 	4914 	0.041395
41.47 	0.040398 	4926 	0.039922
41.49 	0.042723 	4892 	0.041885
41.51 	0.041700 	4940 	0.041108
41.53 	0.043487 	4944 	0.042895
41.55 	0.043566 	4935 	0.043210
41.57 	0.040478 	4941 	0.040359
41.59 	0.043381 	4933 	0.042669
41.61 	0.046235 	4953 	0.045170
41.63 	0.038882 	4938 	0.038882
41.65 	0.043822 	4929 	0.043109
41.67 	0.044332 	4940 	0.043858
41.69 	0.040429 	4947 	0.040310
41.71 	0.043981 	4934 	0.043624
41.73 	0.045381 	4936 	0.045025
41.75 	0.043011 	4929 	0.042535
41.77 	0.039466 	4941 	0.039110
41.79 	0.047937 	4944 	0.047344
41.81 	0.043760 	4936 	0.043523
41.83 	0.043831 	4928 	0.043237
41.85 	0.044138 	4939 	0.043783
41.87 	0.047214 	4935 	0.046620
41.89 	0.037097 	4933 	0.036741
41.91 	0.045178 	4936 	0.044328
41.93 	0.039132 	4932 	0.038538
41.95 	0.041777 	4931 	0.041420
41.97 	0.044363 	4914 	0.043409
41.99 	0.040775 	4905 	0.040416
42.01 	0.045528 	4942 	0.045054
42.03 	0.041709 	4939 	0.041234
42.05 	0.037964 	4952 	0.037255
42.07 	0.042333 	4937 	0.041859
42.09 	0.045069 	4948 	0.044950
42.11 	0.038827 	4945 	0.038235
42.13 	0.040445 	4945 	0.040326
42.15 	0.042932 	4938 	0.042458
42.17 	0.044124 	4918 	0.043647
42.19 	0.038509 	4908 	0.038150
42.21 	0.040196 	4901 	0.039718
42.23 	0.038021 	4892 	0.037063
42.25 	0.045204 	4889 	0.044485
42.27 	0.041034 	4874 	0.040674
42.29 	0.041127 	4863 	0.040886
42.31 	0.038311 	4855 	0.037828
42.33 	0.039926 	4834 	0.039562
42.35 	0.040513 	4838 	0.040149
42.37 	0.041201 	4830 	0.040958
42.39 	0.037677 	4804 	0.036945
42.41 	0.038926 	4804 	0.038560
42.43 	0.036519 	4792 	0.036152
42.45 	0.042085 	4776 	0.041840
42.47 	0.036516 	4765 	0.036516
42.49 	0.036936 	4765 	0.036690
42.51 	0.038794 	4743 	0.037929
42.53 	0.037648 	4728 	0.037276
42.55 	0.045030 	4708 	0.044781
42.57 	0.037632 	4730 	0.037384
42.59 	0.039120 	4729 	0.038501
42.61 	0.039507 	4708 	0.039134
42.63 	0.038649 	4709 	0.038401
42.65 	0.045037 	4685 	0.044287
42.67 	0.040137 	4684 	0.040012
42.69 	0.044929 	4674 	0.044052
42.71 	0.043105 	4663 	0.042854
42.73 	0.041379 	4640 	0.041127
42.75 	0.038553 	4617 	0.038046
42.77 	0.038261 	4600 	0.037879
42.79 	0.041685 	4582 	0.041557
42.81 	0.037484 	4562 	0.037227
42.83 	0.037257 	4536 	0.037257
42.85 	0.041961 	4528 	0.041185
42.87 	0.032674 	4499 	0.032544
42.89 	0.035268 	4480 	0.035006
42.91 	0.043537 	4456 	0.043142
42.93 	0.036662 	4446 	0.036135
42.95 	0.045290 	4416 	0.044361
42.97 	0.040445 	4401 	0.040046
42.99 	0.038769 	4385 	0.038635
43.01 	0.039193 	4363 	0.038790
43.03 	0.037387 	4333 	0.036982
43.05 	0.044162 	4325 	0.043891
43.07 	0.044460 	4296 	0.043915
43.09 	0.035022 	4283 	0.034885
43.11 	0.039483 	4255 	0.039345
43.13 	0.040831 	4237 	0.040554
43.15 	0.035663 	4206 	0.035385
43.17 	0.046183 	4179 	0.045342
43.19 	0.032189 	4194 	0.032049
43.21 	0.037872 	4172 	0.037450
43.23 	0.035628 	4154 	0.034782
43.25 	0.038210 	4135 	0.037785
43.27 	0.036054 	4105 	0.035625
43.29 	0.037317 	4100 	0.037031
43.31 	0.042412 	4079 	0.042125
43.33 	0.039990 	4051 	0.039846
43.35 	0.038194 	4032 	0.037904
43.37 	0.038605 	4015 	0.038459
43.39 	0.046477 	4002 	0.046038
43.41 	0.037009 	3972 	0.036567
43.43 	0.038636 	3960 	0.038341
43.45 	0.040152 	3935 	0.039706
43.47 	0.040296 	3921 	0.039698
43.49 	0.042597 	3897 	0.042296
43.51 	0.041011 	3877 	0.040256
43.53 	0.036759 	3863 	0.036456
43.55 	0.035762 	2964 	0.035170
43.57 	0.038874 	2238 	0.038089
43.59 	0.042955 	1746 	0.042620
43.61 	0.042191 	1351 	0.041757
43.63 	0.040959 	1001 	0.040374
43.65 	0.034934 	687 	0.034082
43.67 	0.039841 	502 	0.039841
43.69 	0.046322 	367 	0.043129
43.71 	0.029289 	239 	0.029289
43.73 	0.008333 	120 	0.008333
43.75 	0.000000 	16 	0.000000