File: Example_Data/25SC_s1_0026.000.dat
#F C:\frames\spec\25SC_s1_0026.000
#C title =s:26 frm:0 25SC_s1
#C wavelength =0.15406

#S 1  fr_average C:\frames\spec\25SC_s1_0026.000 C:\win32app\speccom\mask.axs chi 0 180 0 360 0.02
#C 2 theta =0.000000 to 180 deg
#C   q   =0.000000 to 81.568 nm^-1
#C  chi  =0.000000 to 360 deg
#C collumns:
#C  1 position (2theta or chi in degrees)
#C  2 average intensity (sum of all counts in the region divided with number of pixels)
#C  3 Number of pixels in region)
#C  4 error (sum of sqrt(intensity) for all pixels divided by number)
#N 4
#L TTh  Int  N_pix  Err
32.99 	0.065574 	61 	0.065574
33.01 	0.067583 	873 	0.066241
33.03 	0.071891 	1391 	0.069785
33.05 	0.057484 	1757 	0.056818
33.07 	0.060976 	2050 	0.060976
33.09 	0.055390 	2347 	0.054392
33.11 	0.064754 	2579 	0.064072
33.13 	0.059434 	2793 	0.058805
33.15 	0.056019 	2999 	0.055237
33.17 	0.061231 	3201 	0.059584
33.19 	0.061341 	3342 	0.060464
33.21 	0.063737 	3436 	0.061663
33.23 	0.061311 	3523 	0.060979
33.25 	0.064784 	3612 	0.063622
33.27 	0.059780 	3630 	0.059295
33.29 	0.054002 	3648 	0.053360
33.31 	0.055191 	3660 	0.054231
33.33 	0.059957 	3686 	0.058685
33.35 	0.062534 	3694 	0.061424
33.37 	0.056812 	3714 	0.056181
33.39 	0.060338 	3729 	0.059081
33.41 	0.060428 	3740 	0.059331
33.43 	0.059027 	3761 	0.057625
33.45 	0.065200 	3773 	0.064424
33.47 	0.056872 	3798 	0.056409
33.49 	0.063796 	3809 	0.063181
33.51 	0.060026 	3815 	0.059412
33.53 	0.061442 	3841 	0.060527
33.55 	0.048139 	3843 	0.047682
33.57 	0.050555 	3877 	0.049648
33.59 	0.053351 	3880 	0.052143
33.61 	0.065746 	3909 	0.064697
33.63 	0.065323 	3919 	0.064426
33.65 	0.055457 	3931 	0.054414
33.67 	0.057663 	3954 	0.055885
33.69 	0.071338 	3953 	0.069856
33.71 	0.064151 	3975 	0.062358
33.73 	0.057942 	4004 	0.057211
33.75 	0.056764 	3999 	0.055739
33.77 	0.061615 	4025 	0.060742
33.79 	0.065330 	4041 	0.064461
33.81 	0.061169 	4038 	0.059549
33.83 	0.064198 	4050 	0.062607
33.85 	0.054404 	4099 	0.053975
33.87 	0.055461 	4111 	0.054606
33.89 	0.057510 	4121 	0.057084
33.91 	0.059291 	4149 	0.058303
33.93 	0.058781 	4151 	0.058358
33.95 	0.061708 	4181 	0.061147
33.97 	0.063484 	4190 	0.061667
33.99 	0.063810 	4200 	0.062973
34.01 	0.061476 	4213 	0.060063
34.03 	0.053487 	4244 	0.052659
34.05 	0.049624 	4252 	0.048935
34.07 	0.054358 	4268 	0.053809
34.09 	0.066029 	4286 	0.065186
34.11 	0.058810 	4302 	0.058538
34.13 	0.058960 	4308 	0.057600
34.15 	0.054260 	4331 	0.053313
34.17 	0.058621 	4350 	0.057678
34.19 	0.057542 	4362 	0.056199
34.21 	0.057195 	4371 	0.055453
34.23 	0.051673 	4393 	0.051406
34.25 	0.059264 	4404 	0.058200
34.27 	0.059928 	4422 	0.059000
34.29 	0.056595 	4435 	0.056067
34.31 	0.054284 	4458 	0.053496
34.33 	0.055692 	4471 	0.055168
34.35 	0.061775 	4484 	0.060578
34.37 	0.055890 	4491 	0.054825
34.39 	0.058196 	4502 	0.057025
34.41 	0.061865 	4526 	0.060571
34.43 	0.060145 	4539 	0.059242
34.45 	0.055788 	4535 	0.054755
34.47 	0.053789 	4592 	0.052131
34.49 	0.063085 	4597 	0.061280
34.51 	0.058185 	4606 	0.057422
34.53 	0.058152 	4643 	0.057521
34.55 	0.059014 	4643 	0.058130
34.57 	0.054721 	4660 	0.054470
34.59 	0.058610 	4675 	0.057983
34.61 	0.050245 	4697 	0.049871
34.63 	0.052866 	4710 	0.051996
34.65 	0.054649 	4721 	0.054525
34.67 	0.060325 	4741 	0.059563
34.69 	0.054691 	4754 	0.054321
34.71 	0.056861 	4766 	0.056369
34.73 	0.058283 	4787 	0.056937
34.75 	0.052413 	4808 	0.052047
34.77 	0.050643 	4818 	0.049792
34.79 	0.060323 	4824 	0.058866
34.81 	0.060475 	4845 	0.059266
34.83 	0.053476 	4862 	0.053114
34.85 	0.050318 	4869 	0.048995
34.87 	0.057108 	4868 	0.056025
34.89 	0.060221 	4882 	0.059741
34.91 	0.052642 	4882 	0.052162
34.93 	0.051031 	4899 	0.050553
34.95 	0.056442 	4890 	0.055483
34.97 	0.060384 	4902 	0.058830
34.99 	0.052890 	4897 	0.051574
35.01 	0.056876 	4923 	0.056043
35.03 	0.058264 	4943 	0.057553
35.05 	0.053972 	4947 	0.053617
35.07 	0.057287 	4940 	0.056220
35.09 	0.057945 	4953 	0.057235
35.11 	0.059834 	4947 	0.058887
35.13 	0.051835 	4958 	0.051008
35.15 	0.056107 	4937 	0.055395
35.17 	0.058835 	4946 	0.057395
35.19 	0.058074 	4942 	0.057362
35.21 	0.050961 	4945 	0.050131
35.23 	0.055410 	4945 	0.054699
35.25 	0.058467 	4943 	0.057143
35.27 	0.057599 	4948 	0.056159
35.29 	0.058241 	4945 	0.057056
35.31 	0.052909 	4933 	0.052315
35.33 	0.056646 	4943 	0.055224
35.35 	0.060502 	4942 	0.060028
35.37 	0.058311 	4939 	0.057481
35.39 	0.058038 	4945 	0.056834
35.41 	0.058262 	4926 	0.057549
35.43 	0.052504 	4933 	0.051554
35.45 	0.055094 	4937 	0.054244
35.47 	0.063273 	4931 	0.061966
35.49 	0.056415 	4910 	0.055680
35.51 	0.055014 	4926 	0.054420
35.53 	0.059002 	4949 	0.058292
35.55 	0.055814 	4945 	0.054629
35.57 	0.060409 	4933 	0.058846
35.59 	0.057634 	4945 	0.056805
35.61 	0.061311 	4942 	0.060126
35.63 	0.059883 	4943 	0.058342
35.65 	0.058443 	4945 	0.057732
35.67 	0.049373 	4942 	0.048899
35.69 	0.051152 	4946 	0.050304
35.71 	0.054487 	4937 	0.053162
35.73 	0.050243 	4936 	0.049768
35.75 	0.057392 	4931 	0.056679
35.77 	0.061806 	4951 	0.060859
35.79 	0.054745 	4932 	0.053676
35.81 	0.056558 	4933 	0.054995
35.83 	0.065305 	4946 	0.063884
35.85 	0.057953 	4935 	0.056766
35.87 	0.054438 	4923 	0.053248
35.89 	0.058370 	4934 	0.057045
35.91 	0.055409 	4927 	0.054696
35.93 	0.062310 	4927 	0.061953
35.95 	0.055115 	4917 	0.054162
35.97 	0.062704 	4912 	0.061323
35.99 	0.055679 	4939 	0.054493
36.01 	0.060852 	4930 	0.059901
36.03 	0.050577 	4943 	0.049866
36.05 	0.057634 	4945 	0.056568
36.07 	0.056692 	4939 	0.055506
36.09 	0.059514 	4940 	0.058447
36.11 	0.054981 	4929 	0.054149
36.13 	0.061109 	4942 	0.060279
36.15 	0.058514 	4939 	0.056853
36.17 	0.061929 	4925 	0.060740
36.19 	0.056883 	4940 	0.055460
36.21 	0.057010 	4929 	0.056415
36.23 	0.052685 	4935 	0.051854
36.25 	0.057883 	4941 	0.057290
36.27 	0.058883 	4925 	0.057912
36.29 	0.055161 	4931 	0.054211
36.31 	0.058644 	4928 	0.057674
36.33 	0.060409 	4933 	0.059103
36.35 	0.059850 	4929 	0.059374
36.37 	0.056876 	4923 	0.055924
36.39 	0.056696 	4921 	0.055624
36.41 	0.060458 	4896 	0.059620
36.43 	0.054992 	4928 	0.054279
36.45 	0.060243 	4930 	0.059055
36.47 	0.056118 	4936 	0.055288
36.49 	0.052813 	4942 	0.052220
36.51 	0.058788 	4933 	0.057205
36.53 	0.052802 	4943 	0.052209
36.55 	0.056221 	4927 	0.055131
36.57 	0.055736 	4934 	0.054905
36.59 	0.063981 	4939 	0.062795
36.61 	0.061042 	4931 	0.060330
36.63 	0.054553 	4931 	0.053602
36.65 	0.054136 	4932 	0.053067
36.67 	0.057404 	4930 	0.056315
36.69 	0.060661 	4929 	0.059473
36.71 	0.053038 	4921 	0.052443
36.73 	0.058883 	4925 	0.057694
36.75 	0.058455 	4944 	0.057507
36.77 	0.063631 	4919 	0.062916
36.79 	0.058931 	4921 	0.057860
36.81 	0.052685 	4916 	0.051970
36.83 	0.056155 	4915 	0.055678
36.85 	0.060229 	4898 	0.059152
36.87 	0.056634 	4944 	0.055568
36.89 	0.055940 	4916 	0.055225
36.91 	0.056871 	4941 	0.055567
36.93 	0.062880 	4930 	0.062286
36.95 	0.054328 	4933 	0.053616
36.97 	0.055330 	4934 	0.054499
36.99 	0.057143 	4935 	0.056431
37.01 	0.061626 	4933 	0.060557
37.03 	0.049959 	4924 	0.049464
37.05 	0.060483 	4927 	0.058937
37.07 	0.058359 	4935 	0.057409
37.09 	0.051339 	4928 	0.050725
37.11 	0.054711 	4935 	0.054118
37.13 	0.054833 	4924 	0.054239
37.15 	0.049094 	4909 	0.048139
37.17 	0.056344 	4934 	0.055631
37.19 	0.052792 	4925 	0.052554
37.21 	0.056335 	4917 	0.055263
37.23 	0.054087 	4918 	0.052896
37.25 	0.063531 	4911 	0.062696
37.27 	0.058848 	4894 	0.057651
37.29 	0.056998 	4930 	0.056285
37.31 	0.056738 	4935 	0.055907
37.33 	0.057439 	4927 	0.056349
37.35 	0.060348 	4938 	0.059162
37.37 	0.060483 	4927 	0.059532
37.39 	0.061042 	4931 	0.060567
37.41 	0.052728 	4931 	0.051758
37.43 	0.064071 	4932 	0.062884
37.45 	0.058083 	4924 	0.057726
37.47 	0.055792 	4929 	0.055317
37.49 	0.056267 	4923 	0.055315
37.51 	0.057369 	4933 	0.056419
37.53 	0.046351 	4919 	0.045994
37.55 	0.058012 	4930 	0.056824
37.57 	0.058883 	4925 	0.058526
37.59 	0.056765 	4915 	0.056050
37.61 	0.052418 	4922 	0.051585
37.63 	0.056109 	4919 	0.055633
37.65 	0.057340 	4918 	0.056149
37.67 	0.054038 	4904 	0.053440
37.69 	0.056758 	4898 	0.056040
37.71 	0.057212 	4929 	0.056381
37.73 	0.058835 	4929 	0.057290
37.75 	0.060729 	4940 	0.059662
37.77 	0.058130 	4920 	0.057277
37.79 	0.053550 	4930 	0.052956
37.81 	0.058585 	4933 	0.057853
37.83 	0.052236 	4920 	0.051640
37.85 	0.054246 	4922 	0.053770
37.87 	0.059526 	4939 	0.058459
37.89 	0.053604 	4925 	0.052534
37.91 	0.054361 	4930 	0.052579
37.93 	0.056922 	4919 	0.056327
37.95 	0.057712 	4921 	0.056521
37.97 	0.055184 	4929 	0.053876
37.99 	0.050489 	4912 	0.049773
38.01 	0.056818 	4928 	0.055867
38.03 	0.054594 	4909 	0.053997
38.05 	0.051777 	4925 	0.050825
38.07 	0.057242 	4909 	0.056764
38.09 	0.055351 	4878 	0.054030
38.11 	0.054711 	4935 	0.053999
38.13 	0.052056 	4937 	0.051581
38.15 	0.053884 	4918 	0.053149
38.17 	0.053144 	4930 	0.052431
38.19 	0.064097 	4930 	0.063266
38.21 	0.057485 	4923 	0.056157
38.23 	0.063994 	4938 	0.062432
38.25 	0.057149 	4917 	0.056076
38.27 	0.065517 	4930 	0.063616
38.29 	0.061738 	4924 	0.060549
38.31 	0.068196 	4927 	0.066630
38.33 	0.064379 	4924 	0.062337
38.35 	0.070617 	4928 	0.068953
38.37 	0.064785 	4924 	0.062862
38.39 	0.070686 	4909 	0.069255
38.41 	0.071704 	4923 	0.069562
38.43 	0.069162 	4916 	0.067494
38.45 	0.078487 	4918 	0.076462
38.47 	0.086203 	4907 	0.084055
38.49 	0.077917 	4877 	0.076235
38.51 	0.079481 	4932 	0.077581
38.53 	0.085413 	4929 	0.083492
38.55 	0.078606 	4936 	0.077044
38.57 	0.079829 	4923 	0.078877
38.59 	0.080829 	4924 	0.079282
38.61 	0.090357 	4936 	0.088339
38.63 	0.080829 	4924 	0.079163
38.65 	0.075641 	4918 	0.074330
38.67 	0.073121 	4937 	0.071698
38.69 	0.082487 	4922 	0.079849
38.71 	0.069659 	4924 	0.069044
38.73 	0.077471 	4918 	0.075426
38.75 	0.069616 	4927 	0.068408
38.77 	0.068251 	4923 	0.067299
38.79 	0.062829 	4934 	0.061523
38.81 	0.071865 	4912 	0.070195
38.83 	0.057735 	4919 	0.056902
38.85 	0.064943 	4912 	0.063870
38.87 	0.060476 	4911 	0.059522
38.89 	0.061262 	4897 	0.060066
38.91 	0.056700 	4903 	0.055725
38.93 	0.051640 	4938 	0.051284
38.95 	0.052054 	4918 	0.051220
38.97 	0.050294 	4931 	0.049344
38.99 	0.052258 	4937 	0.052021
39.01 	0.048800 	4918 	0.047967
39.03 	0.048237 	4934 	0.047524
39.05 	0.053604 	4925 	0.052890
39.07 	0.048538 	4924 	0.048300
39.09 	0.052001 	4923 	0.051644
39.11 	0.048266 	4931 	0.047791
39.13 	0.049157 	4923 	0.048681
39.15 	0.050865 	4915 	0.050150
39.17 	0.048613 	4937 	0.048257
39.19 	0.042709 	4917 	0.041994
39.21 	0.049084 	4910 	0.048129
39.23 	0.047716 	4925 	0.047002
39.25 	0.043275 	4922 	0.042323
39.27 	0.050102 	4910 	0.049744
39.29 	0.050602 	4901 	0.049646
39.31 	0.044021 	4884 	0.043661
39.33 	0.050902 	4931 	0.050308
39.35 	0.046201 	4935 	0.045963
39.37 	0.042808 	4929 	0.042095
39.39 	0.046257 	4929 	0.045781
39.41 	0.045630 	4931 	0.045511
39.43 	0.045814 	4933 	0.045339
39.45 	0.044670 	4925 	0.044194
39.47 	0.054641 	4923 	0.053809
39.49 	0.041760 	4933 	0.041285
39.51 	0.046101 	4924 	0.045625
39.53 	0.046516 	4923 	0.045921
39.55 	0.049604 	4919 	0.048889
39.57 	0.052909 	4933 	0.052553
39.59 	0.046010 	4912 	0.045294
39.61 	0.047938 	4923 	0.047462
39.63 	0.048557 	4922 	0.047843
39.65 	0.047909 	4926 	0.047314
39.67 	0.044169 	4913 	0.042957
39.69 	0.047803 	4916 	0.046850
39.71 	0.047191 	4895 	0.046353
39.73 	0.041769 	4908 	0.041530
39.75 	0.044846 	4928 	0.044251
39.77 	0.047011 	4935 	0.046299
39.79 	0.046285 	4926 	0.046285
39.81 	0.044855 	4927 	0.044260
39.83 	0.044183 	4934 	0.043590
39.85 	0.039375 	4927 	0.039137
39.87 	0.041015 	4925 	0.040421
39.89 	0.047629 	4934 	0.047154
39.91 	0.041650 	4922 	0.041174
39.93 	0.046790 	4937 	0.046196
39.95 	0.047813 	4915 	0.046979
39.97 	0.045049 	4928 	0.044692
39.99 	0.041971 	4932 	0.041338
40.01 	0.043920 	4918 	0.043682
40.03 	0.038758 	4928 	0.038520
40.05 	0.044946 	4917 	0.044589
40.07 	0.046516 	4923 	0.045921
40.09 	0.046583 	4916 	0.045709
40.11 	0.049227 	4916 	0.048870
40.13 	0.045752 	4896 	0.045393
40.15 	0.041726 	4913 	0.040891
40.17 	0.053369 	4928 	0.052893
40.19 	0.043619 	4929 	0.043025
40.21 	0.046606 	4935 	0.045300
40.23 	0.044607 	4932 	0.044132
40.25 	0.044919 	4920 	0.044204
40.27 	0.037472 	4937 	0.036998
40.29 	0.040999 	4927 	0.040523
40.31 	0.041304 	4939 	0.040711
40.33 	0.042782 	4932 	0.042782
40.35 	0.044928 	4919 	0.044690
40.37 	0.046257 	4929 	0.045781
40.39 	0.041574 	4931 	0.040960
40.41 	0.039797 	4925 	0.039440
40.43 	0.044494 	4922 	0.044256
40.45 	0.044800 	4933 	0.043732
40.47 	0.044327 	4918 	0.043851
40.49 	0.039586 	4926 	0.039210
40.51 	0.043072 	4922 	0.042477
40.53 	0.041497 	4916 	0.040882
40.55 	0.042380 	4908 	0.042022
40.57 	0.042331 	4890 	0.040874
40.59 	0.040308 	4937 	0.039932
40.61 	0.045187 	4935 	0.044831
40.63 	0.040771 	4930 	0.040296
40.65 	0.041321 	4937 	0.041083
40.67 	0.041363 	4932 	0.040531
40.69 	0.043549 	4937 	0.042955
40.71 	0.043593 	4932 	0.043118
40.73 	0.039992 	4926 	0.039754
40.75 	0.041371 	4931 	0.041133
40.77 	0.037659 	4939 	0.037422
40.79 	0.046710 	4924 	0.045520
40.81 	0.042299 	4941 	0.041469
40.83 	0.036932 	4928 	0.036100
40.85 	0.045085 	4924 	0.044728
40.87 	0.045860 	4928 	0.045266
40.89 	0.041371 	4931 	0.040777
40.91 	0.044485 	4923 	0.043890
40.93 	0.041954 	4934 	0.041835
40.95 	0.040301 	4913 	0.040301
40.97 	0.042648 	4924 	0.041796
40.99 	0.042039 	4924 	0.041920
41.01 	0.041938 	4912 	0.041819
41.03 	0.042202 	4905 	0.041844
41.05 	0.039303 	4936 	0.039184
41.07 	0.046045 	4930 	0.045688
41.09 	0.039887 	4939 	0.039768
41.11 	0.040932 	4935 	0.040576
41.13 	0.042342 	4936 	0.041986
41.15 	0.043513 	4941 	0.043158
41.17 	0.040940 	4934 	0.040703
41.19 	0.044219 	4930 	0.043506
41.21 	0.039700 	4937 	0.039582
41.23 	0.042519 	4939 	0.041807
41.25 	0.040341 	4933 	0.039628
41.27 	0.042588 	4931 	0.042113
41.29 	0.040787 	4928 	0.040550
41.31 	0.038719 	4933 	0.038481
41.33 	0.040916 	4937 	0.040797
41.35 	0.040300 	4938 	0.039707
41.37 	0.040414 	4924 	0.039819
41.39 	0.038516 	4933 	0.037566
41.41 	0.038774 	4926 	0.038536
41.43 	0.039562 	4929 	0.038968
41.45 	0.037037 	4914 	0.036560
41.47 	0.037759 	4926 	0.037521
41.49 	0.039248 	4892 	0.039128
41.51 	0.043117 	4940 	0.042880
41.53 	0.041464 	4944 	0.040990
41.55 	0.039108 	4935 	0.038871
41.57 	0.037442 	4941 	0.037323
41.59 	0.041760 	4933 	0.041403
41.61 	0.042197 	4953 	0.041605
41.63 	0.040705 	4938 	0.040092
41.65 	0.035504 	4929 	0.035266
41.67 	0.039069 	4940 	0.038595
41.69 	0.041641 	4947 	0.041286
41.71 	0.044994 	4934 	0.044163
41.73 	0.039506 	4936 	0.039150
41.75 	0.043619 	4929 	0.042906
41.77 	0.040680 	4941 	0.039850
41.79 	0.040858 	4944 	0.040147
41.81 	0.035049 	4936 	0.034811
41.83 	0.037338 	4928 	0.036843
41.85 	0.038874 	4939 	0.038756
41.87 	0.045593 	4935 	0.045118
41.89 	0.038719 	4933 	0.038600
41.91 	0.036062 	4936 	0.035706
41.93 	0.037307 	4932 	0.036714
41.95 	0.038937 	4931 	0.038225
41.97 	0.038869 	4914 	0.038511
41.99 	0.041182 	4905 	0.040944
42.01 	0.038851 	4942 	0.038377
42.03 	0.039684 	4939 	0.038617
42.05 	0.037359 	4952 	0.036649
42.07 	0.039295 	4937 	0.038821
42.09 	0.036783 	4948 	0.036290
42.11 	0.034580 	4945 	0.034462
42.13 	0.039029 	4945 	0.038792
42.15 	0.039895 	4938 	0.039420
42.17 	0.036804 	4918 	0.036565
42.19 	0.038712 	4908 	0.037877
42.21 	0.033871 	4901 	0.033632
42.23 	0.040270 	4892 	0.040030
42.25 	0.037431 	4889 	0.037191
42.27 	0.039188 	4874 	0.038707
42.29 	0.033724 	4863 	0.033122
42.31 	0.036663 	4855 	0.036161
42.33 	0.044063 	4834 	0.043699
42.35 	0.039066 	4838 	0.038702
42.37 	0.042443 	4830 	0.042201
42.39 	0.038718 	4804 	0.037986
42.41 	0.041840 	4804 	0.041718
42.43 	0.040067 	4792 	0.039578
42.45 	0.036223 	4776 	0.035487
42.47 	0.040084 	4765 	0.039715
42.49 	0.037566 	4765 	0.037197
42.51 	0.038583 	4743 	0.038460
42.53 	0.039129 	4728 	0.038757
42.55 	0.037596 	4708 	0.037471
42.57 	0.038266 	4730 	0.037895
42.59 	0.032354 	4729 	0.032106
42.61 	0.039507 	4708 	0.038885
42.63 	0.036313 	4709 	0.035547
42.65 	0.035432 	4685 	0.035057
42.67 	0.039069 	4684 	0.038819
42.69 	0.036799 	4674 	0.036549
42.71 	0.036886 	4663 	0.036635
42.73 	0.034052 	4640 	0.033925
42.75 	0.033355 	4617 	0.032847
42.77 	0.040000 	4600 	0.039745
42.79 	0.039939 	4582 	0.039683
42.81 	0.035730 	4562 	0.035345
42.83 	0.040564 	4536 	0.040177
42.85 	0.040194 	4528 	0.039009
42.87 	0.038675 	4499 	0.038154
42.89 	0.037277 	4480 	0.036340
42.91 	0.037926 	4456 	0.036875
42.93 	0.040936 	4446 	0.040540
42.95 	0.036005 	4416 	0.035475
42.97 	0.040900 	4401 	0.039813
42.99 	0.034208 	4385 	0.034074
43.01 	0.035297 	4363 	0.035006
43.03 	0.038080 	4333 	0.037269
43.05 	0.042543 	4325 	0.042002
43.07 	0.039106 	4296 	0.038697
43.09 	0.038524 	4283 	0.037977
43.11 	0.038778 	4255 	0.038503
43.13 	0.038707 	4237 	0.038292
43.15 	0.043272 	4206 	0.043132
43.17 	0.039962 	4179 	0.039962
43.19 	0.044826 	4194 	0.044267
43.21 	0.037392 	4172 	0.037111
43.23 	0.039239 	4154 	0.039098
43.25 	0.042805 	4135 	0.042380
43.27 	0.037515 	4105 	0.037230
43.29 	0.043902 	4100 	0.043760
43.31 	0.036283 	4079 	0.035853
43.33 	0.043693 	4051 	0.043115
43.35 	0.039683 	4032 	0.039683
43.37 	0.037609 	4015 	0.036879
43.39 	0.034983 	4002 	0.034690
43.41 	0.031470 	3972 	0.031175
43.43 	0.036111 	3960 	0.035371
43.45 	0.035324 	3935 	0.034877
43.47 	0.034430 	3921 	0.034281
43.49 	0.044137 	3897 	0.043686
43.51 	0.046944 	3877 	0.046792
43.53 	0.036241 	3863 	0.035786
43.55 	0.038124 	2964 	0.037531
43.57 	0.042449 	2238 	0.041663
43.59 	0.036655 	1746 	0.036655
43.61 	0.033309 	1351 	0.033309
43.63 	0.028971 	1001 	0.028971
43.65 	0.034934 	687 	0.034934
43.67 	0.033865 	502 	0.033865
43.69 	0.038147 	367 	0.036551
43.71 	0.050209 	239 	0.047758
43.73 	0.025000 	120 	0.025000
43.75 	0.000000 	16 	0.000000