File: Example_Data/25SC_s1_0039.002.dat
#F C:\frames\spec\25SC_s1_0039.002
#C title =s:39 frm:2 25SC_s1
#C wavelength =0.15406

#S 1  fr_average C:\frames\spec\25SC_s1_0039.002 C:\win32app\speccom\mask.axs chi 0 180 0 360 0.02
#C 2 theta =0.000000 to 180 deg
#C   q   =0.000000 to 81.568 nm^-1
#C  chi  =0.000000 to 360 deg
#C collumns:
#C  1 position (2theta or chi in degrees)
#C  2 average intensity (sum of all counts in the region divided with number of pixels)
#C  3 Number of pixels in region)
#C  4 error (sum of sqrt(intensity) for all pixels divided by number)
#N 4
#L TTh  Int  N_pix  Err
32.99 	0.081967 	61 	0.081967
33.01 	0.063001 	873 	0.063001
33.03 	0.061826 	1391 	0.060984
33.05 	0.050655 	1757 	0.050321
33.07 	0.058537 	2050 	0.057965
33.09 	0.065616 	2347 	0.063619
33.11 	0.057387 	2579 	0.056705
33.13 	0.059434 	2793 	0.058176
33.15 	0.061354 	2999 	0.060182
33.17 	0.058419 	3201 	0.057504
33.19 	0.063136 	3342 	0.061909
33.21 	0.052678 	3436 	0.051996
33.23 	0.045984 	3523 	0.044820
33.25 	0.058970 	3612 	0.058159
33.27 	0.060331 	3630 	0.058394
33.29 	0.060033 	3648 	0.058909
33.31 	0.054645 	3660 	0.054325
33.33 	0.059957 	3686 	0.057706
33.35 	0.052518 	3694 	0.051725
33.37 	0.071621 	3714 	0.069886
33.39 	0.055511 	3729 	0.055040
33.41 	0.052139 	3740 	0.051669
33.43 	0.053709 	3761 	0.052930
33.45 	0.060164 	3773 	0.059388
33.47 	0.054502 	3798 	0.053114
33.49 	0.060908 	3809 	0.059524
33.51 	0.064482 	3815 	0.062947
33.53 	0.057277 	3841 	0.056209
33.55 	0.058028 	3843 	0.056961
33.57 	0.051844 	3877 	0.051391
33.59 	0.055670 	3880 	0.054009
33.61 	0.060118 	3909 	0.059219
33.63 	0.061240 	3919 	0.060493
33.65 	0.051132 	3931 	0.050387
33.67 	0.064745 	3954 	0.063683
33.69 	0.054895 	3953 	0.053561
33.71 	0.062138 	3975 	0.061402
33.73 	0.063187 	4004 	0.061578
33.75 	0.054514 	3999 	0.053488
33.77 	0.062360 	4025 	0.060614
33.79 	0.057412 	4041 	0.056083
33.81 	0.062407 	4038 	0.060376
33.83 	0.049630 	4050 	0.048762
33.85 	0.059039 	4099 	0.057467
33.87 	0.063002 	4111 	0.061862
33.89 	0.057996 	4121 	0.056527
33.91 	0.053025 	4149 	0.052037
33.93 	0.050831 	4151 	0.050102
33.95 	0.050706 	4181 	0.049865
33.97 	0.056802 	4190 	0.056522
33.99 	0.059048 	4200 	0.058211
34.01 	0.059577 	4213 	0.058465
34.03 	0.047361 	4244 	0.046809
34.05 	0.058090 	4252 	0.057264
34.07 	0.062793 	4268 	0.061695
34.09 	0.057163 	4286 	0.056890
34.11 	0.049279 	4302 	0.049143
34.13 	0.052693 	4308 	0.052421
34.15 	0.057723 	4331 	0.057318
34.17 	0.058161 	4350 	0.056792
34.19 	0.052040 	4362 	0.051100
34.21 	0.060856 	4371 	0.059493
34.23 	0.060551 	4393 	0.059884
34.25 	0.058583 	4404 	0.057364
34.27 	0.056762 	4422 	0.055834
34.29 	0.051635 	4435 	0.050974
34.31 	0.059668 	4458 	0.058354
34.33 	0.061284 	4471 	0.060760
34.35 	0.050847 	4484 	0.049933
34.37 	0.054108 	4491 	0.053065
34.39 	0.057086 	4502 	0.056045
34.41 	0.058992 	4526 	0.057698
34.43 	0.061247 	4539 	0.059956
34.45 	0.057993 	4535 	0.057348
34.47 	0.054225 	4592 	0.052694
34.49 	0.055253 	4597 	0.054468
34.51 	0.052757 	4606 	0.051867
34.53 	0.057937 	4643 	0.056927
34.55 	0.053198 	4643 	0.052820
34.57 	0.048498 	4660 	0.047869
34.59 	0.055829 	4675 	0.054325
34.61 	0.061954 	4697 	0.060333
34.63 	0.050955 	4710 	0.050582
34.65 	0.063758 	4721 	0.062889
34.67 	0.053997 	4741 	0.053256
34.69 	0.059739 	4754 	0.058240
34.71 	0.053504 	4766 	0.052275
34.73 	0.052434 	4787 	0.051435
34.75 	0.055740 	4808 	0.055009
34.77 	0.050851 	4818 	0.050243
34.79 	0.051824 	4824 	0.050974
34.81 	0.052425 	4845 	0.050853
34.83 	0.054504 	4862 	0.053781
34.85 	0.057917 	4869 	0.056594
34.87 	0.057313 	4868 	0.056230
34.89 	0.053462 	4882 	0.052862
34.91 	0.057558 	4882 	0.056718
34.93 	0.056134 	4899 	0.054938
34.95 	0.057260 	4890 	0.056042
34.97 	0.053856 	4902 	0.052900
34.99 	0.049418 	4897 	0.049059
35.01 	0.054641 	4923 	0.053670
35.03 	0.052195 	4943 	0.051247
35.05 	0.054579 	4947 	0.053986
35.07 	0.055061 	4940 	0.054349
35.09 	0.057541 	4953 	0.056122
35.11 	0.060036 	4947 	0.058695
35.13 	0.051634 	4958 	0.051043
35.15 	0.051246 	4937 	0.050652
35.17 	0.054387 	4946 	0.053321
35.19 	0.053217 	4942 	0.052625
35.21 	0.056218 	4945 	0.054797
35.23 	0.052376 	4945 	0.051665
35.25 	0.057050 	4943 	0.055846
35.27 	0.054163 	4948 	0.053453
35.29 	0.052174 	4945 	0.051108
35.31 	0.056152 	4933 	0.055084
35.33 	0.063120 	4943 	0.062508
35.35 	0.054229 	4942 	0.053281
35.37 	0.056287 	4939 	0.055456
35.39 	0.051365 	4945 	0.050773
35.41 	0.056029 	4926 	0.055554
35.43 	0.059193 	4933 	0.058124
35.45 	0.056107 	4937 	0.055632
35.47 	0.058609 	4931 	0.057896
35.49 	0.055193 	4910 	0.054120
35.51 	0.054405 	4926 	0.053454
35.53 	0.047080 	4949 	0.046015
35.55 	0.054601 	4945 	0.053771
35.57 	0.052706 	4933 	0.051994
35.59 	0.060465 	4945 	0.059399
35.61 	0.053217 	4942 	0.052131
35.63 	0.053409 	4943 	0.052698
35.65 	0.054398 	4945 	0.053688
35.67 	0.054431 	4942 	0.053365
35.69 	0.055600 	4946 	0.054278
35.71 	0.060766 	4937 	0.059777
35.73 	0.055105 	4936 	0.054512
35.75 	0.056581 	4931 	0.055967
35.77 	0.058978 	4951 	0.057558
35.79 	0.054136 	4932 	0.053424
35.81 	0.052706 	4933 	0.051618
35.83 	0.053983 	4946 	0.053154
35.85 	0.052888 	4935 	0.051701
35.87 	0.056267 	4923 	0.055910
35.89 	0.052696 	4934 	0.051845
35.91 	0.049726 	4927 	0.048894
35.93 	0.056221 	4927 	0.055507
35.95 	0.055318 	4917 	0.054603
35.97 	0.060057 	4912 	0.058984
35.99 	0.056287 	4939 	0.055219
36.01 	0.051927 	4930 	0.051214
36.03 	0.057253 	4943 	0.056423
36.05 	0.054803 	4945 	0.054092
36.07 	0.059324 	4939 	0.058731
36.09 	0.054858 	4940 	0.053910
36.11 	0.053155 	4929 	0.052442
36.13 	0.054431 	4942 	0.053602
36.15 	0.055679 	4939 	0.054612
36.17 	0.052792 	4925 	0.051840
36.19 	0.056275 	4940 	0.055564
36.21 	0.059850 	4929 	0.058780
36.23 	0.055117 	4935 	0.054503
36.25 	0.053633 	4941 	0.052803
36.27 	0.049543 	4925 	0.048592
36.29 	0.057595 	4931 	0.056763
36.31 	0.053571 	4928 	0.052977
36.33 	0.054328 	4933 	0.053616
36.35 	0.052952 	4929 	0.052001
36.37 	0.055251 	4923 	0.054061
36.39 	0.053444 	4921 	0.052373
36.41 	0.056985 	4896 	0.056148
36.43 	0.056209 	4928 	0.055496
36.45 	0.047465 	4930 	0.047108
36.47 	0.054092 	4936 	0.053380
36.49 	0.058074 	4942 	0.057481
36.51 	0.049463 	4933 	0.049107
36.53 	0.054825 	4943 	0.053995
36.55 	0.057845 	4927 	0.056774
36.57 	0.047021 	4934 	0.046645
36.59 	0.051225 	4939 	0.050751
36.61 	0.047252 	4931 	0.046183
36.63 	0.056175 	4931 	0.054730
36.65 	0.060219 	4932 	0.058200
36.67 	0.052130 	4930 	0.050823
36.69 	0.060459 	4929 	0.059151
36.71 	0.053241 	4921 	0.052289
36.73 	0.048934 	4925 	0.048101
36.75 	0.055825 	4944 	0.054285
36.77 	0.048994 	4919 	0.047803
36.79 	0.055680 	4921 	0.054846
36.81 	0.053499 	4916 	0.052307
36.83 	0.055341 	4915 	0.054030
36.85 	0.057166 	4898 	0.055164
36.87 	0.050162 	4944 	0.049194
36.89 	0.052685 	4916 	0.051593
36.91 	0.052621 	4941 	0.051791
36.93 	0.052738 	4930 	0.052144
36.95 	0.048247 	4933 	0.047415
36.97 	0.053506 	4934 	0.052556
36.99 	0.055319 	4935 	0.054488
37.01 	0.050071 	4933 	0.049833
37.03 	0.054630 	4924 	0.054273
37.05 	0.045870 	4927 	0.045751
37.07 	0.052685 	4935 	0.051854
37.09 	0.049107 	4928 	0.048751
37.11 	0.050456 	4935 	0.049981
37.13 	0.051990 	4924 	0.051039
37.15 	0.055612 	4909 	0.055135
37.17 	0.051277 	4934 	0.049971
37.19 	0.050152 	4925 	0.049320
37.21 	0.056539 	4917 	0.055566
37.23 	0.051240 	4918 	0.050049
37.25 	0.050906 	4911 	0.049833
37.27 	0.049244 	4894 	0.048526
37.29 	0.051724 	4930 	0.051011
37.31 	0.053090 	4935 	0.052497
37.33 	0.056424 	4927 	0.055235
37.35 	0.051033 	4938 	0.050183
37.37 	0.052162 	4927 	0.051686
37.39 	0.046035 	4931 	0.045659
37.41 	0.049280 	4931 	0.048191
37.43 	0.059813 	4932 	0.058606
37.45 	0.050162 	4924 	0.049330
37.47 	0.052140 	4929 	0.051190
37.49 	0.051798 	4923 	0.050965
37.51 	0.049666 	4933 	0.048834
37.53 	0.050620 	4919 	0.050025
37.55 	0.051927 	4930 	0.051571
37.57 	0.056041 	4925 	0.055426
37.59 	0.050051 	4915 	0.049336
37.61 	0.048151 	4922 	0.047794
37.63 	0.056922 	4919 	0.055969
37.65 	0.052257 	4918 	0.050808
37.67 	0.052406 	4904 	0.051570
37.69 	0.050429 	4898 	0.049831
37.71 	0.054778 	4929 	0.053451
37.73 	0.051532 	4929 	0.050700
37.75 	0.054049 	4940 	0.053337
37.77 	0.050000 	4920 	0.049286
37.79 	0.045233 	4930 	0.044520
37.81 	0.051693 	4933 	0.050743
37.83 	0.054268 	4920 	0.053673
37.85 	0.048354 	4922 	0.047878
37.87 	0.050820 	4939 	0.050108
37.89 	0.050761 	4925 	0.049572
37.91 	0.054158 	4930 	0.053564
37.93 	0.056922 	4919 	0.056327
37.95 	0.046332 	4921 	0.045499
37.97 	0.048489 	4929 	0.048132
37.99 	0.061075 	4912 	0.059882
38.01 	0.052557 	4928 	0.051606
38.03 	0.049908 	4909 	0.048596
38.05 	0.057259 	4925 	0.056069
38.07 	0.046445 	4909 	0.046087
38.09 	0.052481 	4878 	0.051640
38.11 	0.052482 	4935 	0.051632
38.13 	0.051246 	4937 	0.050059
38.15 	0.052054 	4918 	0.051339
38.17 	0.048884 	4930 	0.048290
38.19 	0.057606 	4930 	0.056299
38.21 	0.054845 	4923 	0.053774
38.23 	0.049615 	4938 	0.048666
38.25 	0.053895 	4917 	0.053418
38.27 	0.056389 	4930 	0.055439
38.29 	0.058286 	4924 	0.056977
38.31 	0.053785 	4927 	0.053191
38.33 	0.053209 	4924 	0.052376
38.35 	0.057427 	4928 	0.056001
38.37 	0.059301 	4924 	0.058330
38.39 	0.062946 	4909 	0.061991
38.41 	0.064595 	4923 	0.063643
38.43 	0.064687 	4916 	0.063138
38.45 	0.057137 	4918 	0.055569
38.47 	0.064602 	4907 	0.063766
38.49 	0.056387 	4877 	0.055907
38.51 	0.063666 	4932 	0.062834
38.53 	0.062893 	4929 	0.061685
38.55 	0.063614 	4936 	0.062289
38.57 	0.069470 	4923 	0.067685
38.59 	0.055443 	4924 	0.054610
38.61 	0.058549 	4936 	0.057481
38.63 	0.054630 	4924 	0.052945
38.65 	0.056934 	4918 	0.056457
38.67 	0.061373 	4937 	0.060068
38.69 	0.054246 	4922 	0.052818
38.71 	0.053818 	4924 	0.053342
38.73 	0.050834 	4918 	0.050000
38.75 	0.056424 	4927 	0.055235
38.77 	0.053016 	4923 	0.052303
38.79 	0.050466 	4934 	0.049991
38.81 	0.052321 	4912 	0.050890
38.83 	0.051637 	4919 	0.050446
38.85 	0.049471 	4912 	0.048874
38.87 	0.051313 	4911 	0.050956
38.89 	0.047172 	4897 	0.045856
38.91 	0.048338 	4903 	0.047979
38.93 	0.049818 	4938 	0.048849
38.95 	0.047174 	4918 	0.046102
38.97 	0.043602 	4931 	0.043127
38.99 	0.046384 	4937 	0.046028
39.01 	0.049410 	4918 	0.048696
39.03 	0.052088 	4934 	0.051000
39.05 	0.048122 	4925 	0.047527
39.07 	0.043867 	4924 	0.043272
39.09 	0.044282 	4923 	0.043925
39.11 	0.045224 	4931 	0.044868
39.13 	0.041641 	4923 	0.041284
39.15 	0.047609 	4915 	0.047013
39.17 	0.047802 	4937 	0.047328
39.19 	0.044539 	4917 	0.044063
39.21 	0.043788 	4910 	0.042834
39.23 	0.043452 	4925 	0.042976
39.25 	0.045104 	4922 	0.044747
39.27 	0.043585 	4910 	0.042749
39.29 	0.048153 	4901 	0.047436
39.31 	0.048321 	4884 	0.047242
39.33 	0.046441 	4931 	0.045966
39.35 	0.047416 	4935 	0.046586
39.37 	0.042605 	4929 	0.041892
39.39 	0.045648 	4929 	0.045173
39.41 	0.045224 	4931 	0.044749
39.43 	0.046017 	4933 	0.045542
39.45 	0.045076 	4925 	0.044481
39.47 	0.046516 	4923 	0.046159
39.49 	0.043381 	4933 	0.042669
39.51 	0.045288 	4924 	0.044575
39.53 	0.043266 	4923 	0.042314
39.55 	0.041269 	4919 	0.040911
39.57 	0.043787 	4933 	0.043549
39.59 	0.041327 	4912 	0.041089
39.61 	0.049970 	4923 	0.049137
39.63 	0.046526 	4922 	0.045812
39.65 	0.046082 	4926 	0.045369
39.67 	0.041522 	4913 	0.041284
39.69 	0.045972 	4916 	0.045496
39.71 	0.044944 	4895 	0.044226
39.73 	0.048289 	4908 	0.047692
39.75 	0.041599 	4928 	0.041242
39.77 	0.043161 	4935 	0.042568
39.79 	0.052984 	4926 	0.051914
39.81 	0.042013 	4927 	0.041657
39.83 	0.046210 	4934 	0.045141
39.85 	0.040796 	4927 	0.040439
39.87 	0.043249 	4925 	0.042654
39.89 	0.042156 	4934 	0.041563
39.91 	0.045713 	4922 	0.044880
39.93 	0.046182 	4937 	0.045470
39.95 	0.047406 	4915 	0.046810
39.97 	0.046266 	4928 	0.045672
39.99 	0.039943 	4932 	0.039468
40.01 	0.038430 	4918 	0.037477
40.03 	0.044846 	4928 	0.044014
40.05 	0.042099 	4917 	0.041384
40.07 	0.044688 	4923 	0.044450
40.09 	0.043938 	4916 	0.043700
40.11 	0.047803 	4916 	0.046969
40.13 	0.047590 	4896 	0.046493
40.15 	0.047222 	4913 	0.046745
40.17 	0.043019 	4928 	0.042782
40.19 	0.047068 	4929 	0.046712
40.21 	0.043161 	4935 	0.043161
40.23 	0.035483 	4932 	0.035126
40.25 	0.045325 	4920 	0.044849
40.27 	0.043751 	4937 	0.043039
40.29 	0.045667 	4927 	0.045310
40.31 	0.046973 	4939 	0.046380
40.33 	0.046026 	4932 	0.045551
40.35 	0.044521 	4919 	0.044164
40.37 	0.043619 	4929 	0.043144
40.39 	0.045832 	4931 	0.045357
40.41 	0.042030 	4925 	0.042030
40.43 	0.038805 	4922 	0.038091
40.45 	0.046625 	4933 	0.045912
40.47 	0.041684 	4918 	0.041445
40.49 	0.042225 	4926 	0.041511
40.51 	0.047338 	4922 	0.046624
40.53 	0.040480 	4916 	0.040003
40.55 	0.038509 	4908 	0.038031
40.57 	0.042127 	4890 	0.041648
40.59 	0.044967 	4937 	0.044354
40.61 	0.041540 	4935 	0.040828
40.63 	0.040568 	4930 	0.040449
40.65 	0.040916 	4937 	0.040560
40.67 	0.040349 	4932 	0.039755
40.69 	0.039903 	4937 	0.039665
40.71 	0.039335 	4932 	0.038741
40.73 	0.042631 	4926 	0.042512
40.75 	0.045021 	4931 	0.044784
40.77 	0.041304 	4939 	0.041185
40.79 	0.045695 	4924 	0.045100
40.81 	0.041894 	4941 	0.041657
40.83 	0.039773 	4928 	0.039654
40.85 	0.042648 	4924 	0.042053
40.87 	0.043425 	4928 	0.043069
40.89 	0.039749 	4931 	0.039392
40.91 	0.041844 	4923 	0.041725
40.93 	0.043778 	4934 	0.043184
40.95 	0.041522 	4913 	0.041284
40.97 	0.042445 	4924 	0.042088
40.99 	0.041024 	4924 	0.040409
41.01 	0.041531 	4912 	0.041054
41.03 	0.046075 	4905 	0.045598
41.05 	0.038088 	4936 	0.037494
41.07 	0.036511 	4930 	0.036036
41.09 	0.040899 	4939 	0.040780
41.11 	0.041135 	4935 	0.040897
41.13 	0.042950 	4936 	0.041763
41.15 	0.044121 	4941 	0.043054
41.17 	0.040130 	4934 	0.039892
41.19 	0.042799 	4930 	0.041849
41.21 	0.046182 	4937 	0.045589
41.23 	0.037255 	4939 	0.036661
41.25 	0.037097 	4933 	0.036741
41.27 	0.039343 	4931 	0.038749
41.29 	0.037744 	4928 	0.037506
41.31 	0.041760 	4933 	0.041522
41.33 	0.043144 	4937 	0.042313
41.35 	0.043337 	4938 	0.042863
41.37 	0.044273 	4924 	0.043559
41.39 	0.042165 	4933 	0.041809
41.41 	0.038977 	4926 	0.038382
41.43 	0.040779 	4929 	0.040423
41.45 	0.035206 	4914 	0.034967
41.47 	0.040398 	4926 	0.040279
41.49 	0.044358 	4892 	0.043640
41.51 	0.043320 	4940 	0.042964
41.53 	0.036812 	4944 	0.036694
41.55 	0.042756 	4935 	0.042024
41.57 	0.038454 	4941 	0.037861
41.59 	0.039124 	4933 	0.038649
41.61 	0.033919 	4953 	0.033209
41.63 	0.037870 	4938 	0.037632
41.65 	0.035301 	4929 	0.035064
41.67 	0.039069 	4940 	0.038713
41.69 	0.040631 	4947 	0.040275
41.71 	0.037292 	4934 	0.037174
41.73 	0.037480 	4936 	0.037124
41.75 	0.032258 	4929 	0.031902
41.77 	0.038859 	4941 	0.038147
41.79 	0.045307 	4944 	0.044834
41.81 	0.035859 	4936 	0.035622
41.83 	0.039570 	4928 	0.039213
41.85 	0.040696 	4939 	0.040459
41.87 	0.042351 	4935 	0.041757
41.89 	0.035678 	4933 	0.035203
41.91 	0.039708 	4936 	0.039214
41.93 	0.041565 	4932 	0.040734
41.95 	0.036909 	4931 	0.036434
41.97 	0.039072 	4914 	0.038238
41.99 	0.039144 	4905 	0.038666
42.01 	0.037434 	4942 	0.037197
42.03 	0.034217 	4939 	0.033862
42.05 	0.039176 	4952 	0.038348
42.07 	0.033016 	4937 	0.032660
42.09 	0.039814 	4948 	0.038729
42.11 	0.041254 	4945 	0.041135
42.13 	0.039636 	4945 	0.039162
42.15 	0.040097 	4938 	0.039504
42.17 	0.043310 	4918 	0.042715
42.19 	0.037490 	4908 	0.036774
42.21 	0.043052 	4901 	0.042694
42.23 	0.038021 	4892 	0.037902
42.25 	0.036613 	4889 	0.036253
42.27 	0.042265 	4874 	0.042025
42.29 	0.033518 	4863 	0.033398
42.31 	0.039753 	4855 	0.039270
42.33 	0.038064 	4834 	0.037700
42.35 	0.036379 	4838 	0.036015
42.37 	0.038302 	4830 	0.037696
42.39 	0.035387 	4804 	0.035021
42.41 	0.034763 	4804 	0.034397
42.43 	0.041945 	4792 	0.041456
42.45 	0.040201 	4776 	0.040078
42.47 	0.041133 	4765 	0.040498
42.49 	0.038615 	4765 	0.038492
42.51 	0.037107 	4743 	0.036737
42.53 	0.035956 	4728 	0.035584
42.55 	0.036958 	4708 	0.036461
42.57 	0.041649 	4730 	0.041278
42.59 	0.039120 	4729 	0.038501
42.61 	0.040782 	4708 	0.040284
42.63 	0.035889 	4709 	0.035391
42.65 	0.036286 	4685 	0.036036
42.67 	0.038642 	4684 	0.038392
42.69 	0.040650 	4674 	0.040024
42.71 	0.040317 	4663 	0.039689
42.73 	0.033405 	4640 	0.033279
42.75 	0.039636 	4617 	0.039129
42.77 	0.042609 	4600 	0.042354
42.79 	0.039066 	4582 	0.038555
42.81 	0.036388 	4562 	0.036131
42.83 	0.037919 	4536 	0.037531
42.85 	0.039973 	4528 	0.039176
42.87 	0.036008 	4499 	0.035878
42.89 	0.037277 	4480 	0.037015
42.91 	0.034560 	4456 	0.034297
42.93 	0.038911 	4446 	0.038648
42.95 	0.037591 	4416 	0.037193
42.97 	0.038173 	4401 	0.037907
42.99 	0.033751 	4385 	0.033195
43.01 	0.037589 	4363 	0.037030
43.03 	0.039234 	4333 	0.038693
43.05 	0.038382 	4325 	0.038111
43.07 	0.038175 	4296 	0.037902
43.09 	0.041326 	4283 	0.040506
43.11 	0.037603 	4255 	0.037052
43.13 	0.041539 	4237 	0.040848
43.15 	0.034475 	4206 	0.033895
43.17 	0.038287 	4179 	0.038006
43.19 	0.036719 	4194 	0.036440
43.21 	0.037632 	4172 	0.037070
43.23 	0.040443 	4154 	0.040020
43.25 	0.031197 	4135 	0.031055
43.27 	0.039708 	4105 	0.038994
43.29 	0.034634 	4100 	0.034348
43.31 	0.034077 	4079 	0.033933
43.33 	0.039990 	4051 	0.039267
43.35 	0.037202 	4032 	0.036767
43.37 	0.040100 	4015 	0.039662
43.39 	0.037731 	4002 	0.037585
43.41 	0.037513 	3972 	0.036923
43.43 	0.038636 	3960 	0.038020
43.45 	0.037357 	3935 	0.037059
43.47 	0.038511 	3921 	0.037913
43.49 	0.041570 	3897 	0.041119
43.51 	0.036626 	3877 	0.036626
43.53 	0.038571 	3863 	0.038268
43.55 	0.035088 	2964 	0.034692
43.57 	0.042895 	2238 	0.042634
43.59 	0.034937 	1746 	0.034601
43.61 	0.037010 	1351 	0.036142
43.63 	0.033966 	1001 	0.033381
43.65 	0.034934 	687 	0.034934
43.67 	0.029880 	502 	0.028714
43.69 	0.043597 	367 	0.043597
43.71 	0.033473 	239 	0.033473
43.73 	0.050000 	120 	0.050000
43.75 	0.000000 	16 	0.000000