File: Example_Data/25SC_s1_0033.004.dat
#F C:\frames\spec\25SC_s1_0033.004
#C title =s:33 frm:4 25SC_s1
#C wavelength =0.15406

#S 1  fr_average C:\frames\spec\25SC_s1_0033.004 C:\win32app\speccom\mask.axs chi 0 180 0 360 0.02
#C 2 theta =0.000000 to 180 deg
#C   q   =0.000000 to 81.568 nm^-1
#C  chi  =0.000000 to 360 deg
#C collumns:
#C  1 position (2theta or chi in degrees)
#C  2 average intensity (sum of all counts in the region divided with number of pixels)
#C  3 Number of pixels in region)
#C  4 error (sum of sqrt(intensity) for all pixels divided by number)
#N 4
#L TTh  Int  N_pix  Err
32.99 	0.081967 	61 	0.081967
33.01 	0.054983 	873 	0.054983
33.03 	0.057513 	1391 	0.057091
33.05 	0.059761 	1757 	0.059094
33.07 	0.062439 	2050 	0.061582
33.09 	0.058372 	2347 	0.057873
33.11 	0.059713 	2579 	0.058577
33.13 	0.056928 	2793 	0.056299
33.15 	0.058353 	2999 	0.057767
33.17 	0.064042 	3201 	0.062395
33.19 	0.056553 	3342 	0.055677
33.21 	0.059371 	3436 	0.058007
33.23 	0.058189 	3523 	0.056693
33.25 	0.049003 	3612 	0.047868
33.27 	0.058678 	3630 	0.058032
33.29 	0.057292 	3648 	0.056007
33.31 	0.059836 	3660 	0.059036
33.33 	0.053717 	3686 	0.052922
33.35 	0.054954 	3694 	0.054478
33.37 	0.062736 	3714 	0.060527
33.39 	0.056584 	3729 	0.056112
33.41 	0.053209 	3740 	0.052582
33.43 	0.057432 	3761 	0.056030
33.45 	0.061490 	3773 	0.060713
33.47 	0.056345 	3798 	0.055883
33.49 	0.056708 	3809 	0.055939
33.51 	0.068414 	3815 	0.066572
33.53 	0.059099 	3841 	0.058489
33.55 	0.058808 	3843 	0.057894
33.57 	0.053908 	3877 	0.053152
33.59 	0.055928 	3880 	0.054997
33.61 	0.055513 	3909 	0.054764
33.63 	0.058944 	3919 	0.058047
33.65 	0.050623 	3931 	0.049878
33.67 	0.055134 	3954 	0.053504
33.69 	0.054642 	3953 	0.053457
33.71 	0.059371 	3975 	0.057578
33.73 	0.059191 	4004 	0.057728
33.75 	0.053013 	3999 	0.051988
33.77 	0.058634 	4025 	0.057906
33.79 	0.062856 	4041 	0.061672
33.81 	0.063150 	4038 	0.062425
33.83 	0.062469 	4050 	0.060878
33.85 	0.055135 	4099 	0.054135
33.87 	0.061542 	4111 	0.060117
33.89 	0.060422 	4121 	0.059569
33.91 	0.060738 	4149 	0.059302
33.93 	0.057336 	4151 	0.056207
33.95 	0.058838 	4181 	0.057717
33.97 	0.056086 	4190 	0.055247
33.99 	0.055476 	4200 	0.054779
34.01 	0.061714 	4213 	0.060601
34.03 	0.059142 	4244 	0.058452
34.05 	0.056209 	4252 	0.055382
34.07 	0.055530 	4268 	0.054409
34.09 	0.057863 	4286 	0.056633
34.11 	0.054161 	4302 	0.053480
34.13 	0.053157 	4308 	0.051933
34.15 	0.059571 	4331 	0.059030
34.17 	0.056322 	4350 	0.055783
34.19 	0.053645 	4362 	0.052974
34.21 	0.066346 	4371 	0.065006
34.23 	0.056681 	4393 	0.056281
34.25 	0.056312 	4404 	0.055514
34.27 	0.062189 	4422 	0.060997
34.29 	0.058625 	4435 	0.057304
34.31 	0.056079 	4458 	0.054896
34.33 	0.057258 	4471 	0.056865
34.35 	0.058653 	4484 	0.057347
34.37 	0.062124 	4491 	0.061320
34.39 	0.057752 	4502 	0.056581
34.41 	0.055236 	4526 	0.054589
34.43 	0.061027 	4539 	0.059994
34.45 	0.059757 	4535 	0.059241
34.47 	0.055531 	4592 	0.054511
34.49 	0.056559 	4597 	0.055667
34.51 	0.056882 	4606 	0.055865
34.53 	0.055137 	4643 	0.053623
34.55 	0.063106 	4643 	0.061844
34.57 	0.054721 	4660 	0.053569
34.59 	0.063316 	4675 	0.062062
34.61 	0.054716 	4697 	0.054092
34.63 	0.064331 	4710 	0.063088
34.65 	0.050413 	4721 	0.049121
34.67 	0.053575 	4741 	0.052834
34.69 	0.056163 	4754 	0.054931
34.71 	0.056022 	4766 	0.055284
34.73 	0.060372 	4787 	0.058781
34.75 	0.056572 	4808 	0.056085
34.77 	0.053549 	4818 	0.052820
34.79 	0.056799 	4824 	0.055464
34.81 	0.054489 	4845 	0.053381
34.83 	0.058618 	4862 	0.057895
34.85 	0.054015 	4869 	0.052932
34.87 	0.059367 	4868 	0.058625
34.89 	0.056944 	4882 	0.055624
34.91 	0.058378 	4882 	0.057298
34.93 	0.062258 	4899 	0.061181
34.95 	0.052147 	4890 	0.051309
34.97 	0.059364 	4902 	0.058288
34.99 	0.057178 	4897 	0.056460
35.01 	0.056876 	4923 	0.055567
35.03 	0.055634 	4943 	0.054686
35.05 	0.056398 	4947 	0.055451
35.07 	0.058097 	4940 	0.057386
35.09 	0.054109 	4953 	0.053517
35.11 	0.060441 	4947 	0.059119
35.13 	0.053046 	4958 	0.052100
35.15 	0.057930 	4937 	0.056981
35.17 	0.056814 	4946 	0.056221
35.19 	0.063132 	4942 	0.061236
35.21 	0.055410 	4945 	0.054817
35.23 	0.053589 	4945 	0.052504
35.25 	0.051790 	4943 	0.050961
35.27 	0.055174 	4948 	0.054582
35.29 	0.056421 	4945 	0.054644
35.31 	0.053517 	4933 	0.052805
35.33 	0.057657 	4943 	0.057065
35.35 	0.060299 	4942 	0.059114
35.37 	0.056692 	4939 	0.055268
35.39 	0.061881 	4945 	0.061288
35.41 	0.054405 	4926 	0.054048
35.43 	0.053314 	4933 	0.052958
35.45 	0.056309 	4937 	0.055360
35.47 	0.058000 	4931 	0.056812
35.49 	0.059470 	4910 	0.058277
35.51 	0.058871 	4926 	0.057682
35.53 	0.061831 	4949 	0.061120
35.55 	0.055207 	4945 	0.054497
35.57 	0.056963 	4933 	0.055895
35.59 	0.054398 	4945 	0.053806
35.61 	0.051599 	4942 	0.051006
35.63 	0.054420 	4943 	0.053097
35.65 	0.051972 	4945 	0.050906
35.67 	0.050587 	4942 	0.049757
35.69 	0.054994 	4946 	0.054046
35.71 	0.055904 	4937 	0.055311
35.73 	0.058955 	4936 	0.058243
35.75 	0.058609 	4931 	0.057658
35.77 	0.059988 	4951 	0.059041
35.79 	0.061436 	4932 	0.060485
35.81 	0.055950 	4933 	0.054762
35.83 	0.058431 	4946 	0.057720
35.85 	0.066869 	4935 	0.065544
35.87 	0.051188 	4923 	0.050236
35.89 	0.061208 	4934 	0.059902
35.91 	0.055206 	4927 	0.054255
35.93 	0.057845 	4927 	0.056656
35.95 	0.056132 	4917 	0.055298
35.97 	0.053542 	4912 	0.052231
35.99 	0.054869 	4939 	0.054039
36.01 	0.059229 	4930 	0.058041
36.03 	0.058669 	4943 	0.057247
36.05 	0.056421 	4945 	0.055828
36.07 	0.060539 	4939 	0.059234
36.09 	0.052429 	4940 	0.051342
36.11 	0.055792 	4929 	0.054841
36.13 	0.050789 	4942 	0.050196
36.15 	0.061956 	4939 	0.060414
36.17 	0.057665 	4925 	0.056595
36.19 	0.059717 	4940 	0.059242
36.21 	0.050314 	4929 	0.049601
36.23 	0.057143 	4935 	0.056549
36.25 	0.054442 	4941 	0.053494
36.27 	0.055228 	4925 	0.054376
36.29 	0.062665 	4931 	0.061596
36.31 	0.060268 	4928 	0.059178
36.33 	0.052301 	4933 	0.051945
36.35 	0.055386 	4929 	0.054198
36.37 	0.057485 	4923 	0.056176
36.39 	0.056899 	4921 	0.056066
36.41 	0.058415 	4896 	0.057697
36.43 	0.058036 	4928 	0.057323
36.45 	0.052333 	4930 	0.051026
36.47 	0.058144 	4936 	0.057076
36.49 	0.049170 	4942 	0.048815
36.51 	0.057369 	4933 	0.056637
36.53 	0.049160 	4943 	0.048805
36.55 	0.053988 	4927 	0.052661
36.57 	0.052898 	4934 	0.052067
36.59 	0.053857 	4939 	0.053264
36.61 	0.053944 	4931 	0.053113
36.63 	0.053539 	4931 	0.052945
36.65 	0.049878 	4932 	0.049403
36.67 	0.056998 	4930 	0.056166
36.69 	0.050314 	4929 	0.049720
36.71 	0.053648 	4921 	0.053052
36.73 	0.059695 	4925 	0.058625
36.75 	0.057848 	4944 	0.056189
36.77 	0.056109 	4919 	0.055394
36.79 	0.055070 	4921 	0.053880
36.81 	0.055533 	4916 	0.054818
36.83 	0.049440 	4915 	0.048964
36.85 	0.052470 	4898 	0.051633
36.87 	0.058252 	4944 	0.057778
36.89 	0.058788 	4916 	0.057954
36.91 	0.056466 	4941 	0.055380
36.93 	0.058012 	4930 	0.056943
36.95 	0.053517 	4933 	0.053042
36.97 	0.052088 	4934 	0.051019
36.99 	0.056940 	4935 	0.056465
37.01 	0.055139 	4933 	0.053595
37.03 	0.052396 	4924 	0.051802
37.05 	0.058047 	4927 	0.056977
37.07 	0.056130 	4935 	0.055536
37.09 	0.052354 	4928 	0.051760
37.11 	0.056535 	4935 	0.055467
37.13 	0.056864 	4924 	0.055794
37.15 	0.051334 	4909 	0.050976
37.17 	0.054925 	4934 	0.053856
37.19 	0.057665 	4925 	0.056575
37.21 	0.056132 	4917 	0.055179
37.23 	0.055307 	4918 	0.054235
37.25 	0.050906 	4911 	0.049833
37.27 	0.056191 	4894 	0.055234
37.29 	0.054767 	4930 	0.053816
37.31 	0.051064 	4935 	0.049264
37.33 	0.053176 	4927 	0.052225
37.35 	0.054070 	4938 	0.053596
37.37 	0.054597 	4927 	0.053765
37.39 	0.050700 	4931 	0.049987
37.41 	0.054147 	4931 	0.053791
37.43 	0.050689 	4932 	0.050096
37.45 	0.052193 	4924 	0.051361
37.47 	0.056807 	4929 	0.055836
37.49 	0.051188 	4923 	0.050712
37.51 	0.057977 	4933 	0.057502
37.53 	0.051027 	4919 	0.050312
37.55 	0.051116 	4930 	0.050759
37.57 	0.054822 	4925 	0.053871
37.59 	0.050661 	4915 	0.050423
37.61 	0.052621 	4922 	0.051907
37.63 	0.052653 	4919 	0.051462
37.65 	0.054087 	4918 	0.053253
37.67 	0.053426 	4904 	0.052470
37.69 	0.054308 	4898 	0.053590
37.71 	0.057415 	4929 	0.056821
37.73 	0.052952 	4929 	0.052714
37.75 	0.050202 	4940 	0.049135
37.77 	0.056707 	4920 	0.056350
37.79 	0.054767 	4930 	0.053935
37.81 	0.051693 	4933 	0.051218
37.83 	0.055081 	4920 	0.054248
37.85 	0.056684 	4922 	0.055970
37.87 	0.061348 	4939 	0.060281
37.89 	0.050964 	4925 	0.050489
37.91 	0.061055 	4930 	0.059748
37.93 	0.052856 	4919 	0.052023
37.95 	0.054460 	4921 	0.053508
37.97 	0.057010 	4929 	0.055821
37.99 	0.058225 	4912 	0.057628
38.01 	0.051542 	4928 	0.050710
38.03 	0.053371 	4909 	0.052775
38.05 	0.059898 	4925 	0.059304
38.07 	0.058668 	4909 	0.058190
38.09 	0.057811 	4878 	0.056970
38.11 	0.053901 	4935 	0.052120
38.13 	0.057525 	4937 	0.056457
38.15 	0.054087 	4918 	0.053611
38.17 	0.056998 	4930 	0.055671
38.19 	0.064503 	4930 	0.062206
38.21 	0.064798 	4923 	0.064322
38.23 	0.065209 	4938 	0.063666
38.25 	0.064063 	4917 	0.062853
38.27 	0.063895 	4930 	0.062706
38.29 	0.064175 	4924 	0.062867
38.31 	0.069819 	4927 	0.068393
38.33 	0.070065 	4924 	0.068756
38.35 	0.062297 	4928 	0.061346
38.37 	0.065800 	4924 	0.064729
38.39 	0.062334 	4909 	0.060783
38.41 	0.067235 	4923 	0.066046
38.43 	0.062856 	4916 	0.062022
38.45 	0.062017 	4918 	0.060707
38.47 	0.060933 	4907 	0.060336
38.49 	0.059668 	4877 	0.058226
38.51 	0.061233 	4932 	0.060164
38.53 	0.059038 	4929 	0.058444
38.55 	0.059765 	4936 	0.057847
38.57 	0.061954 	4923 	0.061002
38.59 	0.061738 	4924 	0.061025
38.61 	0.057334 	4936 	0.056028
38.63 	0.066816 	4924 	0.066102
38.65 	0.054494 	4918 	0.053521
38.67 	0.058740 	4937 	0.057890
38.69 	0.056481 	4922 	0.055172
38.71 	0.051990 	4924 	0.051633
38.73 	0.053477 	4918 	0.052762
38.75 	0.056018 	4927 	0.055661
38.77 	0.055657 	4923 	0.054705
38.79 	0.049655 	4934 	0.048824
38.81 	0.052524 	4912 	0.052047
38.83 	0.055296 	4919 	0.054581
38.85 	0.056596 	4912 	0.054927
38.87 	0.052535 	4911 	0.051223
38.89 	0.054932 	4897 	0.053735
38.91 	0.053233 	4903 	0.052496
38.93 	0.048198 	4938 	0.047723
38.95 	0.057340 	4918 	0.056268
38.97 	0.056378 	4931 	0.055428
38.99 	0.054487 	4937 	0.053162
39.01 	0.051037 	4918 	0.050441
39.03 	0.048439 	4934 	0.048083
39.05 	0.047513 	4925 	0.047275
39.07 	0.053209 	4924 	0.052376
39.09 	0.054438 	4923 	0.053843
39.11 	0.051916 	4931 	0.051441
39.13 	0.055048 	4923 	0.054572
39.15 	0.052696 	4915 	0.051862
39.17 	0.051246 	4937 	0.050296
39.19 	0.046776 	4917 	0.046181
39.21 	0.048676 	4910 	0.048060
39.23 	0.052792 	4925 	0.051840
39.25 	0.052824 	4922 	0.052467
39.27 	0.049491 	4910 	0.048775
39.29 	0.052438 	4901 	0.051482
39.31 	0.052621 	4884 	0.052261
39.33 	0.047658 	4931 	0.046945
39.35 	0.051874 	4935 	0.050925
39.37 	0.051329 	4929 	0.050497
39.39 	0.051735 	4929 	0.050784
39.41 	0.055770 	4931 	0.054938
39.43 	0.054936 	4933 	0.053749
39.45 	0.052792 	4925 	0.051840
39.47 	0.053829 	4923 	0.052758
39.49 	0.054328 	4933 	0.053972
39.51 	0.052600 	4924 	0.052005
39.53 	0.050985 	4923 	0.050271
39.55 	0.053669 	4919 	0.052479
39.57 	0.058180 	4933 	0.057586
39.59 	0.053950 	4912 	0.053115
39.61 	0.049563 	4923 	0.049087
39.63 	0.048151 	4922 	0.047556
39.65 	0.059277 	4926 	0.058207
39.67 	0.055567 	4913 	0.054732
39.69 	0.053295 	4916 	0.052580
39.71 	0.057201 	4895 	0.056364
39.73 	0.052975 	4908 	0.052020
39.75 	0.049513 	4928 	0.048443
39.77 	0.056332 	4935 	0.055858
39.79 	0.054608 	4926 	0.053895
39.81 	0.053988 	4927 	0.052799
39.83 	0.049047 	4934 	0.048335
39.85 	0.053785 	4927 	0.052359
39.87 	0.052792 	4925 	0.052435
39.89 	0.055938 	4934 	0.054989
39.91 	0.056887 	4922 	0.055697
39.93 	0.048613 	4937 	0.047782
39.95 	0.049034 	4915 	0.048795
39.97 	0.050933 	4928 	0.050577
39.99 	0.050892 	4932 	0.049823
40.01 	0.052664 	4918 	0.052068
40.03 	0.052760 	4928 	0.052284
40.05 	0.050844 	4917 	0.049891
40.07 	0.054438 	4923 	0.053605
40.09 	0.054516 	4916 	0.053920
40.11 	0.055126 	4916 	0.054530
40.13 	0.050449 	4896 	0.049612
40.15 	0.055770 	4913 	0.054936
40.17 	0.052760 	4928 	0.052403
40.19 	0.048691 	4929 	0.047622
40.21 	0.054509 	4935 	0.053440
40.23 	0.048865 	4932 	0.048152
40.25 	0.048984 	4920 	0.048031
40.27 	0.048815 	4937 	0.047985
40.29 	0.052973 	4927 	0.052141
40.31 	0.051630 	4939 	0.051274
40.33 	0.054542 	4932 	0.053117
40.35 	0.050620 	4919 	0.049906
40.37 	0.054778 	4929 	0.053946
40.39 	0.048266 	4931 	0.047316
40.41 	0.054010 	4925 	0.052940
40.43 	0.047338 	4922 	0.046862
40.45 	0.051693 	4933 	0.050743
40.47 	0.047377 	4918 	0.046781
40.49 	0.050345 	4926 	0.049632
40.51 	0.048761 	4922 	0.048047
40.53 	0.050041 	4916 	0.049326
40.55 	0.050326 	4908 	0.049849
40.57 	0.047035 	4890 	0.045937
40.59 	0.048815 	4937 	0.048222
40.61 	0.048430 	4935 	0.047717
40.63 	0.054361 	4930 	0.053629
40.65 	0.051448 	4937 	0.050380
40.67 	0.050689 	4932 	0.050333
40.69 	0.048005 	4937 	0.047293
40.71 	0.051095 	4932 	0.050026
40.73 	0.052984 	4926 	0.052033
40.75 	0.059623 	4931 	0.058316
40.77 	0.050820 	4939 	0.050108
40.79 	0.048944 	4924 	0.047973
40.81 	0.049990 	4941 	0.049634
40.83 	0.051136 	4928 	0.050423
40.85 	0.049147 	4924 	0.048176
40.87 	0.049919 	4928 	0.048968
40.89 	0.049280 	4931 	0.048686
40.91 	0.053829 	4923 	0.053353
40.93 	0.052493 	4934 	0.052137
40.95 	0.050885 	4913 	0.050031
40.97 	0.049756 	4924 	0.048805
40.99 	0.051990 	4924 	0.051395
41.01 	0.049267 	4912 	0.048432
41.03 	0.049134 	4905 	0.048536
41.05 	0.053485 	4936 	0.052160
41.07 	0.052333 	4930 	0.051620
41.09 	0.052642 	4939 	0.051931
41.11 	0.049848 	4935 	0.049611
41.13 	0.052674 	4936 	0.052081
41.15 	0.056264 	4941 	0.055197
41.17 	0.049047 	4934 	0.048454
41.19 	0.046045 	4930 	0.045332
41.21 	0.048005 	4937 	0.047293
41.23 	0.050010 	4939 	0.049536
41.25 	0.058180 	4933 	0.057230
41.27 	0.046441 	4931 	0.046203
41.29 	0.045049 	4928 	0.044573
41.31 	0.048247 	4933 	0.047415
41.33 	0.048207 	4937 	0.047496
41.35 	0.048603 	4938 	0.048010
41.37 	0.050366 	4924 	0.049771
41.39 	0.045206 	4933 	0.044256
41.41 	0.048924 	4926 	0.048567
41.43 	0.051329 	4929 	0.050616
41.45 	0.048230 	4914 	0.048110
41.47 	0.050548 	4926 	0.050072
41.49 	0.052535 	4892 	0.051337
41.51 	0.048381 	4940 	0.047551
41.53 	0.048948 	4944 	0.048474
41.55 	0.042351 	4935 	0.042113
41.57 	0.044121 	4941 	0.043409
41.59 	0.048855 	4933 	0.048380
41.61 	0.051080 	4953 	0.049779
41.63 	0.054678 	4938 	0.053848
41.65 	0.047880 	4929 	0.047405
41.67 	0.048583 	4940 	0.047990
41.69 	0.044269 	4947 	0.043322
41.71 	0.050263 	4934 	0.049432
41.73 	0.048217 	4936 	0.047861
41.75 	0.047880 	4929 	0.047167
41.77 	0.046549 	4941 	0.045719
41.79 	0.047532 	4944 	0.046940
41.81 	0.046799 	4936 	0.045968
41.83 	0.051542 	4928 	0.050829
41.85 	0.050010 	4939 	0.048705
41.87 	0.047416 	4935 	0.046823
41.89 	0.050476 	4933 	0.049408
41.91 	0.044773 	4936 	0.044180
41.93 	0.048054 	4932 	0.047578
41.95 	0.047860 	4931 	0.047266
41.97 	0.045584 	4914 	0.045226
41.99 	0.040775 	4905 	0.039919
42.01 	0.046540 	4942 	0.046066
42.03 	0.046568 	4939 	0.045501
42.05 	0.046446 	4952 	0.046091
42.07 	0.045372 	4937 	0.044660
42.09 	0.048707 	4948 	0.047996
42.11 	0.044085 	4945 	0.043611
42.13 	0.046309 	4945 	0.045836
42.15 	0.046173 	4938 	0.045935
42.17 	0.048394 	4918 	0.047441
42.19 	0.042991 	4908 	0.042752
42.21 	0.047541 	4901 	0.046824
42.23 	0.044971 	4892 	0.044612
42.25 	0.047249 	4889 	0.046530
42.27 	0.044932 	4874 	0.044452
42.29 	0.050175 	4863 	0.049673
42.31 	0.048198 	4855 	0.047353
42.33 	0.043442 	4834 	0.042715
42.35 	0.050021 	4838 	0.048931
42.37 	0.048654 	4830 	0.048290
42.39 	0.043505 	4804 	0.043018
42.41 	0.048085 	4804 	0.047353
42.43 	0.049040 	4792 	0.048307
42.45 	0.046482 	4776 	0.045011
42.47 	0.045540 	4765 	0.045049
42.49 	0.042812 	4765 	0.042320
42.51 	0.051444 	4743 	0.050580
42.53 	0.047166 	4728 	0.047042
42.55 	0.048641 	4708 	0.048267
42.57 	0.051797 	4730 	0.051549
42.59 	0.044195 	4729 	0.043700
42.61 	0.045242 	4708 	0.044993
42.63 	0.045657 	4709 	0.045284
42.65 	0.045464 	4685 	0.044839
42.67 	0.044833 	4684 	0.044458
42.69 	0.043646 	4674 	0.042998
42.71 	0.044178 	4663 	0.043173
42.73 	0.044828 	4640 	0.044323
42.75 	0.044401 	4617 	0.043894
42.77 	0.045870 	4600 	0.045105
42.79 	0.046050 	4582 	0.045134
42.81 	0.040772 	4562 	0.040001
42.83 	0.048060 	4536 	0.046769
42.85 	0.043286 	4528 	0.042898
42.87 	0.044232 	4499 	0.043711
42.89 	0.044866 	4480 	0.044605
42.91 	0.047576 	4456 	0.047313
42.93 	0.044085 	4446 	0.043953
42.95 	0.044158 	4416 	0.044025
42.97 	0.045899 	4401 	0.044967
42.99 	0.049259 	4385 	0.048724
43.01 	0.043777 	4363 	0.043374
43.03 	0.048234 	4333 	0.047964
43.05 	0.046936 	4325 	0.046666
43.07 	0.044926 	4296 	0.044221
43.09 	0.041326 	4283 	0.040916
43.11 	0.048414 	4255 	0.047863
43.13 	0.043899 	4237 	0.043208
43.15 	0.050166 	4206 	0.049749
43.17 	0.044508 	4179 	0.043948
43.19 	0.047210 	4194 	0.046070
43.21 	0.049856 	4172 	0.049295
43.23 	0.051035 	4154 	0.050330
43.25 	0.046433 	4135 	0.045583
43.27 	0.040926 	4105 	0.040783
43.29 	0.050244 	4100 	0.049672
43.31 	0.042412 	4079 	0.041838
43.33 	0.049124 	4051 	0.048545
43.35 	0.043403 	4032 	0.043112
43.37 	0.041843 	4015 	0.041259
43.39 	0.051224 	4002 	0.050639
43.41 	0.046324 	3972 	0.046029
43.43 	0.043182 	3960 	0.042738
43.45 	0.047776 	3935 	0.047330
43.47 	0.045142 	3921 	0.044395
43.49 	0.042853 	3897 	0.042703
43.51 	0.046170 	3877 	0.045112
43.53 	0.045302 	3863 	0.044392
43.55 	0.040823 	2964 	0.040230
43.57 	0.049598 	2238 	0.048813
43.59 	0.042955 	1746 	0.042284
43.61 	0.048113 	1351 	0.046378
43.63 	0.035964 	1001 	0.035964
43.65 	0.048035 	687 	0.046330
43.67 	0.037849 	502 	0.037849
43.69 	0.043597 	367 	0.043597
43.71 	0.033473 	239 	0.033473
43.73 	0.033333 	120 	0.033333
43.75 	0.000000 	16 	0.000000