File: Example_Data/25SC_s1_0002.007.dat
#F C:\frames\spec\25SC_s1_0002.007
#C title =s:2 frm:7 25SC_s1
#C wavelength =0.15406

#S 1  fr_average C:\frames\spec\25SC_s1_0002.007 C:\win32app\speccom\mask.axs chi 0 180 0 360 0.02
#C 2 theta =0.000000 to 180 deg
#C   q   =0.000000 to 81.568 nm^-1
#C  chi  =0.000000 to 360 deg
#C collumns:
#C  1 position (2theta or chi in degrees)
#C  2 average intensity (sum of all counts in the region divided with number of pixels)
#C  3 Number of pixels in region)
#C  4 error (sum of sqrt(intensity) for all pixels divided by number)
#N 4
#L TTh  Int  N_pix  Err
32.99 	0.081967 	61 	0.081967
33.01 	0.064147 	873 	0.062134
33.03 	0.068296 	1391 	0.065279
33.05 	0.064883 	1757 	0.063216
33.07 	0.077561 	2050 	0.074418
33.09 	0.069450 	2347 	0.068702
33.11 	0.075998 	2579 	0.073727
33.13 	0.066237 	2793 	0.065188
33.15 	0.077359 	2999 	0.075406
33.17 	0.072165 	3201 	0.071037
33.19 	0.071813 	3342 	0.069535
33.21 	0.065774 	3436 	0.064410
33.23 	0.074085 	3523 	0.073419
33.25 	0.074474 	3612 	0.073014
33.27 	0.068871 	3630 	0.067902
33.29 	0.072917 	3648 	0.070963
33.31 	0.074590 	3660 	0.073150
33.33 	0.066739 	3686 	0.064647
33.35 	0.076611 	3694 	0.074708
33.37 	0.071621 	3714 	0.070675
33.39 	0.072137 	3729 	0.070566
33.41 	0.072727 	3740 	0.071161
33.43 	0.078171 	3761 	0.076302
33.45 	0.074212 	3773 	0.072193
33.47 	0.075303 	3798 	0.074377
33.49 	0.074823 	3809 	0.072670
33.51 	0.078113 	3815 	0.076577
33.53 	0.072117 	3841 	0.070744
33.55 	0.078584 	3843 	0.075841
33.57 	0.075316 	3877 	0.073956
33.59 	0.076289 	3880 	0.075056
33.61 	0.078025 	3909 	0.076527
33.63 	0.072212 	3919 	0.070419
33.65 	0.072755 	3931 	0.071414
33.67 	0.074102 	3954 	0.072028
33.69 	0.070832 	3953 	0.069647
33.71 	0.075975 	3975 	0.074501
33.73 	0.071928 	4004 	0.070758
33.75 	0.069517 	3999 	0.067589
33.77 	0.082733 	4025 	0.079531
33.79 	0.075476 	4041 	0.074317
33.81 	0.066122 	4038 	0.065397
33.83 	0.063210 	4050 	0.062053
33.85 	0.073189 	4099 	0.071331
33.87 	0.077597 	4111 	0.075436
33.89 	0.074496 	4121 	0.073217
33.91 	0.064594 	4149 	0.062876
33.93 	0.072031 	4151 	0.070761
33.95 	0.068166 	4181 	0.066764
33.97 	0.073270 	4190 	0.071592
33.99 	0.074286 	4200 	0.072891
34.01 	0.069784 	4213 	0.068533
34.03 	0.075401 	4244 	0.074158
34.05 	0.071025 	4252 	0.069625
34.07 	0.074039 	4268 	0.072118
34.09 	0.064162 	4286 	0.062773
34.11 	0.076941 	4302 	0.075715
34.13 	0.071031 	4308 	0.069241
34.15 	0.070653 	4331 	0.068873
34.17 	0.074023 	4350 	0.072138
34.19 	0.075653 	4362 	0.073326
34.21 	0.075040 	4371 	0.073142
34.23 	0.074209 	4393 	0.073276
34.25 	0.070845 	4404 	0.069781
34.27 	0.075305 	4422 	0.073694
34.29 	0.065614 	4435 	0.064294
34.31 	0.074921 	4458 	0.073739
34.33 	0.077388 	4471 	0.075553
34.35 	0.069135 	4484 	0.067828
34.37 	0.064128 	4491 	0.062563
34.39 	0.073301 	4502 	0.071739
34.41 	0.072470 	4526 	0.070529
34.43 	0.076008 	4539 	0.074459
34.45 	0.066152 	4535 	0.065356
34.47 	0.080575 	4592 	0.078747
34.49 	0.070263 	4597 	0.068989
34.51 	0.071429 	4606 	0.069225
34.53 	0.071936 	4643 	0.070275
34.55 	0.062460 	4643 	0.061198
34.57 	0.074678 	4660 	0.073421
34.59 	0.072299 	4675 	0.071798
34.61 	0.077922 	4697 	0.076924
34.63 	0.073673 	4710 	0.072678
34.65 	0.071383 	4721 	0.069646
34.67 	0.065176 	4741 	0.063519
34.69 	0.073202 	4754 	0.071476
34.71 	0.068191 	4766 	0.066716
34.73 	0.069146 	4787 	0.067657
34.75 	0.075499 	4808 	0.073621
34.77 	0.075135 	4818 	0.073919
34.79 	0.076493 	4824 	0.074894
34.81 	0.071620 	4845 	0.070411
34.83 	0.077334 	4862 	0.075889
34.85 	0.072089 	4869 	0.070886
34.87 	0.068611 	4868 	0.067388
34.89 	0.073740 	4882 	0.072060
34.91 	0.071077 	4882 	0.069998
34.93 	0.077975 	4899 	0.076301
34.95 	0.072188 	4890 	0.070511
34.97 	0.073643 	4902 	0.071114
34.99 	0.069022 	4897 	0.067586
35.01 	0.073126 	4923 	0.071441
35.03 	0.076269 	4943 	0.074828
35.05 	0.072974 	4947 	0.071316
35.07 	0.068623 	4940 	0.066726
35.09 	0.069049 	4953 	0.067985
35.11 	0.071761 	4947 	0.069511
35.13 	0.076846 	4958 	0.076018
35.15 	0.075147 	4937 	0.073960
35.17 	0.070764 	4946 	0.070054
35.19 	0.073452 	4942 	0.072030
35.21 	0.071183 	4945 	0.069643
35.23 	0.070779 	4945 	0.070068
35.25 	0.076067 	4943 	0.074290
35.27 	0.074576 	4948 	0.073984
35.29 	0.068352 	4945 	0.067286
35.31 	0.073991 	4933 	0.072567
35.33 	0.069391 	4943 	0.068068
35.35 	0.071631 	4942 	0.070446
35.37 	0.071674 	4939 	0.070251
35.39 	0.070981 	4945 	0.069559
35.41 	0.069428 	4926 	0.068001
35.43 	0.073789 	4933 	0.072344
35.45 	0.067045 	4937 	0.065740
35.47 	0.073210 	4931 	0.071666
35.49 	0.075764 	4910 	0.073955
35.51 	0.071458 	4926 	0.069674
35.53 	0.074156 	4949 	0.072736
35.55 	0.071992 	4945 	0.070215
35.57 	0.073181 	4933 	0.071162
35.59 	0.075834 	4945 	0.074650
35.61 	0.077904 	4942 	0.076600
35.63 	0.072426 	4943 	0.070293
35.65 	0.069363 	4945 	0.067705
35.67 	0.075071 	4942 	0.073392
35.69 	0.067327 	4946 	0.065886
35.71 	0.069475 	4937 	0.068408
35.73 	0.072123 	4936 	0.070462
35.75 	0.071791 	4931 	0.069652
35.77 	0.076348 	4951 	0.074810
35.79 	0.071979 	4932 	0.070534
35.81 	0.071153 	4933 	0.069946
35.83 	0.074404 	4946 	0.073219
35.85 	0.076798 	4935 	0.074899
35.87 	0.075970 	4923 	0.074542
35.89 	0.073774 	4934 	0.070856
35.91 	0.072458 	4927 	0.071269
35.93 	0.070631 	4927 	0.068828
35.95 	0.074232 	4917 	0.072068
35.97 	0.070643 	4912 	0.068835
35.99 	0.078558 	4939 	0.077254
36.01 	0.072211 	4930 	0.070072
36.03 	0.074651 	4943 	0.073110
36.05 	0.078059 	4945 	0.076736
36.07 	0.066208 	4939 	0.065378
36.09 	0.074696 	4940 	0.072918
36.11 	0.068168 	4929 	0.066623
36.13 	0.073047 	4942 	0.071131
36.15 	0.076534 	4939 	0.074735
36.17 	0.078376 	4925 	0.075977
36.19 	0.076923 	4940 	0.075144
36.21 	0.076486 	4929 	0.074228
36.23 	0.072746 	4935 	0.070946
36.25 	0.068407 	4941 	0.066728
36.27 	0.067614 	4925 	0.066524
36.29 	0.084364 	4931 	0.081949
36.31 	0.070211 	4928 	0.069022
36.33 	0.072572 	4933 	0.071365
36.35 	0.069385 	4929 	0.067603
36.37 	0.070892 	4923 	0.069325
36.39 	0.071530 	4921 	0.069487
36.41 	0.068219 	4896 	0.066424
36.43 	0.072849 	4928 	0.071423
36.45 	0.068966 	4930 	0.067896
36.47 	0.075365 	4936 	0.074297
36.49 	0.070214 	4942 	0.068180
36.51 	0.064261 	4933 	0.062955
36.53 	0.069998 	4943 	0.068694
36.55 	0.068399 	4927 	0.067329
36.57 	0.067288 	4934 	0.065507
36.59 	0.070257 	4939 	0.069308
36.61 	0.076658 	4931 	0.075114
36.63 	0.064896 	4931 	0.063589
36.65 	0.071979 	4932 	0.070435
36.67 	0.072819 	4930 	0.071988
36.69 	0.073037 	4929 	0.071254
36.71 	0.069904 	4921 	0.068000
36.73 	0.069036 	4925 	0.067232
36.75 	0.067961 	4944 	0.066401
36.77 	0.071763 	4919 	0.069500
36.79 	0.070921 	4921 	0.069730
36.81 	0.076485 	4916 	0.074778
36.83 	0.076907 	4915 	0.074723
36.85 	0.072274 	4898 	0.069943
36.87 	0.068770 	4944 	0.066855
36.89 	0.073027 	4916 	0.071478
36.91 	0.069014 	4941 	0.067947
36.93 	0.068763 	4930 	0.067198
36.95 	0.073586 	4933 	0.072280
36.97 	0.068504 	4934 	0.066961
36.99 	0.070922 	4935 	0.069953
37.01 	0.072775 	4933 	0.071825
37.03 	0.066206 	4924 	0.065374
37.05 	0.060686 	4927 	0.059378
37.07 	0.064438 	4935 	0.063488
37.09 	0.072849 	4928 	0.071660
37.11 	0.071530 	4935 	0.069018
37.13 	0.070268 	4924 	0.069078
37.15 	0.062131 	4909 	0.060937
37.17 	0.062221 	4934 	0.060678
37.19 	0.061726 	4925 	0.060774
37.21 	0.072605 	4917 	0.070937
37.23 	0.064864 	4918 	0.064387
37.25 	0.068418 	4911 	0.066112
37.27 	0.064569 	4894 	0.063133
37.29 	0.070183 	4930 	0.068757
37.31 	0.058764 	4935 	0.057814
37.33 	0.065354 	4927 	0.064165
37.35 	0.066019 	4938 	0.064476
37.37 	0.065760 	4927 	0.064333
37.39 	0.067126 	4931 	0.065938
37.41 	0.059826 	4931 	0.058875
37.43 	0.071979 	4932 	0.070554
37.45 	0.069862 	4924 	0.068653
37.47 	0.072631 	4929 	0.070849
37.49 	0.065001 	4923 	0.063930
37.51 	0.071964 	4933 	0.070421
37.53 	0.070949 	4919 	0.069401
37.55 	0.063692 	4930 	0.062860
37.57 	0.061523 	4925 	0.059719
37.59 	0.067955 	4915 	0.066644
37.61 	0.065014 	4922 	0.064419
37.63 	0.066477 	4919 	0.065524
37.65 	0.067304 	4918 	0.065041
37.67 	0.071370 	4904 	0.069559
37.69 	0.066149 	4898 	0.065312
37.71 	0.064719 	4929 	0.062936
37.73 	0.063907 	4929 	0.062600
37.75 	0.065992 	4940 	0.065043
37.77 	0.068089 	4920 	0.066661
37.79 	0.065112 	4930 	0.064280
37.81 	0.066896 	4933 	0.065946
37.83 	0.067073 	4920 	0.066240
37.85 	0.063592 	4922 	0.062759
37.87 	0.061753 	4939 	0.060923
37.89 	0.061117 	4925 	0.060046
37.91 	0.066329 	4930 	0.065378
37.93 	0.063224 	4919 	0.061776
37.95 	0.069092 	4921 	0.067544
37.97 	0.069182 	4929 	0.067004
37.99 	0.064536 	4912 	0.063940
38.01 	0.070414 	4928 	0.068988
38.03 	0.061112 	4909 	0.059800
38.05 	0.065990 	4925 	0.065157
38.07 	0.069261 	4909 	0.067093
38.09 	0.067856 	4878 	0.067015
38.11 	0.060790 	4935 	0.059109
38.13 	0.067045 	4937 	0.065265
38.15 	0.062627 	4918 	0.061793
38.17 	0.067343 	4930 	0.066155
38.19 	0.062677 	4930 	0.061727
38.21 	0.070079 	4923 	0.068532
38.23 	0.068044 	4938 	0.066838
38.25 	0.062436 	4917 	0.061245
38.27 	0.075254 	4930 	0.073808
38.29 	0.067222 	4924 	0.066032
38.31 	0.062310 	4927 	0.061240
38.33 	0.064988 	4924 	0.063322
38.35 	0.068994 	4928 	0.068280
38.37 	0.071284 	4924 	0.069737
38.39 	0.073742 	4909 	0.072549
38.41 	0.074954 	4923 	0.074002
38.43 	0.069976 	4916 	0.068764
38.45 	0.073810 	4918 	0.072500
38.47 	0.081720 	4907 	0.079213
38.49 	0.075251 	4877 	0.074290
38.51 	0.071573 	4932 	0.070386
38.53 	0.075877 	4929 	0.074095
38.55 	0.075567 	4936 	0.074262
38.57 	0.069470 	4923 	0.067923
38.59 	0.071690 	4924 	0.070738
38.61 	0.073339 	4936 	0.072271
38.63 	0.071893 	4924 	0.070565
38.65 	0.074014 	4918 	0.071731
38.67 	0.073526 	4937 	0.072340
38.69 	0.074563 	4922 	0.072520
38.71 	0.067425 	4924 	0.065402
38.73 	0.067710 	4918 	0.065686
38.75 	0.066775 	4927 	0.065685
38.77 	0.069064 	4923 	0.067755
38.79 	0.070126 	4934 	0.069275
38.81 	0.066572 	4912 	0.065021
38.83 	0.068916 	4919 	0.067487
38.85 	0.068607 	4912 	0.067534
38.87 	0.065771 	4911 	0.064220
38.89 	0.069022 	4897 	0.067347
38.91 	0.061799 	4903 	0.060485
38.93 	0.056298 	4938 	0.055705
38.95 	0.062220 	4918 	0.061268
38.97 	0.058812 	4931 	0.057505
38.99 	0.060968 	4937 	0.059881
39.01 	0.064254 	4918 	0.062824
39.03 	0.062424 	4934 	0.061712
39.05 	0.059492 	4925 	0.058283
39.07 	0.057474 	4924 	0.056403
39.09 	0.061142 	4923 	0.060309
39.11 	0.056581 	4931 	0.056224
39.13 	0.064798 	4923 	0.063727
39.15 	0.063072 	4915 	0.062119
39.17 	0.058538 	4937 	0.057826
39.19 	0.059996 	4917 	0.058447
39.21 	0.059470 	4910 	0.058397
39.23 	0.057259 	4925 	0.056426
39.25 	0.062983 	4922 	0.062030
39.27 	0.061100 	4910 	0.060265
39.29 	0.060396 	4901 	0.059061
39.31 	0.059378 	4884 	0.058758
39.33 	0.058812 	4931 	0.058455
39.35 	0.056738 	4935 	0.055907
39.37 	0.055995 	4929 	0.054807
39.39 	0.059647 	4929 	0.058934
39.41 	0.059826 	4931 	0.058994
39.43 	0.057774 	4933 	0.056705
39.45 	0.059289 	4925 	0.058576
39.47 	0.059517 	4923 	0.058327
39.49 	0.056761 	4933 	0.055573
39.51 	0.054224 	4924 	0.053134
39.53 	0.061345 	4923 	0.060016
39.55 	0.059768 	4919 	0.058696
39.57 	0.058585 	4933 	0.057635
39.59 	0.054967 	4912 	0.054013
39.61 	0.065610 	4923 	0.064539
39.63 	0.059732 	4922 	0.058780
39.65 	0.057653 	4926 	0.056345
39.67 	0.063505 	4913 	0.062551
39.69 	0.057974 	4916 	0.056663
39.71 	0.061491 	4895 	0.060155
39.73 	0.062755 	4908 	0.061800
39.75 	0.059659 	4928 	0.057718
39.77 	0.065046 	4935 	0.063502
39.79 	0.062322 	4926 	0.061252
39.81 	0.053988 	4927 	0.053037
39.83 	0.062019 	4934 	0.061425
39.85 	0.062310 	4927 	0.060982
39.87 	0.064365 	4925 	0.062780
39.89 	0.061208 	4934 	0.060021
39.91 	0.057700 	4922 	0.056510
39.93 	0.054081 	4937 	0.053488
39.95 	0.062665 	4915 	0.061354
39.97 	0.063920 	4928 	0.062256
39.99 	0.056975 	4932 	0.056381
40.01 	0.055307 	4918 	0.054950
40.03 	0.050122 	4928 	0.049884
40.05 	0.063657 	4917 	0.062704
40.07 	0.054845 	4923 	0.054012
40.09 	0.057160 	4916 	0.056068
40.11 	0.060822 	4916 	0.059372
40.13 	0.049632 	4896 	0.049034
40.15 	0.061470 	4913 	0.060396
40.17 	0.057427 	4928 	0.056833
40.19 	0.059241 	4929 	0.058152
40.21 	0.055319 	4935 	0.054607
40.23 	0.052109 	4932 	0.051020
40.25 	0.057724 	4920 	0.056394
40.27 	0.052056 	4937 	0.050988
40.29 	0.054800 	4927 	0.053968
40.31 	0.053857 	4939 	0.052552
40.33 	0.054745 	4932 	0.053676
40.35 	0.064647 	4919 	0.063576
40.37 	0.055792 	4929 	0.054584
40.39 	0.065098 	4931 	0.064029
40.41 	0.054213 	4925 	0.053262
40.43 	0.063186 	4922 	0.061143
40.45 	0.060612 	4933 	0.058712
40.47 	0.060187 	4918 	0.059115
40.49 	0.053796 	4926 	0.052964
40.51 	0.052824 	4922 	0.052467
40.53 	0.050651 	4916 	0.050055
40.55 	0.052363 	4908 	0.051170
40.57 	0.061759 	4890 	0.060561
40.59 	0.055499 	4937 	0.054906
40.61 	0.056940 	4935 	0.055991
40.63 	0.058215 	4930 	0.056532
40.65 	0.056309 	4937 	0.055084
40.67 	0.053933 	4932 	0.053102
40.69 	0.056309 	4937 	0.055004
40.71 	0.054745 	4932 	0.053438
40.73 	0.055623 	4926 	0.055029
40.75 	0.055567 	4931 	0.054854
40.77 	0.053857 	4939 	0.052908
40.79 	0.058895 	4924 	0.057706
40.81 	0.055252 	4941 	0.054304
40.83 	0.057224 	4928 	0.056749
40.85 	0.063363 	4924 	0.062411
40.87 	0.054992 	4928 	0.054041
40.89 	0.053336 	4931 	0.052504
40.91 	0.051595 	4923 	0.050643
40.93 	0.056344 	4934 	0.055275
40.95 	0.056992 	4913 	0.056038
40.97 	0.055849 	4924 	0.054659
40.99 	0.056458 	4924 	0.055982
41.01 	0.054764 	4912 	0.053452
41.03 	0.062793 	4905 	0.061479
41.05 	0.054498 	4936 	0.054023
41.07 	0.057404 	4930 	0.056334
41.09 	0.054060 	4939 	0.053348
41.11 	0.056738 	4935 	0.056144
41.13 	0.056321 	4936 	0.054976
41.15 	0.050192 	4941 	0.049718
41.17 	0.057154 	4934 	0.056442
41.19 	0.051927 	4930 	0.050501
41.21 	0.059348 	4937 	0.058142
41.23 	0.060944 	4939 	0.060094
41.25 	0.059599 	4933 	0.058649
41.27 	0.055770 	4931 	0.054938
41.29 	0.052760 	4928 	0.052403
41.31 	0.052098 	4933 	0.051029
41.33 	0.054487 	4937 	0.053893
41.35 	0.065411 	4938 	0.064462
41.37 	0.054630 	4924 	0.053659
41.39 	0.055747 	4933 	0.054916
41.41 	0.052781 	4926 	0.052068
41.43 	0.049909 	4929 	0.049077
41.45 	0.054131 	4914 	0.053058
41.47 	0.055420 	4926 	0.054469
41.49 	0.056827 	4892 	0.056109
41.51 	0.054251 	4940 	0.053540
41.53 	0.056837 	4944 	0.055889
41.55 	0.064438 	4935 	0.063488
41.57 	0.049383 	4941 	0.048079
41.59 	0.054733 	4933 	0.053665
41.61 	0.053503 	4953 	0.052537
41.63 	0.055286 	4938 	0.054455
41.65 	0.057821 	4929 	0.057108
41.67 	0.054251 	4940 	0.053421
41.69 	0.052153 	4947 	0.051561
41.71 	0.053101 	4934 	0.052389
41.73 	0.052472 	4936 	0.051878
41.75 	0.059241 	4929 	0.058152
41.77 	0.053430 	4941 	0.052601
41.79 	0.056837 	4944 	0.056363
41.81 	0.057942 	4936 	0.056992
41.83 	0.055398 	4928 	0.054209
41.85 	0.052440 	4939 	0.052084
41.87 	0.045998 	4935 	0.045642
41.89 	0.057166 	4933 	0.056810
41.91 	0.053282 	4936 	0.052669
41.93 	0.055353 	4932 	0.053928
41.95 	0.053539 	4931 	0.053182
41.97 	0.055759 	4914 	0.054567
41.99 	0.052803 	4905 	0.052206
42.01 	0.049777 	4942 	0.049185
42.03 	0.057906 	4939 	0.056701
42.05 	0.052100 	4952 	0.051864
42.07 	0.057930 	4937 	0.056506
42.09 	0.054770 	4948 	0.053822
42.11 	0.053185 	4945 	0.052593
42.13 	0.059252 	4945 	0.057712
42.15 	0.052653 	4938 	0.052178
42.17 	0.049207 	4918 	0.048492
42.19 	0.059495 	4908 	0.058779
42.21 	0.053050 	4901 	0.052453
42.23 	0.054988 	4892 	0.053890
42.25 	0.051544 	4889 	0.050945
42.27 	0.049651 	4874 	0.049170
42.29 	0.057372 	4863 	0.056288
42.31 	0.057261 	4855 	0.056054
42.33 	0.052958 	4834 	0.052473
42.35 	0.049814 	4838 	0.048946
42.37 	0.045342 	4830 	0.044371
42.39 	0.047460 	4804 	0.047095
42.41 	0.052456 	4804 	0.051603
42.43 	0.055301 	4792 	0.054547
42.45 	0.047739 	4776 	0.047003
42.47 	0.053305 	4765 	0.052322
42.49 	0.057503 	4765 	0.056150
42.51 	0.046806 	4743 	0.045921
42.53 	0.047589 	4728 	0.046825
42.55 	0.051827 	4708 	0.051205
42.57 	0.052220 	4730 	0.051848
42.59 	0.053923 	4729 	0.053427
42.61 	0.041206 	4708 	0.041206
42.63 	0.050117 	4709 	0.048479
42.65 	0.047812 	4685 	0.047437
42.67 	0.053160 	4684 	0.052409
42.69 	0.052418 	4674 	0.051666
42.71 	0.049539 	4663 	0.048136
42.73 	0.053879 	4640 	0.052722
42.75 	0.051982 	4617 	0.050967
42.77 	0.049130 	4600 	0.049003
42.79 	0.050415 	4582 	0.049775
42.81 	0.049540 	4562 	0.048384
42.83 	0.052469 	4536 	0.051565
42.85 	0.051458 	4528 	0.050940
42.87 	0.055123 	4499 	0.054082
42.89 	0.048437 	4480 	0.048176
42.91 	0.053187 	4456 	0.051741
42.93 	0.041835 	4446 	0.041308
42.95 	0.053895 	4416 	0.053364
42.97 	0.052488 	4401 	0.052089
42.99 	0.051083 	4385 	0.050015
43.01 	0.054550 	4363 	0.053610
43.03 	0.058389 	4333 	0.057713
43.05 	0.054798 	4325 	0.053579
43.07 	0.055633 	4296 	0.054520
43.09 	0.048798 	4283 	0.047977
43.11 	0.047944 	4255 	0.047393
43.13 	0.055700 	4237 	0.055285
43.15 	0.048740 	4206 	0.048322
43.17 	0.051208 	4179 	0.050227
43.19 	0.046257 	4194 	0.045419
43.21 	0.048658 	4172 	0.047815
43.23 	0.051276 	4154 	0.050571
43.25 	0.053688 	4135 	0.052696
43.27 	0.047990 	4105 	0.047705
43.29 	0.058049 	4100 	0.056906
43.31 	0.050993 	4079 	0.050418
43.33 	0.044927 	4051 	0.044204
43.35 	0.055804 	4032 	0.055368
43.37 	0.050062 	4015 	0.049770
43.39 	0.053223 	4002 	0.052345
43.41 	0.051360 	3972 	0.050622
43.43 	0.058333 	3960 	0.057002
43.45 	0.055654 	3935 	0.054910
43.47 	0.048202 	3921 	0.048202
43.49 	0.054144 	3897 	0.053067
43.51 	0.051844 	3877 	0.051089
43.53 	0.050997 	3863 	0.050693
43.55 	0.047908 	2964 	0.047315
43.57 	0.050938 	2238 	0.050415
43.59 	0.049828 	1746 	0.048822
43.61 	0.056255 	1351 	0.055387
43.63 	0.045954 	1001 	0.045954
43.65 	0.046579 	687 	0.045727
43.67 	0.037849 	502 	0.036682
43.69 	0.049046 	367 	0.047450
43.71 	0.037657 	239 	0.037657
43.73 	0.066667 	120 	0.066667
43.75 	0.062500 	16 	0.062500