File: Example_Data/25SC_s1_0024.000.dat
#F C:\frames\spec\25SC_s1_0024.000
#C title =s:24 frm:0 25SC_s1
#C wavelength =0.15406

#S 1  fr_average C:\frames\spec\25SC_s1_0024.000 C:\win32app\speccom\mask.axs chi 0 180 0 360 0.02
#C 2 theta =0.000000 to 180 deg
#C   q   =0.000000 to 81.568 nm^-1
#C  chi  =0.000000 to 360 deg
#C collumns:
#C  1 position (2theta or chi in degrees)
#C  2 average intensity (sum of all counts in the region divided with number of pixels)
#C  3 Number of pixels in region)
#C  4 error (sum of sqrt(intensity) for all pixels divided by number)
#N 4
#L TTh  Int  N_pix  Err
32.99 	0.049180 	61 	0.049180
33.01 	0.060710 	873 	0.058697
33.03 	0.060388 	1391 	0.059546
33.05 	0.066591 	1757 	0.065924
33.07 	0.061951 	2050 	0.059618
33.09 	0.059225 	2347 	0.058476
33.11 	0.069794 	2579 	0.067977
33.13 	0.056928 	2793 	0.056509
33.15 	0.061020 	2999 	0.059458
33.17 	0.056857 	3201 	0.056308
33.19 	0.066427 	3342 	0.065025
33.21 	0.059662 	3436 	0.058299
33.23 	0.067272 	3523 	0.066773
33.25 	0.067276 	3612 	0.065978
33.27 	0.057300 	3630 	0.055848
33.29 	0.060855 	3648 	0.060052
33.31 	0.060383 	3660 	0.059742
33.33 	0.061584 	3686 	0.060472
33.35 	0.050623 	3694 	0.049988
33.37 	0.064082 	3714 	0.062794
33.39 	0.059265 	3729 	0.057800
33.41 	0.061497 	3740 	0.061184
33.43 	0.064079 	3761 	0.062988
33.45 	0.055924 	3773 	0.054967
33.47 	0.057135 	3798 	0.056364
33.49 	0.053295 	3809 	0.052372
33.51 	0.052687 	3815 	0.052073
33.53 	0.057277 	3841 	0.056514
33.55 	0.059068 	3843 	0.057697
33.57 	0.068094 	3877 	0.067187
33.59 	0.058505 	3880 	0.057146
33.61 	0.062932 	3909 	0.062033
33.63 	0.062006 	3919 	0.060511
33.65 	0.056729 	3931 	0.056132
33.67 	0.057663 	3954 	0.056774
33.69 	0.058184 	3953 	0.057146
33.71 	0.066415 	3975 	0.064352
33.73 	0.057692 	4004 	0.056961
33.75 	0.055264 	3999 	0.054385
33.77 	0.058882 	4025 	0.058154
33.79 	0.061866 	4041 	0.060851
33.81 	0.063893 	4038 	0.062587
33.83 	0.056543 	4050 	0.055675
33.85 	0.057575 	4099 	0.056289
33.87 	0.054731 	4111 	0.053591
33.89 	0.055812 	4121 	0.055243
33.91 	0.055194 	4149 	0.054347
33.93 	0.059263 	4151 	0.057852
33.95 	0.057881 	4181 	0.056900
33.97 	0.059427 	4190 	0.058588
33.99 	0.064762 	4200 	0.062949
34.01 	0.057916 	4213 	0.057221
34.03 	0.059849 	4244 	0.059021
34.05 	0.063970 	4252 	0.063143
34.07 	0.062793 	4268 	0.061558
34.09 	0.058563 	4286 	0.058016
34.11 	0.056253 	4302 	0.054891
34.13 	0.064067 	4308 	0.062957
34.15 	0.058647 	4331 	0.057294
34.17 	0.059770 	4350 	0.058827
34.19 	0.053187 	4362 	0.052247
34.21 	0.052162 	4371 	0.051358
34.23 	0.053494 	4393 	0.052827
34.25 	0.064487 	4404 	0.062359
34.27 	0.059249 	4422 	0.058189
34.29 	0.060203 	4435 	0.058882
34.31 	0.054284 	4458 	0.053496
34.33 	0.056587 	4471 	0.056194
34.35 	0.055308 	4484 	0.054524
34.37 	0.062792 	4491 	0.061488
34.39 	0.055309 	4502 	0.054788
34.41 	0.058551 	4526 	0.056717
34.43 	0.060806 	4539 	0.060161
34.45 	0.054686 	4535 	0.053782
34.47 	0.055749 	4592 	0.054984
34.49 	0.056341 	4597 	0.055428
34.51 	0.054494 	4606 	0.053477
34.53 	0.057721 	4643 	0.056964
34.55 	0.055568 	4643 	0.054558
34.57 	0.051717 	4660 	0.050188
34.59 	0.050481 	4675 	0.049584
34.61 	0.054929 	4697 	0.054305
34.63 	0.054989 	4710 	0.054492
34.65 	0.052743 	4721 	0.051874
34.67 	0.050411 	4741 	0.049794
34.69 	0.055743 	4754 	0.055003
34.71 	0.053924 	4766 	0.053063
34.73 	0.060999 	4787 	0.059652
34.75 	0.055116 	4808 	0.053776
34.77 	0.056870 	4818 	0.055533
34.79 	0.053068 	4824 	0.052218
34.81 	0.056966 	4845 	0.055858
34.83 	0.061909 	4862 	0.060202
34.85 	0.056069 	4869 	0.055467
34.87 	0.051767 	4868 	0.051045
34.89 	0.050389 	4882 	0.049789
34.91 	0.054691 	4882 	0.053611
34.93 	0.054705 	4899 	0.054227
34.95 	0.060941 	4890 	0.060082
34.97 	0.053652 	4902 	0.052935
34.99 	0.056157 	4897 	0.055200
35.01 	0.054438 	4923 	0.052891
35.03 	0.056646 	4943 	0.056409
35.05 	0.057206 	4947 	0.056733
35.07 	0.052834 	4940 	0.051866
35.09 	0.057743 	4953 	0.057270
35.11 	0.050940 	4947 	0.050348
35.13 	0.062525 	4958 	0.061698
35.15 	0.053879 	4937 	0.053523
35.17 	0.059442 	4946 	0.058258
35.19 	0.062525 	4942 	0.061340
35.21 	0.057432 	4945 	0.056721
35.23 	0.057432 	4945 	0.056228
35.25 	0.055230 	4943 	0.054519
35.27 	0.059418 	4948 	0.058234
35.29 	0.058847 	4945 	0.057781
35.31 	0.059599 	4933 	0.058649
35.33 	0.051993 	4943 	0.050689
35.35 	0.054229 	4942 	0.053755
35.37 	0.056287 	4939 	0.055456
35.39 	0.055207 	4945 	0.053904
35.41 	0.054608 	4926 	0.053657
35.43 	0.057977 	4933 	0.057146
35.45 	0.058538 	4937 	0.057588
35.47 	0.051308 	4931 	0.050239
35.49 	0.056415 	4910 	0.055580
35.51 	0.058465 	4926 	0.057276
35.53 	0.056577 	4949 	0.056104
35.55 	0.049949 	4945 	0.049101
35.57 	0.061626 	4933 	0.061032
35.59 	0.052781 	4945 	0.052070
35.61 	0.057062 	4942 	0.056825
35.63 	0.059883 	4943 	0.058698
35.65 	0.061881 	4945 	0.060696
35.67 	0.050992 	4942 	0.050280
35.69 	0.058027 	4946 	0.057060
35.71 	0.058132 	4937 	0.057045
35.73 	0.057334 	4936 	0.056266
35.75 	0.058406 	4931 	0.057456
35.77 	0.062210 	4951 	0.060889
35.79 	0.062652 	4932 	0.061227
35.81 	0.055950 	4933 	0.055237
35.83 	0.048726 	4946 	0.047759
35.85 	0.056940 	4935 	0.056347
35.87 	0.055454 	4923 	0.054978
35.89 	0.054925 	4934 	0.054094
35.91 	0.059671 	4927 	0.058839
35.93 	0.057439 	4927 	0.056606
35.95 	0.061420 	4917 	0.059513
35.97 	0.059650 	4912 	0.058696
35.99 	0.056692 	4939 	0.055624
36.01 	0.059838 	4930 	0.058630
36.03 	0.059478 	4943 	0.058056
36.05 	0.058241 	4945 	0.056819
36.07 	0.062968 	4939 	0.062138
36.09 	0.061741 	4940 	0.060555
36.11 	0.059444 	4929 	0.058850
36.13 	0.058074 	4942 	0.057125
36.15 	0.058514 	4939 	0.057565
36.17 	0.059695 	4925 	0.058863
36.19 	0.059109 	4940 	0.057805
36.21 	0.064110 	4929 	0.063278
36.23 	0.053901 	4935 	0.052832
36.25 	0.053633 	4941 	0.052566
36.27 	0.054213 	4925 	0.053618
36.29 	0.058203 	4931 	0.056778
36.31 	0.057833 	4928 	0.057120
36.33 	0.057774 	4933 	0.056468
36.35 	0.058633 	4929 	0.057563
36.37 	0.056470 	4923 	0.054804
36.39 	0.061979 	4921 	0.061146
36.41 	0.065359 	4896 	0.064283
36.43 	0.054789 	4928 	0.053818
36.45 	0.064097 	4930 	0.062553
36.47 	0.055916 	4936 	0.055560
36.49 	0.056253 	4942 	0.055423
36.51 	0.059193 	4933 	0.057768
36.53 	0.055432 	4943 	0.054365
36.55 	0.053582 	4927 	0.053107
36.57 	0.054317 	4934 	0.053486
36.59 	0.064993 	4939 	0.063807
36.61 	0.054147 	4931 	0.052840
36.63 	0.056175 	4931 	0.055581
36.65 	0.057380 	4932 	0.056193
36.67 	0.057201 	4930 	0.056369
36.69 	0.048894 	4929 	0.047706
36.71 	0.057509 	4921 	0.056080
36.73 	0.056447 	4925 	0.055138
36.75 	0.056432 	4944 	0.055958
36.77 	0.061598 	4919 	0.060526
36.79 	0.049787 	4921 	0.048934
36.81 	0.056957 	4916 	0.056599
36.83 	0.052289 	4915 	0.051574
36.85 	0.059412 	4898 	0.058814
36.87 	0.058657 	4944 	0.058065
36.89 	0.052889 	4916 	0.052054
36.91 	0.056466 	4941 	0.056111
36.93 	0.056795 	4930 	0.056320
36.95 	0.055342 	4933 	0.054510
36.97 	0.059587 	4934 	0.058874
36.99 	0.060588 	4935 	0.059757
37.01 	0.055342 	4933 	0.054748
37.03 	0.057880 	4924 	0.056809
37.05 	0.060483 	4927 	0.059651
37.07 	0.056940 	4935 	0.055872
37.09 	0.050325 	4928 	0.049730
37.11 	0.060790 	4935 	0.060059
37.13 	0.066409 	4924 	0.064744
37.15 	0.054390 	4909 	0.053555
37.17 	0.063437 	4934 	0.062013
37.19 	0.061726 	4925 	0.061131
37.21 	0.048810 	4917 	0.047976
37.23 	0.058967 	4918 	0.058133
37.25 	0.054979 	4911 	0.054501
37.27 	0.060482 	4894 	0.059405
37.29 	0.059838 	4930 	0.058650
37.31 	0.057345 	4935 	0.056752
37.33 	0.059062 	4927 	0.058706
37.35 	0.055691 	4938 	0.054979
37.37 	0.063122 	4927 	0.061913
37.39 	0.058406 	4931 	0.057931
37.41 	0.055770 	4931 	0.055413
37.43 	0.051095 	4932 	0.050244
37.45 	0.055240 	4924 	0.054288
37.47 	0.061270 	4929 	0.060795
37.49 	0.058704 	4923 	0.057376
37.51 	0.056761 	4933 	0.055197
37.53 	0.056922 	4919 	0.056327
37.55 	0.053753 	4930 	0.052327
37.57 	0.054416 	4925 	0.053346
37.59 	0.057172 	4915 	0.056099
37.61 	0.064405 	4922 	0.064048
37.63 	0.060175 	4919 	0.059341
37.65 	0.058560 	4918 	0.057965
37.67 	0.059135 	4904 	0.057224
37.69 	0.056350 	4898 	0.055373
37.71 	0.051938 	4929 	0.051224
37.73 	0.057212 	4929 	0.056262
37.75 	0.053036 	4940 	0.052088
37.77 	0.063415 	4920 	0.062700
37.79 	0.060041 	4930 	0.058615
37.81 	0.054936 	4933 	0.053986
37.83 	0.060366 	4920 	0.059394
37.85 	0.056684 	4922 	0.056208
37.87 	0.057299 	4939 	0.055500
37.89 	0.063147 	4925 	0.062196
37.91 	0.046653 	4930 	0.046178
37.93 	0.057735 	4919 	0.056902
37.95 	0.054867 	4921 	0.054629
37.97 	0.057821 	4929 	0.056751
37.99 	0.057003 	4912 	0.056645
38.01 	0.049716 	4928 	0.048646
38.03 	0.058260 	4909 	0.057167
38.05 	0.059695 	4925 	0.058011
38.07 	0.055612 	4909 	0.054777
38.09 	0.056991 	4878 	0.056270
38.11 	0.053495 	4935 	0.052665
38.13 	0.056107 	4937 	0.054683
38.15 	0.057544 	4918 	0.056710
38.17 	0.054970 	4930 	0.053524
38.19 	0.056998 	4930 	0.055929
38.21 	0.060329 	4923 	0.059615
38.23 	0.063589 	4938 	0.062758
38.25 	0.057555 	4917 	0.056464
38.27 	0.057809 	4930 	0.056621
38.29 	0.062754 	4924 	0.062040
38.31 	0.065557 	4927 	0.064606
38.33 	0.061535 	4924 	0.060465
38.35 	0.068791 	4928 	0.067245
38.37 	0.067425 	4924 	0.066711
38.39 	0.071501 	4909 	0.070069
38.41 	0.072923 	4923 	0.071971
38.43 	0.081367 	4916 	0.079660
38.45 	0.079504 	4918 	0.077717
38.47 	0.074180 	4907 	0.072389
38.49 	0.078327 	4877 	0.077486
38.51 	0.077859 	4932 	0.075840
38.53 	0.085007 	4929 	0.082155
38.55 	0.085292 	4936 	0.082760
38.57 	0.089376 	4923 	0.087354
38.59 	0.088749 	4924 	0.086489
38.61 	0.085494 	4936 	0.083239
38.63 	0.077376 	4924 	0.075334
38.65 	0.077877 	4918 	0.075971
38.67 	0.077983 	4937 	0.076321
38.69 	0.072125 	4922 	0.070201
38.71 	0.076158 	4924 	0.073709
38.73 	0.080317 	4918 	0.078273
38.75 	0.077938 	4927 	0.075778
38.77 	0.073329 	4923 	0.072020
38.79 	0.063640 	4934 	0.061939
38.81 	0.066979 	4912 	0.066025
38.83 	0.072169 	4919 	0.069887
38.85 	0.057003 	4912 	0.056526
38.87 	0.062105 	4911 	0.061151
38.89 	0.064938 	4897 	0.063502
38.91 	0.056700 	4903 	0.055505
38.93 	0.057513 	4938 	0.056090
38.95 	0.059577 	4918 	0.058743
38.97 	0.062056 	4931 	0.061106
38.99 	0.058132 	4937 	0.057183
39.01 	0.048800 	4918 	0.048324
39.03 	0.053709 	4934 	0.052878
39.05 	0.048934 	4925 	0.048339
39.07 	0.055037 	4924 	0.053609
39.09 	0.045094 	4923 	0.044500
39.11 	0.050091 	4931 	0.049378
39.13 	0.049157 	4923 	0.048542
39.15 	0.045575 	4915 	0.044740
39.17 	0.048005 	4937 	0.047649
39.19 	0.049217 	4917 	0.048383
39.21 	0.045418 	4910 	0.044821
39.23 	0.047107 	4925 	0.046274
39.25 	0.054449 	4922 	0.053735
39.27 	0.049695 	4910 	0.049098
39.29 	0.044481 	4901 	0.044003
39.31 	0.053030 	4884 	0.052551
39.33 	0.052525 	4931 	0.051693
39.35 	0.050253 	4935 	0.049778
39.37 	0.048489 	4929 	0.047538
39.39 	0.041996 	4929 	0.041164
39.41 	0.046035 	4931 	0.045441
39.43 	0.049260 	4933 	0.048666
39.45 	0.040000 	4925 	0.039524
39.47 	0.049766 	4923 	0.049052
39.49 	0.040949 	4933 	0.040592
39.51 	0.042039 	4924 	0.041563
39.53 	0.041641 	4923 	0.040808
39.55 	0.048587 	4919 	0.047754
39.57 	0.043989 	4933 	0.043514
39.59 	0.045195 	4912 	0.044003
39.61 	0.048141 	4923 	0.047427
39.63 	0.043681 	4922 	0.043443
39.65 	0.045879 	4926 	0.045403
39.67 	0.048850 	4913 	0.048015
39.69 	0.046989 	4916 	0.046274
39.71 	0.048008 	4895 	0.047170
39.73 	0.037490 	4908 	0.037370
39.75 	0.049310 	4928 	0.048597
39.77 	0.045593 	4935 	0.044524
39.79 	0.051360 	4926 	0.051003
39.81 	0.042825 	4927 	0.041993
39.83 	0.042967 	4934 	0.042730
39.85 	0.046073 	4927 	0.045597
39.87 	0.042437 	4925 	0.042199
39.89 	0.040332 	4934 	0.040214
39.91 	0.046526 	4922 	0.046050
39.93 	0.048815 	4937 	0.048103
39.95 	0.041099 	4915 	0.040741
39.97 	0.047687 	4928 	0.047211
39.99 	0.044201 	4932 	0.043726
40.01 	0.046970 	4918 	0.046375
40.03 	0.044643 	4928 	0.044286
40.05 	0.045963 	4917 	0.045010
40.07 	0.044282 	4923 	0.043687
40.09 	0.039260 	4916 	0.038902
40.11 	0.044142 	4916 	0.043645
40.13 	0.044118 	4896 	0.043519
40.15 	0.041930 	4913 	0.041572
40.17 	0.048093 	4928 	0.047736
40.19 	0.048489 	4929 	0.047419
40.21 	0.042148 	4935 	0.041673
40.23 	0.042174 	4932 	0.041936
40.25 	0.042480 	4920 	0.042003
40.27 	0.044764 	4937 	0.044033
40.29 	0.042622 	4927 	0.042147
40.31 	0.039279 	4939 	0.039042
40.33 	0.038321 	4932 	0.037846
40.35 	0.043708 	4919 	0.043232
40.37 	0.045851 	4929 	0.045376
40.39 	0.044818 	4931 	0.044225
40.41 	0.048122 	4925 	0.047408
40.43 	0.039415 	4922 	0.038939
40.45 	0.038719 	4933 	0.038244
40.47 	0.039447 	4918 	0.039090
40.49 	0.045270 	4926 	0.044556
40.51 	0.041040 	4922 	0.040326
40.53 	0.037836 	4916 	0.037121
40.55 	0.042584 	4908 	0.041629
40.57 	0.041718 	4890 	0.041239
40.59 	0.043751 	4937 	0.043514
40.61 	0.042958 	4935 	0.042721
40.63 	0.037120 	4930 	0.036526
40.65 	0.047397 	4937 	0.046685
40.67 	0.041971 	4932 	0.041852
40.69 	0.040308 	4937 	0.039833
40.71 	0.040349 	4932 	0.039992
40.73 	0.041007 	4926 	0.040531
40.75 	0.044818 	4931 	0.044106
40.77 	0.045758 	4939 	0.045165
40.79 	0.044273 	4924 	0.043202
40.81 	0.040073 	4941 	0.039717
40.83 	0.044846 	4928 	0.044251
40.85 	0.041430 	4924 	0.041192
40.87 	0.044237 	4928 	0.043524
40.89 	0.045224 	4931 	0.044630
40.91 	0.041438 	4923 	0.041081
40.93 	0.038914 	4934 	0.038557
40.95 	0.043558 	4913 	0.042485
40.97 	0.040211 	4924 	0.039616
40.99 	0.038790 	4924 	0.038056
41.01 	0.040920 	4912 	0.040562
41.03 	0.037920 	4905 	0.037443
41.05 	0.044165 	4936 	0.043809
41.07 	0.041176 	4930 	0.040345
41.09 	0.044746 	4939 	0.044271
41.11 	0.042756 	4935 	0.042756
41.13 	0.043558 	4936 	0.043320
41.15 	0.046549 	4941 	0.045957
41.17 	0.042156 	4934 	0.041682
41.19 	0.042799 	4930 	0.042324
41.21 	0.038890 	4937 	0.038534
41.23 	0.040899 	4939 	0.040069
41.25 	0.046827 	4933 	0.045996
41.27 	0.039343 	4931 	0.038749
41.29 	0.042208 	4928 	0.041713
41.31 	0.034056 	4933 	0.033700
41.33 	0.039093 	4937 	0.038262
41.35 	0.041717 	4938 	0.041480
41.37 	0.035134 	4924 	0.034777
41.39 	0.041760 	4933 	0.041047
41.41 	0.039586 	4926 	0.038853
41.43 	0.037330 	4929 	0.037092
41.45 	0.041311 	4914 	0.040953
41.47 	0.042022 	4926 	0.041427
41.49 	0.040679 	4892 	0.040439
41.51 	0.038057 	4940 	0.037582
41.53 	0.042880 	4944 	0.042406
41.55 	0.037082 	4935 	0.037082
41.57 	0.043716 	4941 	0.043005
41.59 	0.037705 	4933 	0.036874
41.61 	0.043408 	4953 	0.042580
41.63 	0.041312 	4938 	0.040956
41.65 	0.041996 	4929 	0.041640
41.67 	0.045547 	4940 	0.045072
41.69 	0.044269 	4947 	0.043677
41.71 	0.038711 	4934 	0.038355
41.73 	0.043152 	4936 	0.042440
41.75 	0.043214 	4929 	0.042382
41.77 	0.041692 	4941 	0.041455
41.79 	0.045510 	4944 	0.044206
41.81 	0.041126 	4936 	0.040533
41.83 	0.042614 	4928 	0.042376
41.85 	0.038874 	4939 	0.038400
41.87 	0.033637 	4935 	0.033281
41.89 	0.040138 	4933 	0.039782
41.91 	0.040519 	4936 	0.040281
41.93 	0.037510 	4932 	0.037154
41.95 	0.040763 	4931 	0.040169
41.97 	0.044160 	4914 	0.043564
41.99 	0.043833 	4905 	0.042877
42.01 	0.045730 	4942 	0.045019
42.03 	0.037052 	4939 	0.036340
42.05 	0.034733 	4952 	0.034497
42.07 	0.035649 	4937 	0.035056
42.09 	0.044462 	4948 	0.043752
42.11 	0.048534 	4945 	0.047942
42.13 	0.042265 	4945 	0.041673
42.15 	0.044552 	4938 	0.043959
42.17 	0.042294 	4918 	0.041698
42.19 	0.041972 	4908 	0.041376
42.21 	0.039176 	4901 	0.038937
42.23 	0.041905 	4892 	0.041306
42.25 	0.037431 	4889 	0.036952
42.27 	0.043291 	4874 	0.043171
42.29 	0.040304 	4863 	0.039823
42.31 	0.031514 	4855 	0.030790
42.33 	0.043442 	4834 	0.042594
42.35 	0.039686 	4838 	0.038959
42.37 	0.037888 	4830 	0.037403
42.39 	0.043714 	4804 	0.043104
42.41 	0.039550 	4804 	0.039306
42.43 	0.040275 	4792 	0.040153
42.45 	0.038107 	4776 	0.037494
42.47 	0.036936 	4765 	0.036690
42.49 	0.038615 	4765 	0.037754
42.51 	0.040481 	4743 	0.040357
42.53 	0.038283 	4728 	0.037643
42.55 	0.041844 	4708 	0.041470
42.57 	0.035095 	4730 	0.034724
42.59 	0.035525 	4729 	0.035525
42.61 	0.036321 	4708 	0.036072
42.63 	0.042684 	4709 	0.042187
42.65 	0.036713 	4685 	0.036213
42.67 	0.042699 	4684 	0.042073
42.69 	0.042362 	4674 	0.041359
42.71 	0.038816 	4663 	0.038314
42.73 	0.038578 	4640 	0.038325
42.75 	0.038986 	4617 	0.038733
42.77 	0.038478 	4600 	0.038096
42.79 	0.036010 	4582 	0.035755
42.81 	0.037264 	4562 	0.037136
42.83 	0.034612 	4536 	0.034225
42.85 	0.039753 	4528 	0.039365
42.87 	0.044010 	4499 	0.043229
42.89 	0.036607 	4480 	0.036476
42.91 	0.037253 	4456 	0.037122
42.93 	0.039136 	4446 	0.038478
42.95 	0.032382 	4416 	0.031984
42.97 	0.031129 	4401 	0.030863
42.99 	0.036488 	4385 	0.035954
43.01 	0.033922 	4363 	0.033519
43.03 	0.036234 	4333 	0.035963
43.05 	0.042312 	4325 	0.041635
43.07 	0.037477 	4296 	0.036659
43.09 	0.039225 	4283 	0.039088
43.11 	0.039248 	4255 	0.039248
43.13 	0.040359 	4237 	0.039806
43.15 	0.031384 	4206 	0.031384
43.17 	0.038765 	4179 	0.038625
43.19 	0.039580 	4194 	0.038882
43.21 	0.036673 	4172 	0.036111
43.23 	0.041165 	4154 	0.040460
43.25 	0.037727 	4135 	0.037160
43.27 	0.036297 	4105 	0.036154
43.29 	0.039756 	4100 	0.038899
43.31 	0.035793 	4079 	0.035195
43.33 	0.037522 	4051 	0.037377
43.35 	0.040923 	4032 	0.040632
43.37 	0.031631 	4015 	0.031631
43.39 	0.033733 	4002 	0.033587
43.41 	0.037764 	3972 	0.037322
43.43 	0.039646 	3960 	0.039351
43.45 	0.031258 	3935 	0.030960
43.47 	0.037235 	3921 	0.037086
43.49 	0.034642 	3897 	0.034041
43.51 	0.038174 	3877 	0.038023
43.53 	0.035982 	3863 	0.035831
43.55 	0.037112 	2964 	0.036519
43.57 	0.037534 	2238 	0.037010
43.59 	0.038946 	1746 	0.038275
43.61 	0.033309 	1351 	0.032441
43.63 	0.031968 	1001 	0.031968
43.65 	0.040757 	687 	0.040757
43.67 	0.025896 	502 	0.025896
43.69 	0.035422 	367 	0.035422
43.71 	0.029289 	239 	0.029289
43.73 	0.050000 	120 	0.050000
43.75 	0.062500 	16 	0.062500