File: Example_Data/25SC_s1_0035.001.dat
#F C:\frames\spec\25SC_s1_0035.001
#C title =s:35 frm:1 25SC_s1
#C wavelength =0.15406

#S 1  fr_average C:\frames\spec\25SC_s1_0035.001 C:\win32app\speccom\mask.axs chi 0 180 0 360 0.02
#C 2 theta =0.000000 to 180 deg
#C   q   =0.000000 to 81.568 nm^-1
#C  chi  =0.000000 to 360 deg
#C collumns:
#C  1 position (2theta or chi in degrees)
#C  2 average intensity (sum of all counts in the region divided with number of pixels)
#C  3 Number of pixels in region)
#C  4 error (sum of sqrt(intensity) for all pixels divided by number)
#N 4
#L TTh  Int  N_pix  Err
32.99 	0.032787 	61 	0.032787
33.01 	0.061856 	873 	0.061856
33.03 	0.063983 	1391 	0.063562
33.05 	0.063745 	1757 	0.061745
33.07 	0.060976 	2050 	0.058975
33.09 	0.059225 	2347 	0.058725
33.11 	0.061264 	2579 	0.060356
33.13 	0.060508 	2793 	0.059250
33.15 	0.053351 	2999 	0.053156
33.17 	0.059356 	3201 	0.057892
33.19 	0.055057 	3342 	0.053830
33.21 	0.061409 	3436 	0.059704
33.23 	0.059324 	3523 	0.057662
33.25 	0.059801 	3612 	0.058665
33.27 	0.057025 	3630 	0.056218
33.29 	0.061678 	3648 	0.061196
33.31 	0.057923 	3660 	0.056643
33.33 	0.056430 	3686 	0.055476
33.35 	0.061722 	3694 	0.060929
33.37 	0.065428 	3714 	0.063693
33.39 	0.057656 	3729 	0.056557
33.41 	0.059626 	3740 	0.057903
33.43 	0.060622 	3761 	0.058416
33.45 	0.052213 	3773 	0.051903
33.47 	0.057925 	3798 	0.056691
33.49 	0.060646 	3809 	0.059723
33.51 	0.052425 	3815 	0.052118
33.53 	0.061442 	3841 	0.059307
33.55 	0.060630 	3843 	0.060020
33.57 	0.056229 	3877 	0.055474
33.59 	0.062371 	3880 	0.060710
33.61 	0.058071 	3909 	0.056722
33.63 	0.055116 	3919 	0.054817
33.65 	0.057746 	3931 	0.055660
33.67 	0.052858 	3954 	0.051525
33.69 	0.058437 	3953 	0.057548
33.71 	0.059371 	3975 	0.058021
33.73 	0.054446 	4004 	0.053714
33.75 	0.059265 	3999 	0.058679
33.77 	0.061615 	4025 	0.061033
33.79 	0.052957 	4041 	0.052522
33.81 	0.058692 	4038 	0.057677
33.83 	0.061481 	4050 	0.060614
33.85 	0.058551 	4099 	0.057408
33.87 	0.055947 	4111 	0.054950
33.89 	0.051686 	4121 	0.050976
33.91 	0.056640 	4149 	0.055793
33.93 	0.060226 	4151 	0.059097
33.95 	0.060990 	4181 	0.060150
33.97 	0.058234 	4190 	0.056556
33.99 	0.058571 	4200 	0.057595
34.01 	0.052219 	4213 	0.051524
34.03 	0.053252 	4244 	0.052147
34.05 	0.062088 	4252 	0.060573
34.07 	0.054827 	4268 	0.054278
34.09 	0.049463 	4286 	0.048370
34.11 	0.055788 	4302 	0.054290
34.13 	0.054782 	4308 	0.053672
34.15 	0.059801 	4331 	0.058990
34.17 	0.060000 	4350 	0.059057
34.19 	0.052499 	4362 	0.051425
34.21 	0.063830 	4371 	0.063160
34.23 	0.062372 	4393 	0.061550
34.25 	0.061535 	4404 	0.061003
34.27 	0.058118 	4422 	0.057059
34.29 	0.060428 	4435 	0.058976
34.31 	0.053387 	4458 	0.053256
34.33 	0.054350 	4471 	0.053433
34.35 	0.059545 	4484 	0.058761
34.37 	0.056780 	4491 	0.055737
34.39 	0.056641 	4502 	0.055861
34.41 	0.057446 	4526 	0.056281
34.43 	0.062789 	4539 	0.062015
34.45 	0.061742 	4535 	0.059654
34.47 	0.061629 	4592 	0.060353
34.49 	0.058951 	4597 	0.057550
34.51 	0.049935 	4606 	0.048790
34.53 	0.056644 	4643 	0.055635
34.55 	0.053844 	4643 	0.053466
34.57 	0.047854 	4660 	0.047477
34.59 	0.056898 	4675 	0.056147
34.61 	0.056419 	4697 	0.055297
34.63 	0.053079 	4710 	0.052208
34.65 	0.057191 	4721 	0.056695
34.67 	0.058216 	4741 	0.057721
34.69 	0.060581 	4754 	0.059718
34.71 	0.050357 	4766 	0.049619
34.73 	0.054523 	4787 	0.053911
34.75 	0.050541 	4808 	0.049688
34.77 	0.055832 	4818 	0.054718
34.79 	0.055348 	4824 	0.054498
34.81 	0.059030 	4845 	0.057801
34.83 	0.056355 	4862 	0.055392
34.85 	0.057096 	4869 	0.056254
34.87 	0.058135 	4868 	0.057413
34.89 	0.057558 	4882 	0.056478
34.91 	0.058583 	4882 	0.057743
34.93 	0.055522 	4899 	0.054445
34.95 	0.055215 	4890 	0.054616
34.97 	0.059364 	4902 	0.059005
34.99 	0.050643 	4897 	0.049806
35.01 	0.053220 	4923 	0.052486
35.03 	0.057657 	4943 	0.056808
35.05 	0.052557 	4947 	0.051610
35.07 	0.046964 	4940 	0.046114
35.09 	0.057541 	4953 	0.056831
35.11 	0.054174 	4947 	0.053109
35.13 	0.055466 	4958 	0.054993
35.15 	0.059550 	4937 	0.058601
35.17 	0.053579 	4946 	0.052750
35.19 	0.053217 	4942 	0.052743
35.21 	0.061476 	4945 	0.060173
35.23 	0.054601 	4945 	0.053771
35.25 	0.061703 	4943 	0.060163
35.27 	0.049919 	4948 	0.049090
35.29 	0.057634 	4945 	0.057042
35.31 	0.055950 	4933 	0.054881
35.33 	0.050374 	4943 	0.049426
35.35 	0.054836 	4942 	0.053295
35.37 	0.057097 	4939 	0.056859
35.39 	0.056016 	4945 	0.055187
35.41 	0.056638 	4926 	0.055925
35.43 	0.056152 	4933 	0.055202
35.45 	0.057727 	4937 	0.057015
35.47 	0.053539 	4931 	0.052470
35.49 	0.057434 	4910 	0.056121
35.51 	0.054811 	4926 	0.053979
35.53 	0.055567 	4949 	0.054857
35.55 	0.055207 	4945 	0.054141
35.57 	0.057369 	4933 	0.056656
35.59 	0.058847 	4945 	0.057288
35.61 	0.052610 	4942 	0.051781
35.63 	0.055634 	4943 	0.054923
35.65 	0.062892 	4945 	0.061589
35.67 	0.061918 	4942 	0.061326
35.69 	0.053983 	4946 	0.053272
35.71 	0.061981 	4937 	0.060794
35.73 	0.060575 	4936 	0.059606
35.75 	0.057392 	4931 	0.055947
35.77 	0.049283 	4951 	0.048573
35.79 	0.058191 	4932 	0.056885
35.81 	0.053923 	4933 	0.052973
35.83 	0.056005 	4946 	0.055294
35.85 	0.048430 	4935 	0.047480
35.87 	0.052813 	4923 	0.052099
35.89 	0.050872 	4934 	0.050753
35.91 	0.056424 	4927 	0.054978
35.93 	0.057236 	4927 	0.055690
35.95 	0.057352 	4917 	0.056280
35.97 	0.053950 	4912 	0.053115
35.99 	0.047580 	4939 	0.046869
36.01 	0.056795 	4930 	0.055488
36.03 	0.054825 	4943 	0.053857
36.05 	0.062083 	4945 	0.060997
36.07 	0.056894 	4939 	0.055708
36.09 	0.047166 	4940 	0.046217
36.11 	0.050720 	4929 	0.049888
36.13 	0.055038 	4942 	0.054446
36.15 	0.058514 	4939 	0.057091
36.17 	0.058071 	4925 	0.057338
36.19 	0.054656 	4940 	0.053826
36.21 	0.060864 	4929 	0.059676
36.23 	0.063425 	4935 	0.062099
36.25 	0.056669 	4941 	0.056432
36.27 	0.056650 	4925 	0.055817
36.29 	0.056986 	4931 	0.055779
36.31 	0.048295 	4928 	0.047939
36.33 	0.057166 	4933 	0.055979
36.35 	0.055589 	4929 	0.055114
36.37 	0.052813 	4923 	0.051941
36.39 	0.059338 	4921 	0.058028
36.41 	0.050449 	4896 	0.049971
36.43 	0.056209 	4928 	0.056209
36.45 	0.053550 	4930 	0.052718
36.47 	0.060575 	4936 	0.059745
36.49 	0.058276 	4942 	0.057308
36.51 	0.052098 	4933 	0.051267
36.53 	0.053813 	4943 	0.053339
36.55 	0.057845 	4927 	0.057250
36.57 	0.052493 	4934 	0.052018
36.59 	0.051832 	4939 	0.050390
36.61 	0.057595 	4931 	0.056407
36.63 	0.056784 	4931 	0.056190
36.65 	0.050892 	4932 	0.050417
36.67 	0.059838 	4930 	0.058650
36.69 	0.059241 	4929 	0.058409
36.71 	0.053038 	4921 	0.052205
36.73 	0.051168 	4925 	0.050811
36.75 	0.055623 	4944 	0.054675
36.77 	0.058548 	4919 	0.057239
36.79 	0.057509 	4921 	0.056199
36.81 	0.052278 	4916 	0.051563
36.83 	0.059207 	4915 	0.058233
36.85 	0.049816 	4898 	0.049457
36.87 	0.059264 	4944 	0.057704
36.89 	0.055126 	4916 	0.054649
36.91 	0.054442 	4941 	0.053613
36.93 	0.059229 	4930 	0.058635
36.95 	0.064464 	4933 	0.062920
36.97 	0.054114 	4934 	0.053165
36.99 	0.054711 	4935 	0.054118
37.01 	0.061423 	4933 	0.060236
37.03 	0.056661 	4924 	0.055710
37.05 	0.056221 	4927 	0.055389
37.07 	0.053698 	4935 	0.053579
37.09 	0.057427 	4928 	0.056476
37.11 	0.052077 	4935 	0.051127
37.13 	0.056864 	4924 	0.056151
37.15 	0.055205 	4909 	0.054131
37.17 	0.048439 	4934 	0.047371
37.19 	0.053401 	4925 	0.052549
37.21 	0.053488 	4917 	0.053011
37.23 	0.053477 	4918 	0.052624
37.25 	0.051924 	4911 	0.051328
37.27 	0.052513 	4894 	0.051795
37.29 	0.054158 	4930 	0.053802
37.31 	0.057143 	4935 	0.055956
37.33 	0.054800 	4927 	0.054206
37.35 	0.055488 	4938 	0.054638
37.37 	0.052567 	4927 	0.051735
37.39 	0.054553 	4931 	0.054078
37.41 	0.051511 	4931 	0.050798
37.43 	0.052109 	4932 	0.051277
37.45 	0.054833 	4924 	0.053743
37.47 	0.059038 	4929 	0.058206
37.49 	0.050173 	4923 	0.049459
37.51 	0.053112 	4933 	0.052637
37.53 	0.048994 	4919 	0.048636
37.55 	0.053550 	4930 	0.052599
37.57 	0.054213 	4925 	0.052905
37.59 	0.054323 	4915 	0.053251
37.61 	0.054653 	4922 	0.054415
37.63 	0.054279 	4919 	0.053426
37.65 	0.052460 	4918 	0.051627
37.67 	0.051794 	4904 	0.051197
37.69 	0.052879 	4898 	0.052161
37.71 	0.058430 	4929 	0.057479
37.73 	0.057010 	4929 	0.055940
37.75 	0.052024 	4940 	0.050838
37.77 	0.053049 	4920 	0.052196
37.79 	0.048682 	4930 	0.047731
37.81 	0.061018 	4933 	0.060068
37.83 	0.047358 	4920 	0.047239
37.85 	0.048964 	4922 	0.048250
37.87 	0.052035 	4939 	0.051323
37.89 	0.054213 	4925 	0.053242
37.91 	0.052535 	4930 	0.051823
37.93 	0.057125 	4919 	0.056034
37.95 	0.058118 	4921 	0.057880
37.97 	0.053358 	4929 	0.052882
37.99 	0.054153 	4912 	0.053199
38.01 	0.054383 	4928 	0.053432
38.03 	0.046038 	4909 	0.045680
38.05 	0.055228 	4925 	0.054039
38.07 	0.060501 	4909 	0.059546
38.09 	0.052071 	4878 	0.051470
38.11 	0.052482 	4935 	0.051889
38.13 	0.058132 	4937 	0.056926
38.15 	0.057340 	4918 	0.055911
38.17 	0.055984 	4930 	0.054320
38.19 	0.056795 	4930 	0.055845
38.21 	0.056063 	4923 	0.055349
38.23 	0.057311 	4938 	0.055630
38.25 	0.058776 	4917 	0.057465
38.27 	0.055375 	4930 	0.053712
38.29 	0.056661 	4924 	0.055947
38.31 	0.067181 	4927 	0.065397
38.33 	0.061535 	4924 	0.060584
38.35 	0.064326 	4928 	0.063375
38.37 	0.072705 	4924 	0.070544
38.39 	0.071705 	4909 	0.070512
38.41 	0.070079 	4923 	0.067799
38.43 	0.074247 	4916 	0.072421
38.45 	0.072794 	4918 	0.071007
38.47 	0.072549 	4907 	0.071236
38.49 	0.076276 	4877 	0.074715
38.51 	0.073601 	4932 	0.071701
38.53 	0.074457 	4929 	0.072912
38.55 	0.070908 	4936 	0.069721
38.57 	0.066626 	4923 	0.065436
38.59 	0.075142 	4924 	0.072843
38.61 	0.071110 	4936 	0.070042
38.63 	0.068237 	4924 	0.066572
38.65 	0.072794 	4918 	0.071722
38.67 	0.067652 	4937 	0.066466
38.69 	0.062170 	4922 	0.061218
38.71 	0.063566 	4924 	0.062852
38.73 	0.057950 	4918 	0.057355
38.75 	0.062513 	4927 	0.061443
38.77 	0.060532 	4923 	0.058946
38.79 	0.056141 	4934 	0.055785
38.81 	0.053135 	4912 	0.052062
38.83 	0.052450 	4919 	0.051616
38.85 	0.051914 	4912 	0.050602
38.87 	0.050703 	4911 	0.050345
38.89 	0.050031 	4897 	0.049074
38.91 	0.059351 	4903 	0.058256
38.93 	0.050425 	4938 	0.049476
38.95 	0.048190 	4918 	0.047714
38.97 	0.052119 	4931 	0.051050
38.99 	0.056512 	4937 	0.055207
39.01 	0.045547 	4918 	0.044951
39.03 	0.053506 	4934 	0.052794
39.05 	0.046904 	4925 	0.046190
39.07 	0.047116 	4924 	0.047116
39.09 	0.047938 	4923 	0.047462
39.11 	0.046035 	4931 	0.045679
39.13 	0.047735 	4923 	0.047378
39.15 	0.052696 	4915 	0.052338
39.17 	0.050030 	4937 	0.049437
39.19 	0.045149 	4917 	0.044316
39.21 	0.042159 	4910 	0.042040
39.23 	0.042640 	4925 	0.042283
39.25 	0.043885 	4922 	0.043290
39.27 	0.049287 	4910 	0.048929
39.29 	0.047745 	4901 	0.046530
39.31 	0.047707 	4884 	0.047227
39.33 	0.041777 	4931 	0.041301
39.35 	0.045795 	4935 	0.045439
39.37 	0.049503 	4929 	0.048671
39.39 	0.046460 	4929 	0.045846
39.41 	0.050497 	4931 	0.049903
39.43 	0.046422 	4933 	0.045472
39.45 	0.052386 	4925 	0.051028
39.47 	0.048345 	4923 	0.047750
39.49 	0.044800 	4933 	0.044207
39.51 	0.046101 	4924 	0.045863
39.53 	0.045907 	4923 	0.045431
39.55 	0.044725 	4919 	0.044486
39.57 	0.045206 	4933 	0.044612
39.59 	0.046213 	4912 	0.045975
39.61 	0.043673 	4923 	0.043435
39.63 	0.046323 	4922 	0.045371
39.65 	0.042022 	4926 	0.041903
39.67 	0.040708 	4913 	0.039993
39.69 	0.041904 	4916 	0.041308
39.71 	0.043105 	4895 	0.042866
39.73 	0.042787 	4908 	0.041832
39.75 	0.043628 	4928 	0.042796
39.77 	0.043769 	4935 	0.043650
39.79 	0.044458 	4926 	0.044220
39.81 	0.045870 	4927 	0.045275
39.83 	0.049047 	4934 	0.048691
39.85 	0.041810 	4927 	0.041216
39.87 	0.050558 	4925 	0.049825
39.89 	0.049250 	4934 	0.048538
39.91 	0.045916 	4922 	0.045083
39.93 	0.044359 	4937 	0.043766
39.95 	0.041709 	4915 	0.041213
39.97 	0.046875 	4928 	0.046400
39.99 	0.044809 	4932 	0.044216
40.01 	0.042700 	4918 	0.041747
40.03 	0.040584 	4928 	0.039871
40.05 	0.045556 	4917 	0.045318
40.07 	0.044079 	4923 	0.043603
40.09 	0.040480 	4916 	0.039765
40.11 	0.040683 	4916 	0.039969
40.13 	0.043913 	4896 	0.043554
40.15 	0.042540 	4913 	0.042183
40.17 	0.042411 	4928 	0.041816
40.19 	0.044228 	4929 	0.044228
40.21 	0.041540 	4935 	0.040808
40.23 	0.045215 	4932 	0.044859
40.25 	0.046341 	4920 	0.046222
40.27 	0.042333 	4937 	0.041147
40.29 	0.044246 	4927 	0.043533
40.31 	0.044341 	4939 	0.043867
40.33 	0.036902 	4932 	0.036664
40.35 	0.040659 	4919 	0.040182
40.37 	0.042808 	4929 	0.042570
40.39 	0.042791 	4931 	0.041959
40.41 	0.045482 	4925 	0.045125
40.43 	0.043478 	4922 	0.042764
40.45 	0.037503 	4933 	0.037265
40.47 	0.045140 	4918 	0.044664
40.49 	0.039383 	4926 	0.038788
40.51 	0.041447 	4922 	0.041209
40.53 	0.041294 	4916 	0.041055
40.55 	0.040750 	4908 	0.040133
40.57 	0.046012 	4890 	0.045054
40.59 	0.042333 	4937 	0.041977
40.61 	0.041337 	4935 	0.040388
40.63 	0.043813 	4930 	0.043338
40.65 	0.042131 	4937 	0.040826
40.67 	0.041565 	4932 	0.041209
40.69 	0.044359 	4937 	0.043528
40.71 	0.041971 	4932 	0.041021
40.73 	0.043240 	4926 	0.041813
40.75 	0.039140 	4931 	0.038665
40.77 	0.036850 	4939 	0.036375
40.79 	0.040008 	4924 	0.039175
40.81 	0.038454 	4941 	0.037742
40.83 	0.043019 	4928 	0.042544
40.85 	0.040820 	4924 	0.040345
40.87 	0.035511 	4928 	0.035036
40.89 	0.041371 	4931 	0.040658
40.91 	0.041032 	4923 	0.040318
40.93 	0.046007 	4934 	0.045176
40.95 	0.039080 	4913 	0.037888
40.97 	0.043461 	4924 	0.042866
40.99 	0.047522 	4924 	0.047027
41.01 	0.045603 	4912 	0.044768
41.03 	0.040163 	4905 	0.039327
41.05 	0.040721 	4936 	0.040247
41.07 	0.045030 	4930 	0.044080
41.09 	0.041101 	4939 	0.040390
41.11 	0.040932 	4935 	0.040457
41.13 	0.045786 	4936 	0.045311
41.15 	0.041287 	4941 	0.040932
41.17 	0.041548 	4934 	0.040836
41.19 	0.036105 	4930 	0.035987
41.21 	0.041321 	4937 	0.040846
41.23 	0.039887 	4939 	0.039531
41.25 	0.039732 	4933 	0.039020
41.27 	0.040357 	4931 	0.039525
41.29 	0.036729 	4928 	0.036610
41.31 	0.041354 	4933 	0.041117
41.33 	0.040105 	4937 	0.039868
41.35 	0.040502 	4938 	0.039790
41.37 	0.047116 	4924 	0.046164
41.39 	0.041760 	4933 	0.041285
41.41 	0.044052 	4926 	0.043695
41.43 	0.039562 	4929 	0.039205
41.45 	0.038869 	4914 	0.038511
41.47 	0.040601 	4926 	0.040601
41.49 	0.038635 	4892 	0.038395
41.51 	0.040081 	4940 	0.039607
41.53 	0.041060 	4944 	0.040349
41.55 	0.044174 	4935 	0.043343
41.57 	0.039061 	4941 	0.038824
41.59 	0.042368 	4933 	0.042011
41.61 	0.041793 	4953 	0.041438
41.63 	0.042325 	4938 	0.041712
41.65 	0.039968 	4929 	0.039611
41.67 	0.036032 	4940 	0.036032
41.69 	0.036790 	4947 	0.036079
41.71 	0.041548 	4934 	0.041311
41.73 	0.044165 	4936 	0.043572
41.75 	0.039765 	4929 	0.039408
41.77 	0.040478 	4941 	0.039885
41.79 	0.036812 	4944 	0.036220
41.81 	0.039100 	4936 	0.038626
41.83 	0.038555 	4928 	0.038555
41.85 	0.031788 	4939 	0.031669
41.87 	0.043972 	4935 	0.043022
41.89 	0.037705 	4933 	0.037705
41.91 	0.037480 	4936 	0.036649
41.93 	0.038524 	4932 	0.038049
41.95 	0.037315 	4931 	0.036840
41.97 	0.041514 	4914 	0.041156
41.99 	0.043425 	4905 	0.043306
42.01 	0.038648 	4942 	0.037937
42.03 	0.039887 	4939 	0.039887
42.05 	0.039984 	4952 	0.039866
42.07 	0.041321 	4937 	0.040490
42.09 	0.036985 	4948 	0.036629
42.11 	0.039029 	4945 	0.038674
42.13 	0.037209 	4945 	0.036854
42.15 	0.036655 	4938 	0.036180
42.17 	0.038024 	4918 	0.037666
42.19 	0.040750 	4908 	0.039895
42.21 	0.039788 	4901 	0.039549
42.23 	0.039043 	4892 	0.038564
42.25 	0.038863 	4889 	0.038743
42.27 	0.038367 	4874 	0.038006
42.29 	0.038248 	4863 	0.038007
42.31 	0.040165 	4855 	0.039923
42.33 	0.032892 	4834 	0.032892
42.35 	0.040099 	4838 	0.039736
42.37 	0.049275 	4830 	0.048305
42.39 	0.037469 	4804 	0.037347
42.41 	0.034555 	4804 	0.034311
42.43 	0.036937 	4792 	0.036692
42.45 	0.034966 	4776 	0.034476
42.47 	0.034418 	4765 	0.034418
42.49 	0.043652 	4765 	0.043160
42.51 	0.034156 	4743 	0.033538
42.53 	0.042936 	4728 	0.042440
42.55 	0.037808 	4708 	0.037435
42.57 	0.038901 	4730 	0.038653
42.59 	0.038486 	4729 	0.037619
42.61 	0.035896 	4708 	0.035772
42.63 	0.039074 	4709 	0.038577
42.65 	0.039488 	4685 	0.039238
42.67 	0.035226 	4684 	0.034476
42.69 	0.042362 	4674 	0.041735
42.71 	0.032383 	4663 	0.031880
42.73 	0.041810 	4640 	0.041305
42.75 	0.041802 	4617 	0.041548
42.77 	0.039348 	4600 	0.038711
42.79 	0.039284 	4582 	0.039028
42.81 	0.036388 	4562 	0.036002
42.83 	0.038580 	4536 	0.037935
42.85 	0.036661 	4528 	0.036661
42.87 	0.034897 	4499 	0.034376
42.89 	0.036607 	4480 	0.035823
42.91 	0.040395 	4456 	0.039453
42.93 	0.040036 	4446 	0.039772
42.95 	0.032156 	4416 	0.032023
42.97 	0.043626 	4401 	0.042562
42.99 	0.040821 	4385 	0.040554
43.01 	0.040568 	4363 	0.040031
43.03 	0.042003 	4333 	0.041598
43.05 	0.042081 	4325 	0.041404
43.07 	0.037011 	4296 	0.036466
43.09 	0.039925 	4283 	0.038831
43.11 	0.034313 	4255 	0.034175
43.13 	0.040123 	4237 	0.039708
43.15 	0.042796 	4206 	0.041682
43.17 	0.036851 	4179 	0.036571
43.19 	0.040296 	4194 	0.040016
43.21 	0.038591 	4172 	0.038450
43.23 	0.036110 	4154 	0.035828
43.25 	0.040145 	4135 	0.039578
43.27 	0.036297 	4105 	0.035726
43.29 	0.041951 	4100 	0.041523
43.31 	0.038980 	4079 	0.038693
43.33 	0.038509 	4051 	0.038220
43.35 	0.037946 	4032 	0.037511
43.37 	0.035616 	4015 	0.035325
43.39 	0.035982 	4002 	0.035543
43.41 	0.040534 	3972 	0.040386
43.43 	0.037879 	3960 	0.037287
43.45 	0.037357 	3935 	0.037357
43.47 	0.032645 	3921 	0.032197
43.49 	0.041570 	3897 	0.041270
43.51 	0.036368 	3877 	0.036217
43.53 	0.034688 	3863 	0.034536
43.55 	0.048583 	2964 	0.047200
43.57 	0.035299 	2238 	0.034776
43.59 	0.027491 	1746 	0.027491
43.61 	0.038490 	1351 	0.038490
43.63 	0.039960 	1001 	0.039375
43.65 	0.043668 	687 	0.043668
43.67 	0.039841 	502 	0.039841
43.69 	0.032698 	367 	0.032698
43.71 	0.054393 	239 	0.054393
43.73 	0.000000 	120 	0.000000
43.75 	0.062500 	16 	0.062500