File: Example_Data/25SC_s1_0038.000.dat
#F C:\frames\spec\25SC_s1_0038.000
#C title =s:38 frm:0 25SC_s1
#C wavelength =0.15406

#S 1  fr_average C:\frames\spec\25SC_s1_0038.000 C:\win32app\speccom\mask.axs chi 0 180 0 360 0.02
#C 2 theta =0.000000 to 180 deg
#C   q   =0.000000 to 81.568 nm^-1
#C  chi  =0.000000 to 360 deg
#C collumns:
#C  1 position (2theta or chi in degrees)
#C  2 average intensity (sum of all counts in the region divided with number of pixels)
#C  3 Number of pixels in region)
#C  4 error (sum of sqrt(intensity) for all pixels divided by number)
#N 4
#L TTh  Int  N_pix  Err
32.99 	0.032787 	61 	0.032787
33.01 	0.052692 	873 	0.052021
33.03 	0.061826 	1391 	0.061826
33.05 	0.058054 	1757 	0.056720
33.07 	0.065854 	2050 	0.063853
33.09 	0.058798 	2347 	0.057551
33.11 	0.060489 	2579 	0.060034
33.13 	0.059434 	2793 	0.059015
33.15 	0.065022 	2999 	0.064240
33.17 	0.059981 	3201 	0.059249
33.19 	0.060443 	3342 	0.059362
33.21 	0.061700 	3436 	0.060677
33.23 	0.052512 	3523 	0.051847
33.25 	0.055371 	3612 	0.054398
33.27 	0.052342 	3630 	0.051535
33.29 	0.060033 	3648 	0.058748
33.31 	0.062295 	3660 	0.061655
33.33 	0.067553 	3686 	0.066123
33.35 	0.060097 	3694 	0.059146
33.37 	0.061120 	3714 	0.059858
33.39 	0.061411 	3729 	0.060782
33.41 	0.063102 	3740 	0.061849
33.43 	0.059825 	3761 	0.058890
33.45 	0.054864 	3773 	0.054087
33.47 	0.059505 	3798 	0.058271
33.49 	0.057233 	3809 	0.056310
33.51 	0.061599 	3815 	0.060038
33.53 	0.066129 	3841 	0.064604
33.55 	0.058028 	3843 	0.057265
33.57 	0.062677 	3877 	0.061469
33.59 	0.062371 	3880 	0.061163
33.61 	0.058071 	3909 	0.057322
33.63 	0.050778 	3919 	0.050031
33.65 	0.056220 	3931 	0.055028
33.67 	0.054881 	3954 	0.053251
33.69 	0.058437 	3953 	0.057103
33.71 	0.056855 	3975 	0.055505
33.73 	0.061688 	4004 	0.060811
33.75 	0.059515 	3999 	0.058758
33.77 	0.058634 	4025 	0.057906
33.79 	0.060876 	4041 	0.059281
33.81 	0.058445 	4038 	0.057719
33.83 	0.061975 	4050 	0.061252
33.85 	0.060015 	4099 	0.058871
33.87 	0.059839 	4111 	0.058842
33.89 	0.058724 	4121 	0.058155
33.91 	0.058327 	4149 	0.057480
33.93 	0.056613 	4151 	0.055743
33.95 	0.058120 	4181 	0.057116
33.97 	0.057995 	4190 	0.056877
33.99 	0.056429 	4200 	0.055871
34.01 	0.054830 	4213 	0.054274
34.03 	0.051131 	4244 	0.050441
34.05 	0.062324 	4252 	0.060946
34.07 	0.063964 	4268 	0.062981
34.09 	0.056463 	4286 	0.055780
34.11 	0.059507 	4302 	0.058826
34.13 	0.059424 	4308 	0.059016
34.15 	0.057492 	4331 	0.056140
34.17 	0.060690 	4350 	0.059612
34.19 	0.063503 	4362 	0.062272
34.21 	0.054679 	4371 	0.053874
34.23 	0.056226 	4393 	0.055292
34.25 	0.062897 	4404 	0.061700
34.27 	0.053822 	4422 	0.052630
34.29 	0.056370 	4435 	0.055841
34.31 	0.057425 	4458 	0.056768
34.33 	0.060166 	4471 	0.058593
34.35 	0.057092 	4484 	0.055633
34.37 	0.058562 	4491 	0.057649
34.39 	0.058641 	4502 	0.057730
34.41 	0.055457 	4526 	0.053645
34.43 	0.059925 	4539 	0.058893
34.45 	0.054024 	4535 	0.053378
34.47 	0.059451 	4592 	0.058686
34.49 	0.053948 	4597 	0.053566
34.51 	0.061442 	4606 	0.060297
34.53 	0.055783 	4643 	0.054774
34.55 	0.058583 	4643 	0.057069
34.57 	0.064378 	4660 	0.063246
34.59 	0.059893 	4675 	0.059141
34.61 	0.058761 	4697 	0.057119
34.63 	0.056476 	4710 	0.055854
34.65 	0.054014 	4721 	0.053642
34.67 	0.060536 	4741 	0.059053
34.69 	0.057215 	4754 	0.055983
34.71 	0.061267 	4766 	0.060653
34.73 	0.065385 	4787 	0.064406
34.75 	0.061356 	4808 	0.060991
34.77 	0.058323 	4818 	0.056864
34.79 	0.059080 	4824 	0.057865
34.81 	0.051187 	4845 	0.050683
34.83 	0.057178 	4862 	0.056455
34.85 	0.057507 	4869 	0.056544
34.87 	0.049507 	4868 	0.048544
34.89 	0.050594 	4882 	0.049754
34.91 	0.060016 	4882 	0.058457
34.93 	0.057767 	4899 	0.056312
34.95 	0.052556 	4890 	0.051957
34.97 	0.053040 	4902 	0.052442
34.99 	0.058403 	4897 	0.058044
35.01 	0.053829 	4923 	0.052877
35.03 	0.057050 	4943 	0.056339
35.05 	0.056196 	4947 	0.055248
35.07 	0.058907 	4940 	0.058195
35.09 	0.053301 	4953 	0.052591
35.11 	0.055185 	4947 	0.054119
35.13 	0.056071 	4958 	0.055244
35.15 	0.063601 	4937 	0.062889
35.17 	0.056005 	4946 	0.054110
35.19 	0.070619 	4942 	0.068960
35.21 	0.056623 	4945 	0.055675
35.23 	0.057230 	4945 	0.055926
35.25 	0.057455 	4943 	0.056033
35.27 	0.054163 	4948 	0.053571
35.29 	0.058645 	4945 	0.057579
35.31 	0.058382 	4933 	0.057076
35.33 	0.057455 	4943 	0.056033
35.35 	0.057669 	4942 	0.056839
35.37 	0.054667 	4939 	0.053481
35.39 	0.053792 	4945 	0.052962
35.41 	0.056232 	4926 	0.055400
35.43 	0.062437 	4933 	0.060873
35.45 	0.056715 	4937 	0.056121
35.47 	0.055770 	4931 	0.055413
35.49 	0.059063 	4910 	0.058347
35.51 	0.061104 	4926 	0.060510
35.53 	0.061427 	4949 	0.060243
35.55 	0.057027 	4945 	0.056553
35.57 	0.050476 	4933 	0.049645
35.59 	0.057230 	4945 	0.056282
35.61 	0.059895 	4942 	0.059302
35.63 	0.057455 	4943 	0.056388
35.65 	0.060061 	4945 	0.059212
35.67 	0.053622 	4942 	0.052674
35.69 	0.052366 	4946 	0.051773
35.71 	0.057525 	4937 	0.056576
35.73 	0.060373 	4936 	0.059423
35.75 	0.058203 	4931 	0.057015
35.77 	0.061200 	4951 	0.060372
35.79 	0.060624 	4932 	0.059674
35.81 	0.059193 	4933 	0.058599
35.83 	0.062273 	4946 	0.061207
35.85 	0.058156 	4935 	0.056969
35.87 	0.053626 	4923 	0.053150
35.89 	0.053709 	4934 	0.053115
35.91 	0.053988 	4927 	0.053513
35.93 	0.057439 	4927 	0.056725
35.95 	0.054098 	4917 	0.052788
35.97 	0.058632 	4912 	0.057678
35.99 	0.055679 	4939 	0.053881
36.01 	0.060041 	4930 	0.058852
36.03 	0.059883 	4943 	0.058816
36.05 	0.060061 	4945 	0.058758
36.07 	0.059526 	4939 	0.058577
36.09 	0.054858 	4940 	0.053672
36.11 	0.060459 	4929 	0.059389
36.13 	0.059692 	4942 	0.058981
36.15 	0.054869 	4939 	0.054039
36.17 	0.056650 	4925 	0.055936
36.19 	0.056883 	4940 	0.056053
36.21 	0.062284 	4929 	0.061334
36.23 	0.061601 	4935 	0.060889
36.25 	0.056669 	4941 	0.056194
36.27 	0.062538 	4925 	0.061943
36.29 	0.059014 	4931 	0.058302
36.31 	0.059862 	4928 	0.058673
36.33 	0.058180 	4933 	0.057230
36.35 	0.058227 	4929 	0.056920
36.37 	0.062157 	4923 	0.060591
36.39 	0.054054 	4921 	0.052983
36.41 	0.059232 	4896 	0.058155
36.43 	0.060674 	4928 	0.059842
36.45 	0.052738 	4930 	0.051550
36.47 	0.058549 	4936 	0.057837
36.49 	0.062930 	4942 	0.061863
36.51 	0.055747 	4933 	0.055035
36.53 	0.058871 	4943 	0.057449
36.55 	0.056830 	4927 	0.055997
36.57 	0.061005 	4934 	0.060055
36.59 	0.052440 	4939 	0.051847
36.61 	0.054553 	4931 	0.053721
36.63 	0.059014 	4931 	0.058420
36.65 	0.051906 	4932 	0.051075
36.67 	0.056187 	4930 	0.054761
36.69 	0.054575 	4929 	0.053862
36.71 	0.060150 	4921 	0.058345
36.73 	0.062335 	4925 	0.061621
36.75 	0.059668 	4944 	0.058246
36.77 	0.057939 	4919 	0.057224
36.79 	0.059541 	4921 	0.058588
36.81 	0.049634 	4916 	0.048442
36.83 	0.059410 	4915 	0.058099
36.85 	0.049408 	4898 	0.048571
36.87 	0.055218 	4944 	0.053777
36.89 	0.054719 	4916 	0.053766
36.91 	0.053026 	4941 	0.051603
36.93 	0.061258 	4930 	0.060188
36.95 	0.059801 	4933 	0.058713
36.97 	0.052898 	4934 	0.052542
36.99 	0.064032 	4935 	0.062351
37.01 	0.062234 	4933 	0.060928
37.03 	0.059098 	4924 	0.058603
37.05 	0.054597 	4927 	0.053765
37.07 	0.052685 	4935 	0.052210
37.09 	0.054383 	4928 	0.053670
37.11 	0.059372 	4935 	0.058660
37.13 	0.049147 	4924 	0.048314
37.15 	0.055001 	4909 	0.053569
37.17 	0.055533 	4934 	0.054702
37.19 	0.056447 	4925 	0.055376
37.21 	0.056335 	4917 	0.055620
37.23 	0.062424 	4918 	0.061471
37.25 	0.060069 	4911 	0.058876
37.27 	0.053739 	4894 	0.053121
37.29 	0.055375 	4930 	0.054544
37.31 	0.057953 	4935 	0.057360
37.33 	0.056018 	4927 	0.054928
37.35 	0.054070 	4938 	0.053121
37.37 	0.063325 	4927 	0.062492
37.39 	0.056175 	4931 	0.055443
37.41 	0.049483 	4931 	0.048414
37.43 	0.055353 	4932 	0.054165
37.45 	0.053412 	4924 	0.052460
37.47 	0.059647 	4929 	0.058934
37.49 	0.058907 	4923 	0.057955
37.51 	0.054531 	4933 	0.053462
37.53 	0.054686 	4919 	0.053733
37.55 	0.054361 	4930 	0.053410
37.57 	0.046904 	4925 	0.046666
37.59 	0.051882 	4915 	0.051405
37.61 	0.052621 	4922 	0.051550
37.63 	0.054076 	4919 	0.052746
37.65 	0.055307 	4918 	0.054215
37.67 	0.054241 	4904 	0.053764
37.69 	0.062270 	4898 	0.061413
37.71 	0.059850 	4929 	0.058661
37.73 	0.059850 	4929 	0.058998
37.75 	0.053036 	4940 	0.051594
37.77 	0.056098 	4920 	0.055145
37.79 	0.052738 	4930 	0.052144
37.81 	0.057571 	4933 	0.056740
37.83 	0.054675 	4920 	0.053941
37.85 	0.051605 	4922 	0.051010
37.87 	0.057502 	4939 	0.056434
37.89 	0.057665 	4925 	0.056595
37.91 	0.059026 	4930 	0.058195
37.93 	0.057939 	4919 	0.056867
37.95 	0.055477 	4921 	0.054762
37.97 	0.051938 	4929 	0.051224
37.99 	0.049471 	4912 	0.048517
38.01 	0.060674 	4928 	0.059366
38.03 	0.056020 	4909 	0.054826
38.05 	0.049137 	4925 	0.048899
38.07 	0.054797 	4909 	0.053485
38.09 	0.059656 	4878 	0.058455
38.11 	0.063019 	4935 	0.062070
38.13 	0.061576 	4937 	0.060745
38.15 	0.057340 	4918 	0.056387
38.17 	0.056592 	4930 	0.055642
38.19 	0.060041 	4930 	0.058714
38.21 	0.060735 	4923 	0.059902
38.23 	0.067436 	4938 	0.066468
38.25 	0.062843 	4917 	0.061414
38.27 	0.068154 	4930 	0.066966
38.29 	0.065597 	4924 	0.064645
38.31 	0.075299 	4927 	0.073635
38.33 	0.068643 	4924 	0.067811
38.35 	0.073864 	4928 	0.072418
38.37 	0.067628 	4924 	0.066438
38.39 	0.075983 	4909 	0.075028
38.41 	0.086939 	4923 	0.085273
38.43 	0.082181 	4916 	0.079559
38.45 	0.080114 	4918 	0.077017
38.47 	0.085796 	4907 	0.083647
38.49 	0.085093 	4877 	0.083152
38.51 	0.082928 	4932 	0.080434
38.53 	0.080949 	4929 	0.079623
38.55 	0.080227 	4936 	0.077616
38.57 	0.078814 	4923 	0.076910
38.59 	0.079813 	4924 	0.077553
38.61 	0.078606 	4936 	0.077657
38.63 	0.070471 	4924 	0.069282
38.65 	0.074014 	4918 	0.072346
38.67 	0.073932 	4937 	0.072745
38.69 	0.074563 	4922 	0.073254
38.71 	0.068846 	4924 	0.067657
38.73 	0.065474 	4918 	0.064044
38.75 	0.066369 	4927 	0.065636
38.77 	0.063579 	4923 	0.062389
38.79 	0.059992 	4934 	0.059517
38.81 	0.054764 	4912 	0.053929
38.83 	0.054686 	4919 	0.053852
38.85 	0.054967 	4912 	0.053775
38.87 	0.058644 	4911 	0.057928
38.89 	0.056157 	4897 	0.055439
38.91 	0.053233 	4903 	0.052396
38.93 	0.057918 	4938 	0.056732
38.95 	0.054494 	4918 	0.054017
38.97 	0.048672 	4931 	0.047959
38.99 	0.052461 	4937 	0.051630
39.01 	0.046157 	4918 	0.045442
39.03 	0.052088 	4934 	0.051138
39.05 	0.049340 	4925 	0.048389
39.07 	0.048335 	4924 	0.047621
39.09 	0.048954 	4923 	0.048121
39.11 	0.044007 	4931 	0.043532
39.13 	0.050376 	4923 	0.049781
39.15 	0.054730 	4915 	0.054135
39.17 	0.048207 	4937 	0.047496
39.19 	0.050234 	4917 	0.049043
39.21 	0.045214 	4910 	0.044737
39.23 	0.049137 	4925 	0.048186
39.25 	0.045307 	4922 	0.044474
39.27 	0.048065 	4910 	0.047707
39.29 	0.050602 	4901 	0.050243
39.31 	0.046478 	4884 	0.045519
39.33 	0.052728 	4931 	0.051401
39.35 	0.044174 	4935 	0.042987
39.37 	0.049097 	4929 	0.048622
39.39 	0.043822 	4929 	0.043585
39.41 	0.040560 	4931 	0.040184
39.43 	0.047638 	4933 	0.046570
39.45 	0.042437 	4925 	0.041941
39.47 	0.046110 	4923 	0.045515
39.49 	0.043584 	4933 	0.043109
39.51 	0.042445 	4924 	0.041969
39.53 	0.040626 	4923 	0.040269
39.55 	0.050417 	4919 	0.049821
39.57 	0.048247 	4933 	0.047653
39.59 	0.043770 	4912 	0.043413
39.61 	0.045704 	4923 	0.044990
39.63 	0.047338 	4922 	0.046981
39.65 	0.051157 	4926 	0.050800
39.67 	0.041522 	4913 	0.041165
39.69 	0.043531 	4916 	0.043412
39.71 	0.045761 	4895 	0.045282
39.73 	0.047881 	4908 	0.046907
39.75 	0.046469 	4928 	0.045994
39.77 	0.047214 	4935 	0.046126
39.79 	0.047706 	4926 	0.046993
39.81 	0.041810 	4927 	0.041335
39.83 	0.040130 	4934 	0.039655
39.85 	0.044449 	4927 	0.044211
39.87 	0.050152 	4925 	0.049558
39.89 	0.053709 	4934 	0.052997
39.91 	0.049777 	4922 	0.049419
39.93 	0.043144 	4937 	0.042432
39.95 	0.044964 	4915 	0.044607
39.97 	0.039164 	4928 	0.038451
39.99 	0.046634 	4932 	0.045684
40.01 	0.048800 	4918 	0.047728
40.03 	0.039570 	4928 	0.039094
40.05 	0.051454 	4917 	0.050858
40.07 	0.043469 	4923 	0.043350
40.09 	0.043938 	4916 	0.043581
40.11 	0.042514 	4916 	0.041184
40.13 	0.040033 	4896 	0.039793
40.15 	0.044576 	4913 	0.044337
40.17 	0.043425 	4928 	0.042712
40.19 	0.041996 	4929 	0.041521
40.21 	0.043364 	4935 	0.042770
40.23 	0.049067 	4932 	0.048711
40.25 	0.047358 	4920 	0.046524
40.27 	0.044561 	4937 	0.043850
40.29 	0.040999 	4927 	0.040166
40.31 	0.042924 	4939 	0.042568
40.33 	0.043796 	4932 	0.043439
40.35 	0.043911 	4919 	0.043435
40.37 	0.044837 	4929 	0.044718
40.39 	0.046238 	4931 	0.045882
40.41 	0.039188 	4925 	0.039069
40.43 	0.041040 	4922 	0.040445
40.45 	0.042570 	4933 	0.041739
40.47 	0.038430 	4918 	0.038073
40.49 	0.045270 	4926 	0.044794
40.51 	0.037790 	4922 	0.037551
40.53 	0.044345 	4916 	0.043749
40.55 	0.037897 	4908 	0.037301
40.57 	0.041718 	4890 	0.040999
40.59 	0.043144 	4937 	0.042788
40.61 	0.041743 	4935 	0.041268
40.63 	0.040568 	4930 	0.040211
40.65 	0.046182 	4937 	0.045589
40.67 	0.045012 	4932 	0.043824
40.69 	0.048613 	4937 	0.047663
40.71 	0.043593 	4932 	0.042761
40.73 	0.045270 	4926 	0.044556
40.75 	0.041371 	4931 	0.040045
40.77 	0.041304 	4939 	0.041067
40.79 	0.041633 	4924 	0.041157
40.81 	0.044930 	4941 	0.043982
40.83 	0.040990 	4928 	0.039920
40.85 	0.042039 	4924 	0.041444
40.87 	0.039773 	4928 	0.039178
40.89 	0.040763 	4931 	0.040525
40.91 	0.035547 	4923 	0.035190
40.93 	0.039116 	4934 	0.038760
40.95 	0.044983 	4913 	0.044267
40.97 	0.045085 	4924 	0.044609
40.99 	0.035337 	4924 	0.035099
41.01 	0.038477 	4912 	0.038358
41.03 	0.036493 	4905 	0.036016
41.05 	0.044165 	4936 	0.044047
41.07 	0.042596 	4930 	0.042002
41.09 	0.035837 	4939 	0.035481
41.11 	0.037690 	4935 	0.037334
41.13 	0.045786 	4936 	0.045074
41.15 	0.043311 	4941 	0.042244
41.17 	0.044791 	4934 	0.044079
41.19 	0.035497 	4930 	0.035140
41.21 	0.044764 	4937 	0.044408
41.23 	0.043329 	4939 	0.042973
41.25 	0.045003 	4933 	0.044053
41.27 	0.044818 	4931 	0.044343
41.29 	0.040584 	4928 	0.040228
41.31 	0.042976 	4933 	0.042382
41.33 	0.039700 	4937 	0.039226
41.35 	0.043337 	4938 	0.043337
41.37 	0.041227 	4924 	0.040632
41.39 	0.042976 	4933 	0.042501
41.41 	0.039180 	4926 	0.038704
41.43 	0.040373 	4929 	0.039898
41.45 	0.041107 	4914 	0.040749
41.47 	0.041210 	4926 	0.040853
41.49 	0.039043 	4892 	0.038564
41.51 	0.038259 	4940 	0.037548
41.53 	0.039037 	4944 	0.038445
41.55 	0.040122 	4935 	0.039884
41.57 	0.040275 	4941 	0.039682
41.59 	0.044192 	4933 	0.043480
41.61 	0.039370 	4953 	0.039134
41.63 	0.039692 	4938 	0.038980
41.65 	0.041793 	4929 	0.041556
41.67 	0.044130 	4940 	0.043537
41.69 	0.036790 	4947 	0.036435
41.71 	0.038306 	4934 	0.038068
41.73 	0.040721 	4936 	0.040128
41.75 	0.042199 	4929 	0.041724
41.77 	0.035823 	4941 	0.035704
41.79 	0.038228 	4944 	0.037399
41.81 	0.039911 	4936 	0.039555
41.83 	0.038149 	4928 	0.037793
41.85 	0.041506 	4939 	0.041269
41.87 	0.033232 	4935 	0.032876
41.89 	0.036894 	4933 	0.036301
41.91 	0.038290 	4936 	0.038053
41.93 	0.036699 	4932 	0.036462
41.95 	0.036909 	4931 	0.036672
41.97 	0.039886 	4914 	0.039528
41.99 	0.039755 	4905 	0.039517
42.01 	0.036220 	4942 	0.035746
42.03 	0.038267 	4939 	0.037792
42.05 	0.042609 	4952 	0.042136
42.07 	0.037675 	4937 	0.036844
42.09 	0.037793 	4948 	0.037319
42.11 	0.035794 	4945 	0.035557
42.13 	0.037412 	4945 	0.036819
42.15 	0.037262 	4938 	0.037143
42.17 	0.039854 	4918 	0.039615
42.19 	0.035860 	4908 	0.035740
42.21 	0.035503 	4901 	0.035144
42.23 	0.037204 	4892 	0.037084
42.25 	0.036204 	4889 	0.036084
42.27 	0.036520 	4874 	0.035919
42.29 	0.035163 	4863 	0.034682
42.31 	0.033368 	4855 	0.033126
42.33 	0.036823 	4834 	0.036095
42.35 	0.044440 	4838 	0.044319
42.37 	0.041615 	4830 	0.040867
42.39 	0.037052 	4804 	0.036809
42.41 	0.037885 	4804 	0.037641
42.43 	0.030050 	4792 	0.029561
42.45 	0.038735 	4776 	0.038122
42.47 	0.040714 	4765 	0.040222
42.49 	0.041973 	4765 	0.041235
42.51 	0.035842 	4743 	0.035101
42.53 	0.032995 	4728 	0.032623
42.55 	0.041419 	4708 	0.040921
42.57 	0.036998 	4730 	0.036750
42.59 	0.042504 	4729 	0.041616
42.61 	0.042906 	4708 	0.042532
42.63 	0.039924 	4709 	0.039799
42.65 	0.036713 	4685 	0.036213
42.67 	0.039923 	4684 	0.039423
42.69 	0.035944 	4674 	0.035442
42.71 	0.041604 	4663 	0.041081
42.73 	0.037716 	4640 	0.037211
42.75 	0.033138 	4617 	0.032885
42.77 	0.038043 	4600 	0.037789
42.79 	0.037320 	4582 	0.036809
42.81 	0.034196 	4562 	0.034067
42.83 	0.034612 	4536 	0.034483
42.85 	0.034452 	4528 	0.033805
42.87 	0.037564 	4499 	0.037173
42.89 	0.037054 	4480 	0.036138
42.91 	0.035233 	4456 	0.034970
42.93 	0.035538 	4446 	0.035142
42.95 	0.029891 	4416 	0.029759
42.97 	0.040445 	4401 	0.039780
42.99 	0.036488 	4385 	0.036087
43.01 	0.043548 	4363 	0.043414
43.03 	0.035541 	4333 	0.035271
43.05 	0.039769 	4325 	0.039362
43.07 	0.034683 	4296 	0.034547
43.09 	0.042727 	4283 	0.042180
43.11 	0.039013 	4255 	0.038600
43.13 	0.045551 	4237 	0.044998
43.15 	0.033524 	4206 	0.032944
43.17 	0.032304 	4179 	0.032024
43.19 	0.039580 	4194 	0.039301
43.21 	0.042905 	4172 	0.042765
43.23 	0.036832 	4154 	0.036550
43.25 	0.037969 	4135 	0.037685
43.27 	0.037515 	4105 	0.037373
43.29 	0.043415 	4100 	0.043129
43.31 	0.036283 	4079 	0.036283
43.33 	0.039496 	4051 	0.039207
43.35 	0.038194 	4032 	0.037759
43.37 	0.037111 	4015 	0.036795
43.39 	0.035482 	4002 	0.035043
43.41 	0.041541 	3972 	0.041098
43.43 	0.042677 	3960 	0.042381
43.45 	0.040661 	3935 	0.040214
43.47 	0.040041 	3921 	0.039742
43.49 	0.035155 	3897 	0.035005
43.51 	0.034047 	3877 	0.033896
43.53 	0.033653 	3863 	0.033349
43.55 	0.040148 	2964 	0.039358
43.57 	0.036193 	2238 	0.035670
43.59 	0.033792 	1746 	0.033456
43.61 	0.043671 	1351 	0.043238
43.63 	0.032967 	1001 	0.032967
43.65 	0.037846 	687 	0.037846
43.67 	0.035857 	502 	0.035857
43.69 	0.035422 	367 	0.035422
43.71 	0.054393 	239 	0.054393
43.73 	0.058333 	120 	0.058333
43.75 	0.000000 	16 	0.000000