File: Example_Data/25SC_s1_0004.002.dat
#F C:\frames\spec\25SC_s1_0004.002
#C title =s:4 frm:2 25SC_s1
#C wavelength =0.15406

#S 1  fr_average C:\frames\spec\25SC_s1_0004.002 C:\win32app\speccom\mask.axs chi 0 180 0 360 0.02
#C 2 theta =0.000000 to 180 deg
#C   q   =0.000000 to 81.568 nm^-1
#C  chi  =0.000000 to 360 deg
#C collumns:
#C  1 position (2theta or chi in degrees)
#C  2 average intensity (sum of all counts in the region divided with number of pixels)
#C  3 Number of pixels in region)
#C  4 error (sum of sqrt(intensity) for all pixels divided by number)
#N 4
#L TTh  Int  N_pix  Err
32.99 	0.032787 	61 	0.032787
33.01 	0.060710 	873 	0.059368
33.03 	0.051761 	1391 	0.050919
33.05 	0.056915 	1757 	0.055582
33.07 	0.060976 	2050 	0.059547
33.09 	0.059651 	2347 	0.059151
33.11 	0.056999 	2579 	0.055863
33.13 	0.060508 	2793 	0.058831
33.15 	0.054351 	2999 	0.053765
33.17 	0.057482 	3201 	0.056567
33.19 	0.057451 	3342 	0.056224
33.21 	0.065192 	3436 	0.064340
33.23 	0.057621 	3523 	0.056624
33.25 	0.056755 	3612 	0.056269
33.27 	0.054270 	3630 	0.053302
33.29 	0.063596 	3648 	0.062312
33.31 	0.059016 	3660 	0.057736
33.33 	0.063755 	3686 	0.062139
33.35 	0.054683 	3694 	0.053890
33.37 	0.058697 	3714 	0.058224
33.39 	0.052025 	3729 	0.051082
33.41 	0.056684 	3740 	0.055431
33.43 	0.061686 	3761 	0.060284
33.45 	0.066260 	3773 	0.064552
33.47 	0.061875 	3798 	0.060795
33.49 	0.053557 	3809 	0.053096
33.51 	0.060550 	3815 	0.059783
33.53 	0.059360 	3841 	0.057834
33.55 	0.059329 	3843 	0.058414
33.57 	0.062935 	3877 	0.062180
33.59 	0.061856 	3880 	0.060497
33.61 	0.063955 	3909 	0.063056
33.63 	0.054861 	3919 	0.054089
33.65 	0.063343 	3931 	0.061852
33.67 	0.057410 	3954 	0.056373
33.69 	0.053630 	3953 	0.052889
33.71 	0.056604 	3975 	0.055277
33.73 	0.064935 	4004 	0.063887
33.75 	0.062016 	3999 	0.060844
33.77 	0.065590 	4025 	0.064135
33.79 	0.066568 	4041 	0.065553
33.81 	0.058940 	4038 	0.058070
33.83 	0.062222 	4050 	0.060776
33.85 	0.062210 	4099 	0.061353
33.87 	0.061299 	4111 	0.060871
33.89 	0.052414 	4121 	0.051846
33.91 	0.061702 	4149 	0.060854
33.93 	0.060708 	4151 	0.060285
33.95 	0.062186 	4181 	0.061486
33.97 	0.053222 	4190 	0.052803
33.99 	0.056190 	4200 	0.054773
34.01 	0.057916 	4213 	0.056920
34.03 	0.059849 	4244 	0.059159
34.05 	0.059501 	4252 	0.058124
34.07 	0.056701 	4268 	0.055740
34.09 	0.063229 	4286 	0.062546
34.11 	0.060669 	4302 	0.059852
34.13 	0.060353 	4308 	0.059107
34.15 	0.060032 	4331 	0.059063
34.17 	0.057241 	4350 	0.056703
34.19 	0.058230 	4362 	0.056753
34.21 	0.065889 	4371 	0.064817
34.23 	0.061234 	4393 	0.060700
34.25 	0.061989 	4404 	0.060925
34.27 	0.058118 	4422 	0.057456
34.29 	0.055468 	4435 	0.054675
34.31 	0.063930 	4458 	0.063142
34.33 	0.049430 	4471 	0.049168
34.35 	0.058653 	4484 	0.057216
34.37 	0.058339 	4491 	0.057035
34.39 	0.060418 	4502 	0.059377
34.41 	0.060539 	4526 	0.060021
34.43 	0.053536 	4539 	0.052891
34.45 	0.055127 	4535 	0.053577
34.47 	0.060105 	4592 	0.059849
34.49 	0.056559 	4597 	0.055794
34.51 	0.060790 	4606 	0.059518
34.53 	0.057937 	4643 	0.057054
34.55 	0.061383 	4643 	0.060121
34.57 	0.061373 	4660 	0.059865
34.59 	0.060749 	4675 	0.059621
34.61 	0.056206 	4697 	0.055208
34.63 	0.056688 	4710 	0.056066
34.65 	0.063122 	4721 	0.062626
34.67 	0.058637 	4741 	0.057525
34.69 	0.063946 	4754 	0.062468
34.71 	0.060848 	4766 	0.060110
34.73 	0.063923 	4787 	0.062455
34.75 	0.056988 	4808 	0.056014
34.77 	0.057493 	4818 	0.056014
34.79 	0.055348 	4824 	0.054498
34.81 	0.054696 	4845 	0.053970
34.83 	0.056355 	4862 	0.055271
34.85 	0.057507 	4869 	0.056544
34.87 	0.059367 	4868 	0.058645
34.89 	0.061245 	4882 	0.059686
34.91 	0.061245 	4882 	0.060046
34.93 	0.056542 	4899 	0.055944
34.95 	0.061554 	4890 	0.060356
34.97 	0.061404 	4902 	0.060428
34.99 	0.055340 	4897 	0.054503
35.01 	0.059720 	4923 	0.058887
35.03 	0.053813 	4943 	0.052747
35.05 	0.064888 	4947 	0.063348
35.07 	0.061741 	4940 	0.060279
35.09 	0.057137 	4953 	0.056073
35.11 	0.054174 	4947 	0.053701
35.13 	0.057886 	4958 	0.056587
35.15 	0.055297 	4937 	0.054565
35.17 	0.057825 	4946 	0.057351
35.19 	0.057062 	4942 	0.056114
35.21 	0.063701 	4945 	0.061805
35.23 	0.057836 	4945 	0.056533
35.25 	0.060490 	4943 	0.059166
35.27 	0.064470 	4948 	0.063523
35.29 	0.056825 	4945 	0.056213
35.31 	0.053112 	4933 	0.052399
35.33 	0.055230 	4943 	0.054519
35.35 	0.054634 	4942 	0.054041
35.37 	0.065600 	4939 	0.064651
35.39 	0.050556 	4945 	0.050201
35.41 	0.054608 	4926 	0.053657
35.43 	0.056152 	4933 	0.055796
35.45 	0.057322 	4937 	0.056610
35.47 	0.062868 	4931 	0.062274
35.49 	0.063951 	4910 	0.063355
35.51 	0.058465 	4926 	0.057633
35.53 	0.058598 	4949 	0.057395
35.55 	0.055005 	4945 	0.053939
35.57 	0.058382 	4933 	0.057432
35.59 	0.057230 	4945 	0.055315
35.61 	0.070619 	4942 	0.069552
35.63 	0.056848 	4943 	0.056019
35.65 	0.059454 	4945 	0.057914
35.67 	0.059692 	4942 	0.058981
35.69 	0.055196 	4946 	0.053893
35.71 	0.056107 	4937 	0.055395
35.73 	0.058549 	4936 	0.057481
35.75 	0.055567 	4931 	0.054498
35.77 	0.057564 	4951 	0.056854
35.79 	0.058394 	4932 	0.057206
35.81 	0.059599 	4933 	0.058767
35.83 	0.058633 	4946 	0.057666
35.85 	0.066464 	4935 	0.065158
35.87 	0.061142 	4923 	0.059833
35.89 	0.056344 	4934 	0.055156
35.91 	0.058047 	4927 	0.056977
35.93 	0.057033 	4927 	0.056082
35.95 	0.054708 	4917 	0.053855
35.97 	0.059039 	4912 	0.058085
35.99 	0.056894 	4939 	0.055708
36.01 	0.055781 	4930 	0.054474
36.03 	0.064536 	4943 	0.062719
36.05 	0.059656 	4945 	0.058472
36.07 	0.056692 	4939 	0.055506
36.09 	0.062551 	4940 	0.061365
36.11 	0.056198 	4929 	0.055128
36.13 	0.059692 	4942 	0.058507
36.15 	0.058311 	4939 	0.057363
36.17 	0.059898 	4925 	0.058947
36.19 	0.064575 	4940 	0.062895
36.21 	0.061473 	4929 	0.060522
36.23 	0.058967 	4935 	0.057542
36.25 	0.059097 	4941 	0.058267
36.27 	0.055228 	4925 	0.053920
36.29 	0.058609 	4931 	0.057421
36.31 	0.059253 	4928 	0.057827
36.33 	0.062031 	4933 	0.061200
36.35 	0.062893 	4929 	0.061823
36.37 	0.062563 	4923 	0.061255
36.39 	0.057712 	4921 	0.056879
36.41 	0.060662 	4896 	0.059944
36.43 	0.058036 	4928 	0.057204
36.45 	0.058824 	4930 	0.057754
36.47 	0.063209 	4936 	0.062378
36.49 	0.059490 	4942 	0.058186
36.51 	0.061423 	4933 	0.060829
36.53 	0.060085 	4943 	0.059018
36.55 	0.057642 	4927 	0.056572
36.57 	0.058573 	4934 	0.058217
36.59 	0.059526 	4939 	0.058340
36.61 	0.059217 	4931 	0.058742
36.63 	0.058406 	4931 	0.057574
36.65 	0.059813 	4932 	0.058863
36.67 	0.061663 	4930 	0.061307
36.69 	0.057212 	4929 	0.056499
36.71 	0.059541 	4921 	0.058231
36.73 	0.059898 	4925 	0.059066
36.75 	0.056230 	4944 	0.055163
36.77 	0.068510 	4919 	0.067676
36.79 	0.057509 	4921 	0.056398
36.81 	0.058584 	4916 	0.057988
36.83 	0.060427 	4915 	0.059235
36.85 	0.064924 	4898 	0.063609
36.87 	0.057848 	4944 	0.056881
36.89 	0.061229 	4916 	0.060156
36.91 	0.054645 	4941 	0.054289
36.93 	0.063692 	4930 	0.062266
36.95 	0.057977 	4933 	0.057027
36.97 	0.058370 	4934 	0.057658
36.99 	0.065451 	4935 	0.064026
37.01 	0.058788 	4933 	0.057600
37.03 	0.059301 	4924 	0.058350
37.05 	0.058453 	4927 	0.057859
37.07 	0.056940 	4935 	0.055872
37.09 	0.062094 	4928 	0.061262
37.11 	0.052280 	4935 	0.051805
37.13 	0.062145 	4924 	0.061074
37.15 	0.057649 	4909 	0.057053
37.17 	0.055128 	4934 	0.053940
37.19 	0.060914 	4925 	0.059367
37.21 	0.057149 	4917 	0.056315
37.23 	0.056120 	4918 	0.055287
37.25 	0.057015 	4911 	0.056180
37.27 	0.056191 	4894 	0.055473
37.29 	0.060243 	4930 	0.059392
37.31 	0.059777 	4935 	0.058946
37.33 	0.059265 	4927 	0.057957
37.35 	0.058323 	4938 	0.057374
37.37 	0.062716 	4927 	0.061626
37.39 	0.058406 	4931 	0.056980
37.41 	0.056581 	4931 	0.055749
37.43 	0.054136 	4932 	0.054017
37.45 	0.058083 	4924 	0.056259
37.47 	0.056401 	4929 	0.055094
37.49 	0.061142 	4923 	0.059833
37.51 	0.051287 	4933 	0.050694
37.53 	0.057939 	4919 	0.056867
37.55 	0.057201 	4930 	0.056250
37.57 	0.054416 	4925 	0.053584
37.59 	0.056562 	4915 	0.055708
37.61 	0.053637 	4922 	0.053161
37.63 	0.054279 	4919 	0.053684
37.65 	0.054494 	4918 	0.053422
37.67 	0.049144 	4904 	0.048307
37.69 	0.051041 	4898 	0.050443
37.71 	0.055589 	4929 	0.054520
37.73 	0.057010 	4929 	0.056059
37.75 	0.050202 	4940 	0.049728
37.77 	0.052846 	4920 	0.051655
37.79 	0.050710 	4930 	0.050116
37.81 	0.054125 	4933 	0.053175
37.83 	0.054472 	4920 	0.053638
37.85 	0.056887 	4922 	0.056054
37.87 	0.054262 	4939 	0.053294
37.89 	0.056650 	4925 	0.055817
37.91 	0.055578 	4930 	0.054390
37.93 	0.056312 	4919 	0.054645
37.95 	0.055477 	4921 	0.054881
37.97 	0.055184 	4929 	0.054114
37.99 	0.054560 	4912 	0.053706
38.01 	0.061282 	4928 	0.059599
38.03 	0.057446 	4909 	0.056849
38.05 	0.054416 	4925 	0.053940
38.07 	0.054186 	4909 	0.053470
38.09 	0.054121 	4878 	0.053160
38.11 	0.058561 	4935 	0.057730
38.13 	0.051043 	4937 	0.050687
38.15 	0.058560 	4918 	0.058084
38.17 	0.052130 	4930 	0.051298
38.19 	0.052535 	4930 	0.051704
38.21 	0.055251 	4923 	0.053922
38.23 	0.055691 	4938 	0.054979
38.25 	0.064674 	4917 	0.064197
38.27 	0.058824 	4930 	0.058111
38.29 	0.058286 	4924 	0.057334
38.31 	0.060280 	4927 	0.059567
38.33 	0.060520 	4924 	0.059687
38.35 	0.057427 	4928 	0.056357
38.37 	0.064379 	4924 	0.063427
38.39 	0.067223 	4909 	0.066507
38.41 	0.065204 	4923 	0.064371
38.43 	0.059601 	4916 	0.058152
38.45 	0.067304 	4918 	0.066470
38.47 	0.068474 	4907 	0.066802
38.49 	0.069305 	4877 	0.067604
38.51 	0.059813 	4932 	0.058745
38.53 	0.068777 	4929 	0.067113
38.55 	0.068679 	4936 	0.067967
38.57 	0.070282 	4923 	0.068735
38.59 	0.066003 	4924 	0.065052
38.61 	0.065235 	4936 	0.063643
38.63 	0.065800 	4924 	0.064234
38.65 	0.067507 	4918 	0.065482
38.67 	0.057525 	4937 	0.056220
38.69 	0.060341 	4922 	0.059389
38.71 	0.058286 	4924 	0.057096
38.73 	0.056934 	4918 	0.055981
38.75 	0.052770 	4927 	0.051700
38.77 	0.056876 	4923 	0.055448
38.79 	0.052290 	4934 	0.051459
38.81 	0.056800 	4912 	0.056084
38.83 	0.052653 	4919 	0.051938
38.85 	0.051303 	4912 	0.050587
38.87 	0.047852 	4911 	0.047732
38.89 	0.052073 	4897 	0.050857
38.91 	0.046910 	4903 	0.046313
38.93 	0.047793 	4938 	0.047081
38.95 	0.050630 	4918 	0.049797
38.97 	0.050091 	4931 	0.049497
38.99 	0.049828 	4937 	0.048997
39.01 	0.049614 	4918 	0.049495
39.03 	0.046615 	4934 	0.046378
39.05 	0.056853 	4925 	0.055901
39.07 	0.050569 	4924 	0.049855
39.09 	0.044079 	4923 	0.042889
39.11 	0.049280 	4931 	0.048567
39.13 	0.047329 	4923 	0.046496
39.15 	0.049237 	4915 	0.048999
39.17 	0.051246 	4937 	0.050178
39.19 	0.049624 	4917 	0.049385
39.21 	0.048065 	4910 	0.047349
39.23 	0.050761 	4925 	0.050048
39.25 	0.052621 	4922 	0.050955
39.27 	0.045418 	4910 	0.044821
39.29 	0.051214 	4901 	0.050258
39.31 	0.043817 	4884 	0.043217
39.33 	0.051308 	4931 	0.050595
39.35 	0.047214 	4935 	0.046502
39.37 	0.046663 	4929 	0.046425
39.39 	0.048691 	4929 	0.047365
39.41 	0.047658 	4931 	0.047301
39.43 	0.050071 	4933 	0.049358
39.45 	0.041827 	4925 	0.041471
39.47 	0.048141 	4923 	0.048022
39.49 	0.043179 	4933 	0.042110
39.51 	0.045288 	4924 	0.044694
39.53 	0.048751 	4923 	0.048275
39.55 	0.044521 	4919 	0.043807
39.57 	0.047436 	4933 	0.046842
39.59 	0.048249 	4912 	0.047534
39.61 	0.036969 	4923 	0.036731
39.63 	0.046323 	4922 	0.045847
39.65 	0.052984 	4926 	0.052132
39.67 	0.040098 	4913 	0.039502
39.69 	0.049024 	4916 	0.048666
39.71 	0.048621 	4895 	0.048142
39.73 	0.050937 	4908 	0.050221
39.75 	0.048498 	4928 	0.047785
39.77 	0.044377 	4935 	0.043783
39.79 	0.049330 	4926 	0.048498
39.81 	0.046885 	4927 	0.046409
39.83 	0.044994 	4934 	0.044400
39.85 	0.043637 	4927 	0.042805
39.87 	0.042843 	4925 	0.042129
39.89 	0.044994 	4934 	0.044282
39.91 	0.050996 	4922 	0.050162
39.93 	0.050435 	4937 	0.049724
39.95 	0.049237 	4915 	0.048522
39.97 	0.045252 	4928 	0.044895
39.99 	0.048459 	4932 	0.047509
40.01 	0.050427 	4918 	0.050070
40.03 	0.046875 	4928 	0.046162
40.05 	0.046980 	4917 	0.046265
40.07 	0.045094 	4923 	0.044500
40.09 	0.043328 	4916 	0.043090
40.11 	0.050854 	4916 	0.049901
40.13 	0.043301 	4896 	0.042822
40.15 	0.046000 	4913 	0.045523
40.17 	0.044440 	4928 	0.043945
40.19 	0.041185 	4929 	0.040828
40.21 	0.044377 	4935 	0.043309
40.23 	0.045418 	4932 	0.044824
40.25 	0.046138 	4920 	0.045642
40.27 	0.045574 	4937 	0.045100
40.29 	0.043840 	4927 	0.043840
40.31 	0.044341 	4939 	0.043392
40.33 	0.047242 	4932 	0.046530
40.35 	0.047571 	4919 	0.047213
40.37 	0.043417 	4929 	0.042585
40.39 	0.044210 	4931 	0.043379
40.41 	0.043655 	4925 	0.043041
40.43 	0.041243 	4922 	0.040529
40.45 	0.046219 	4933 	0.045626
40.47 	0.045140 	4918 	0.044545
40.49 	0.044052 	4926 	0.043695
40.51 	0.045713 	4922 	0.045237
40.53 	0.043124 	4916 	0.042410
40.55 	0.043806 	4908 	0.043329
40.57 	0.044172 	4890 	0.043932
40.59 	0.045372 	4937 	0.044897
40.61 	0.042756 	4935 	0.041925
40.63 	0.044016 	4930 	0.043422
40.65 	0.040713 	4937 	0.040357
40.67 	0.043390 	4932 	0.042915
40.69 	0.043751 	4937 	0.043020
40.71 	0.042174 	4932 	0.041817
40.73 	0.043443 	4926 	0.043086
40.75 	0.044413 	4931 	0.043938
40.77 	0.043531 	4939 	0.043057
40.79 	0.043461 	4924 	0.043223
40.81 	0.044525 	4941 	0.043933
40.83 	0.044643 	4928 	0.044286
40.85 	0.045085 	4924 	0.044253
40.87 	0.041193 	4928 	0.040718
40.89 	0.041979 	4931 	0.041504
40.91 	0.038594 	4923 	0.037880
40.93 	0.044589 	4934 	0.043401
40.95 	0.050071 	4913 	0.048998
40.97 	0.046101 	4924 	0.045506
40.99 	0.045695 	4924 	0.045338
41.01 	0.042956 	4912 	0.042002
41.03 	0.048318 	4905 	0.047124
41.05 	0.046191 	4936 	0.045954
41.07 	0.041785 	4930 	0.041310
41.09 	0.035635 	4939 	0.035635
41.11 	0.042553 	4935 	0.041960
41.13 	0.044368 	4936 	0.044012
41.15 	0.046549 	4941 	0.045344
41.17 	0.043170 	4934 	0.042932
41.19 	0.040974 	4930 	0.040855
41.21 	0.043346 	4937 	0.042753
41.23 	0.042519 	4939 	0.042163
41.25 	0.045003 	4933 	0.044647
41.27 	0.045427 	4931 	0.044952
41.29 	0.040179 	4928 	0.039822
41.31 	0.043179 	4933 	0.042822
41.33 	0.048815 	4937 	0.047629
41.35 	0.038477 	4938 	0.038358
41.37 	0.044070 	4924 	0.043356
41.39 	0.045408 	4933 	0.044933
41.41 	0.043240 	4926 	0.042883
41.43 	0.040576 	4929 	0.040101
41.45 	0.044363 	4914 	0.044125
41.47 	0.042631 	4926 	0.042155
41.49 	0.041292 	4892 	0.040913
41.51 	0.046154 	4940 	0.046035
41.53 	0.038228 	4944 	0.037517
41.55 	0.042958 	4935 	0.042246
41.57 	0.045740 	4941 	0.045266
41.59 	0.045206 	4933 	0.044850
41.61 	0.047042 	4953 	0.046096
41.63 	0.045160 	4938 	0.044448
41.65 	0.044025 	4929 	0.043154
41.67 	0.045142 	4940 	0.044430
41.69 	0.052153 	4947 	0.051068
41.71 	0.043170 	4934 	0.042695
41.73 	0.049028 	4936 	0.048672
41.75 	0.041388 	4929 	0.041150
41.77 	0.042097 	4941 	0.041623
41.79 	0.043083 	4944 	0.042372
41.81 	0.048622 	4936 	0.047910
41.83 	0.041802 	4928 	0.041089
41.85 	0.043126 	4939 	0.043008
41.87 	0.043566 	4935 	0.042735
41.89 	0.041557 	4933 	0.040844
41.91 	0.043963 	4936 	0.043369
41.93 	0.045418 	4932 	0.045061
41.95 	0.039951 	4931 	0.039714
41.97 	0.041718 	4914 	0.041241
41.99 	0.042610 	4905 	0.041654
42.01 	0.039660 	4942 	0.039304
42.03 	0.039482 	4939 	0.038770
42.05 	0.043619 	4952 	0.042672
42.07 	0.039093 	4937 	0.038974
42.09 	0.044260 	4948 	0.043787
42.11 	0.042669 	4945 	0.041959
42.13 	0.043680 	4945 	0.042950
42.15 	0.041110 	4938 	0.040873
42.17 	0.043310 	4918 	0.042596
42.19 	0.041769 	4908 	0.041172
42.21 	0.042032 	4901 	0.041435
42.23 	0.046402 	4892 	0.045923
42.25 	0.046431 	4889 	0.045951
42.27 	0.042881 	4874 	0.042159
42.29 	0.034135 	4863 	0.034015
42.31 	0.042636 	4855 	0.042274
42.33 	0.041787 	4834 	0.041181
42.35 	0.039479 	4838 	0.038995
42.37 	0.038095 	4830 	0.037489
42.39 	0.039134 	4804 	0.038260
42.41 	0.039134 	4804 	0.038768
42.43 	0.040902 	4792 	0.040290
42.45 	0.041876 	4776 	0.041263
42.47 	0.041553 	4765 	0.041061
42.49 	0.044491 	4765 	0.043876
42.51 	0.040270 	4743 	0.039776
42.53 	0.039975 	4728 	0.039355
42.55 	0.035047 	4708 	0.034425
42.57 	0.043763 	4730 	0.043268
42.59 	0.042504 	4729 	0.042132
42.61 	0.037171 	4708 	0.037046
42.63 	0.037163 	4709 	0.037038
42.65 	0.035432 	4685 	0.035057
42.67 	0.038856 	4684 	0.038480
42.69 	0.042148 	4674 	0.041647
42.71 	0.037958 	4663 	0.037582
42.73 	0.038578 	4640 	0.037820
42.75 	0.038986 	4617 	0.038225
42.77 	0.042609 	4600 	0.041717
42.79 	0.038848 	4582 	0.038336
42.81 	0.035072 	4562 	0.034687
42.83 	0.037478 	4536 	0.037091
42.85 	0.035115 	4528 	0.034856
42.87 	0.036897 	4499 	0.036637
42.89 	0.038839 	4480 	0.037924
42.91 	0.038824 	4456 	0.038430
42.93 	0.038911 	4446 	0.038780
42.95 	0.040534 	4416 	0.040402
42.97 	0.037946 	4401 	0.037280
42.99 	0.032611 	4385 	0.032210
43.01 	0.041027 	4363 	0.040624
43.03 	0.036464 	4333 	0.036059
43.05 	0.039769 	4325 	0.038956
43.07 	0.037011 	4296 	0.036466
43.09 	0.042727 	4283 	0.041906
43.11 	0.044418 	4255 	0.044005
43.13 	0.039887 	4237 	0.039472
43.15 	0.040894 	4206 	0.040337
43.17 	0.038287 	4179 	0.038006
43.19 	0.048164 	4194 	0.047605
43.21 	0.033797 	4172 	0.033235
43.23 	0.042610 	4154 	0.041904
43.25 	0.043531 	4135 	0.042681
43.27 	0.039951 	4105 	0.039809
43.29 	0.034146 	4100 	0.033408
43.31 	0.041677 	4079 	0.041246
43.33 	0.038262 	4051 	0.038118
43.35 	0.038442 	4032 	0.037861
43.37 	0.037360 	4015 	0.036922
43.39 	0.039730 	4002 	0.038998
43.41 	0.041037 	3972 	0.040595
43.43 	0.037121 	3960 	0.036677
43.45 	0.041169 	3935 	0.040722
43.47 	0.041571 	3921 	0.041123
43.49 	0.034385 	3897 	0.033784
43.51 	0.041527 	3877 	0.041527
43.53 	0.037536 	3863 	0.037536
43.55 	0.047233 	2964 	0.046213
43.57 	0.042002 	2238 	0.041478
43.59 	0.034364 	1746 	0.033693
43.61 	0.032568 	1351 	0.032135
43.63 	0.041958 	1001 	0.041958
43.65 	0.042213 	687 	0.041360
43.67 	0.043825 	502 	0.042658
43.69 	0.032698 	367 	0.032698
43.71 	0.016736 	239 	0.016736
43.73 	0.041667 	120 	0.041667
43.75 	0.000000 	16 	0.000000