File: Example_Data/25SC_s1_0019.000.dat
#F C:\frames\spec\25SC_s1_0019.000
#C title =s:19 frm:0 25SC_s1
#C wavelength =0.15406

#S 1  fr_average C:\frames\spec\25SC_s1_0019.000 C:\win32app\speccom\mask.axs chi 0 180 0 360 0.02
#C 2 theta =0.000000 to 180 deg
#C   q   =0.000000 to 81.568 nm^-1
#C  chi  =0.000000 to 360 deg
#C collumns:
#C  1 position (2theta or chi in degrees)
#C  2 average intensity (sum of all counts in the region divided with number of pixels)
#C  3 Number of pixels in region)
#C  4 error (sum of sqrt(intensity) for all pixels divided by number)
#N 4
#L TTh  Int  N_pix  Err
32.99 	0.049180 	61 	0.039577
33.01 	0.061856 	873 	0.059843
33.03 	0.071172 	1391 	0.068645
33.05 	0.059192 	1757 	0.057858
33.07 	0.054146 	2050 	0.053289
33.09 	0.064337 	2347 	0.063090
33.11 	0.059713 	2579 	0.058123
33.13 	0.063373 	2793 	0.061870
33.15 	0.056019 	2999 	0.054847
33.17 	0.059044 	3201 	0.058129
33.19 	0.061939 	3342 	0.060186
33.21 	0.057625 	3436 	0.056943
33.23 	0.054215 	3523 	0.053384
33.25 	0.063677 	3612 	0.062866
33.27 	0.056198 	3630 	0.055391
33.29 	0.064693 	3648 	0.064211
33.31 	0.062295 	3660 	0.060695
33.33 	0.061313 	3686 	0.060201
33.35 	0.057661 	3694 	0.057027
33.37 	0.067313 	3714 	0.066682
33.39 	0.055243 	3729 	0.054300
33.41 	0.058021 	3740 	0.056455
33.43 	0.059559 	3761 	0.057845
33.45 	0.061755 	3773 	0.059891
33.47 	0.057925 	3798 	0.057154
33.49 	0.056970 	3809 	0.055407
33.51 	0.063172 	3815 	0.061790
33.53 	0.059620 	3841 	0.058247
33.55 	0.054385 	3843 	0.052860
33.57 	0.068868 	3877 	0.067508
33.59 	0.059021 	3880 	0.057662
33.61 	0.054745 	3909 	0.053247
33.63 	0.063792 	3919 	0.062745
33.65 	0.066395 	3931 	0.065352
33.67 	0.066768 	3954 	0.065731
33.69 	0.065773 	3953 	0.063995
33.71 	0.067421 	3975 	0.066242
33.73 	0.061439 	4004 	0.060122
33.75 	0.064516 	3999 	0.062405
33.77 	0.055652 	4025 	0.054924
33.79 	0.060629 	4041 	0.059324
33.81 	0.063398 	4038 	0.061947
33.83 	0.055309 	4050 	0.054562
33.85 	0.062210 	4099 	0.060924
33.87 	0.058866 	4111 	0.057869
33.89 	0.061636 	4121 	0.060025
33.91 	0.057363 	4149 	0.056657
33.93 	0.063840 	4151 	0.062570
33.95 	0.063382 	4181 	0.061701
33.97 	0.056086 	4190 	0.055247
33.99 	0.063095 	4200 	0.062258
34.01 	0.056254 	4213 	0.055559
34.03 	0.058671 	4244 	0.057567
34.05 	0.061618 	4252 	0.060631
34.07 	0.066776 	4268 	0.066090
34.09 	0.063229 	4286 	0.062136
34.11 	0.054393 	4302 	0.053712
34.13 	0.054782 	4308 	0.054374
34.15 	0.052413 	4331 	0.051331
34.17 	0.060230 	4350 	0.058345
34.19 	0.055938 	4362 	0.055400
34.21 	0.060856 	4371 	0.060320
34.23 	0.062372 	4393 	0.061172
34.25 	0.056994 	4404 	0.056196
34.27 	0.057440 	4422 	0.056513
34.29 	0.055242 	4435 	0.054186
34.31 	0.052490 	4458 	0.051658
34.33 	0.059495 	4471 	0.058577
34.35 	0.056869 	4484 	0.055824
34.37 	0.055444 	4491 	0.054922
34.39 	0.058196 	4502 	0.057676
34.41 	0.058551 	4526 	0.057515
34.43 	0.057502 	4539 	0.056469
34.45 	0.057111 	4535 	0.055131
34.47 	0.058580 	4592 	0.057687
34.49 	0.060039 	4597 	0.058765
34.51 	0.052106 	4606 	0.051195
34.53 	0.060521 	4643 	0.059890
34.55 	0.065906 	4643 	0.064896
34.57 	0.062446 	4660 	0.061189
34.59 	0.060749 	4675 	0.058869
34.61 	0.055354 	4697 	0.055105
34.63 	0.055202 	4710 	0.054580
34.65 	0.052319 	4721 	0.051203
34.67 	0.057794 	4741 	0.057052
34.69 	0.054691 	4754 	0.053705
34.71 	0.063156 	4766 	0.062050
34.73 	0.053269 	4787 	0.052168
34.75 	0.059692 	4808 	0.058717
34.77 	0.063097 	4818 	0.062610
34.79 	0.061774 	4824 	0.059953
34.81 	0.066047 	4845 	0.064838
34.83 	0.051625 	4862 	0.050661
34.85 	0.057917 	4869 	0.056835
34.87 	0.058956 	4868 	0.057512
34.89 	0.058173 	4882 	0.057813
34.91 	0.057149 	4882 	0.056549
34.93 	0.053072 	4899 	0.052355
34.95 	0.056237 	4890 	0.055638
34.97 	0.057324 	4902 	0.056348
34.99 	0.055340 	4897 	0.054263
35.01 	0.053220 	4923 	0.052268
35.03 	0.062513 	4943 	0.061545
35.05 	0.065696 	4947 	0.064631
35.07 	0.054251 	4940 	0.053184
35.09 	0.058752 	4953 	0.057195
35.11 	0.058824 	4947 	0.057284
35.13 	0.059500 	4958 	0.057964
35.15 	0.057930 	4937 	0.056387
35.17 	0.060049 	4946 	0.058864
35.19 	0.060704 	4942 	0.059874
35.21 	0.051567 	4945 	0.050146
35.23 	0.052578 	4945 	0.051868
35.25 	0.050172 	4943 	0.049461
35.27 	0.059014 	4948 	0.058422
35.29 	0.057432 	4945 	0.056721
35.31 	0.054531 	4933 	0.053917
35.33 	0.050779 	4943 	0.050068
35.35 	0.065965 	4942 	0.064898
35.37 	0.055882 	4939 	0.055151
35.39 	0.056623 	4945 	0.055912
35.41 	0.061104 	4926 	0.059677
35.43 	0.060815 	4933 	0.059390
35.45 	0.066032 	4937 	0.065083
35.47 	0.051308 	4931 	0.050358
35.49 	0.058248 	4910 	0.057652
35.51 	0.059886 	4926 	0.058935
35.53 	0.056173 	4949 	0.055581
35.55 	0.054196 	4945 	0.053248
35.57 	0.059396 	4933 	0.058090
35.59 	0.056825 	4945 	0.056114
35.61 	0.061514 	4942 	0.060328
35.63 	0.051790 	4943 	0.050842
35.65 	0.052578 	4945 	0.051631
35.67 	0.060502 	4942 	0.058823
35.69 	0.059644 	4946 	0.058934
35.71 	0.058943 	4937 	0.057519
35.73 	0.051459 	4936 	0.050272
35.75 	0.056784 	4931 	0.056071
35.77 	0.055948 	4951 	0.054864
35.79 	0.052311 	4932 	0.051836
35.81 	0.054936 	4933 	0.053749
35.83 	0.063283 	4946 	0.061862
35.85 	0.061196 	4935 	0.059870
35.87 	0.055251 	4923 	0.054299
35.89 	0.052898 	4934 	0.051948
35.91 	0.064745 	4927 	0.063913
35.93 	0.054800 	4927 	0.053968
35.95 	0.061013 	4917 	0.059941
35.97 	0.059853 	4912 	0.059019
35.99 	0.056894 	4939 	0.056182
36.01 	0.058824 	4930 	0.057517
36.03 	0.061097 	4943 	0.060385
36.05 	0.053994 	4945 	0.052691
36.07 	0.058514 	4939 	0.057664
36.09 	0.058502 	4940 	0.057553
36.11 	0.054981 	4929 	0.054387
36.13 	0.052610 	4942 	0.051168
36.15 	0.056894 	4939 	0.055827
36.17 	0.058274 	4925 	0.057560
36.19 	0.054049 	4940 	0.052488
36.21 	0.059038 	4929 	0.058306
36.23 	0.061601 	4935 	0.060414
36.25 	0.056466 	4941 	0.055518
36.27 	0.061523 	4925 	0.060690
36.29 	0.054958 	4931 	0.054246
36.31 	0.063920 	4928 	0.063326
36.33 	0.059801 	4933 	0.058832
36.35 	0.060256 	4929 	0.059780
36.37 	0.063173 	4923 	0.062221
36.39 	0.064011 	4921 	0.062702
36.41 	0.058007 	4896 	0.057528
36.43 	0.058644 	4928 	0.057099
36.45 	0.062677 	4930 	0.062202
36.47 	0.057131 	4936 	0.056538
36.49 	0.058478 	4942 	0.057649
36.51 	0.055139 	4933 	0.054288
36.53 	0.051588 	4943 	0.051351
36.55 	0.061092 	4927 	0.059665
36.57 	0.060600 	4934 	0.059888
36.59 	0.060336 	4939 	0.059743
36.61 	0.060231 	4931 	0.059499
36.63 	0.058406 	4931 	0.057337
36.65 	0.059002 	4932 	0.057676
36.67 	0.055375 	4930 	0.054781
36.69 	0.059647 	4929 	0.058577
36.71 	0.058728 	4921 	0.057657
36.73 	0.064569 	4925 	0.063736
36.75 	0.062095 	4944 	0.060536
36.77 	0.062004 	4919 	0.061052
36.79 	0.058931 	4921 	0.058812
36.81 	0.060822 	4916 	0.060226
36.83 	0.056358 	4915 	0.055285
36.85 	0.064108 	4898 	0.063271
36.87 	0.053803 	4944 	0.052736
36.89 	0.055736 	4916 	0.054783
36.91 	0.053228 	4941 	0.052260
36.93 	0.059229 	4930 	0.058397
36.95 	0.063045 	4933 	0.061857
36.97 	0.057965 	4934 	0.056303
36.99 	0.049645 	4935 	0.049171
37.01 	0.054733 	4933 	0.053902
37.03 	0.053818 	4924 	0.052985
37.05 	0.058859 	4927 	0.058146
37.07 	0.056332 	4935 	0.055363
37.09 	0.054586 	4928 	0.054111
37.11 	0.058764 	4935 	0.057933
37.13 	0.058083 	4924 	0.057468
37.15 	0.061927 	4909 	0.060614
37.17 	0.060195 	4934 	0.059007
37.19 	0.063147 	4925 	0.061790
37.21 	0.060403 	4917 	0.059330
37.23 	0.054697 	4918 	0.053863
37.25 	0.054979 	4911 	0.054382
37.27 	0.055374 	4894 	0.054416
37.29 	0.057404 	4930 	0.056434
37.31 	0.064438 	4935 	0.062974
37.33 	0.053785 	4927 	0.053191
37.35 	0.064196 	4938 	0.062772
37.37 	0.060077 	4927 	0.058512
37.39 	0.052930 	4931 	0.052218
37.41 	0.057189 	4931 	0.056833
37.43 	0.056569 	4932 	0.056213
37.45 	0.062754 	4924 	0.061921
37.47 	0.056401 	4929 	0.055450
37.49 	0.057485 	4923 	0.057366
37.51 	0.057571 	4933 	0.056146
37.53 	0.058752 	4919 	0.057899
37.55 	0.059838 	4930 	0.059362
37.57 	0.060711 	4925 	0.059759
37.59 	0.060020 	4915 	0.058948
37.61 	0.059325 	4922 	0.058492
37.63 	0.064444 	4919 	0.063134
37.65 	0.058154 	4918 	0.057300
37.67 	0.061582 	4904 	0.060149
37.69 	0.062474 	4898 	0.061637
37.71 	0.054981 	4929 	0.054505
37.73 	0.059647 	4929 	0.058815
37.75 	0.059919 	4940 	0.058496
37.77 	0.057114 	4920 	0.056399
37.79 	0.058621 	4930 	0.057314
37.81 	0.060004 	4933 	0.058797
37.83 	0.050407 	4920 	0.049216
37.85 	0.056684 	4922 	0.055970
37.87 	0.056287 	4939 	0.055931
37.89 	0.054213 	4925 	0.053975
37.91 	0.058621 	4930 	0.057670
37.93 	0.057532 	4919 	0.056460
37.95 	0.056899 	4921 	0.055352
37.97 	0.051329 	4929 	0.050378
37.99 	0.055171 	4912 	0.054336
38.01 	0.057427 	4928 	0.056238
38.03 	0.058668 	4909 	0.057594
38.05 	0.058477 	4925 	0.057288
38.07 	0.057038 	4909 	0.056203
38.09 	0.058016 	4878 	0.056935
38.11 	0.058561 	4935 	0.056781
38.13 	0.058538 	4937 	0.057707
38.15 	0.048597 	4918 	0.048478
38.17 	0.053550 	4930 	0.053074
38.19 	0.057606 	4930 	0.056894
38.21 	0.052001 	4923 	0.051168
38.23 	0.059336 	4938 	0.058387
38.25 	0.062030 	4917 	0.061196
38.27 	0.061258 	4930 	0.060664
38.29 	0.060926 	4924 	0.059955
38.31 	0.062107 	4927 	0.061393
38.33 	0.062957 	4924 	0.061529
38.35 	0.064326 	4928 	0.063494
38.37 	0.062145 	4924 	0.061054
38.39 	0.068853 	4909 	0.067640
38.41 	0.066626 	4923 	0.065555
38.43 	0.066314 	4916 	0.064716
38.45 	0.069744 	4918 	0.069010
38.47 	0.068474 	4907 	0.066783
38.49 	0.077097 	4877 	0.075175
38.51 	0.071979 	4932 	0.069128
38.53 	0.074254 	4929 	0.072234
38.55 	0.075365 	4936 	0.073684
38.57 	0.084298 	4923 	0.082513
38.59 	0.078595 	4924 	0.077385
38.61 	0.078201 	4936 	0.077133
38.63 	0.076564 	4924 	0.074760
38.65 	0.078081 	4918 	0.076294
38.67 	0.084262 	4937 	0.082344
38.69 	0.078220 	4922 	0.076435
38.71 	0.073517 	4924 	0.071694
38.73 	0.076251 	4918 	0.075298
38.75 	0.080373 	4927 	0.079066
38.77 	0.075767 	4923 	0.073586
38.79 	0.067896 	4934 	0.067065
38.81 	0.077158 	4912 	0.075846
38.83 	0.077251 	4919 	0.075346
38.85 	0.069015 	4912 	0.067464
38.87 	0.067196 	4911 	0.066242
38.89 	0.060037 	4897 	0.058242
38.91 	0.062819 	4903 	0.061624
38.93 	0.065006 	4938 	0.063800
38.95 	0.060797 	4918 	0.059844
38.97 	0.058203 	4931 	0.057372
38.99 	0.058538 	4937 	0.057351
39.01 	0.054900 	4918 	0.053828
39.03 	0.056749 	4934 	0.056037
39.05 	0.054416 	4925 	0.053584
39.07 	0.060317 	4924 	0.059365
39.09 	0.053016 	4923 	0.052540
39.11 	0.049686 	4931 	0.048973
39.13 	0.046110 	4923 	0.045515
39.15 	0.054934 	4915 	0.054100
39.17 	0.047600 	4937 	0.047006
39.19 	0.048810 	4917 	0.047381
39.21 	0.046436 	4910 	0.046197
39.23 	0.046904 	4925 	0.046071
39.25 	0.048557 	4922 	0.047605
39.27 	0.047047 	4910 	0.045834
39.29 	0.053867 	4901 	0.052791
39.31 	0.047297 	4884 	0.047297
39.33 	0.048874 	4931 	0.048261
39.35 	0.044580 	4935 	0.043986
39.37 	0.046865 	4929 	0.046271
39.39 	0.047271 	4929 	0.046320
39.41 	0.048874 	4931 	0.048399
39.43 	0.051085 	4933 	0.050372
39.45 	0.052589 	4925 	0.051399
39.47 	0.049970 	4923 	0.049256
39.49 	0.043787 	4933 	0.043193
39.51 	0.045898 	4924 	0.045660
39.53 	0.048954 	4923 	0.048478
39.55 	0.052450 	4919 	0.051358
39.57 	0.050679 	4933 	0.049848
39.59 	0.045399 	4912 	0.044922
39.61 	0.044485 	4923 	0.044009
39.63 	0.043275 	4922 	0.043037
39.65 	0.045676 	4926 	0.045081
39.67 	0.045593 	4913 	0.044262
39.69 	0.045159 	4916 	0.044563
39.71 	0.047191 	4895 	0.046832
39.73 	0.044214 	4908 	0.043736
39.75 	0.048498 	4928 	0.047904
39.77 	0.049848 	4935 	0.049235
39.79 	0.051766 	4926 	0.051053
39.81 	0.044855 	4927 	0.044617
39.83 	0.042967 	4934 	0.042492
39.85 	0.045667 	4927 	0.045429
39.87 	0.044264 	4925 	0.044145
39.89 	0.047629 	4934 	0.046679
39.91 	0.045307 	4922 	0.045069
39.93 	0.046384 	4937 	0.045198
39.95 	0.046999 	4915 	0.046641
39.97 	0.040990 	4928 	0.040515
39.99 	0.043593 	4932 	0.043118
40.01 	0.045547 	4918 	0.044951
40.03 	0.047078 	4928 	0.046721
40.05 	0.039658 	4917 	0.039182
40.07 	0.045501 	4923 	0.044767
40.09 	0.046379 	4916 	0.046022
40.11 	0.043938 	4916 	0.042985
40.13 	0.036765 	4896 	0.036525
40.15 	0.047425 	4913 	0.046710
40.17 	0.045860 	4928 	0.045385
40.19 	0.045040 	4929 	0.044445
40.21 	0.045593 	4935 	0.044762
40.23 	0.046431 	4932 	0.046313
40.25 	0.041260 	4920 	0.040784
40.27 	0.044764 	4937 	0.043933
40.29 	0.045464 	4927 	0.044869
40.31 	0.044543 	4939 	0.043713
40.33 	0.044201 	4932 	0.043726
40.35 	0.044725 	4919 	0.044248
40.37 	0.042605 	4929 	0.041179
40.39 	0.043196 	4931 	0.042602
40.41 	0.051371 	4925 	0.050657
40.43 	0.044494 	4922 	0.044018
40.45 	0.037705 	4933 	0.037468
40.47 	0.044734 	4918 	0.044257
40.49 	0.046488 	4926 	0.045893
40.51 	0.040634 	4922 	0.040396
40.53 	0.042921 	4916 	0.042444
40.55 	0.045232 	4908 	0.044397
40.57 	0.038855 	4890 	0.038495
40.59 	0.036662 	4937 	0.036543
40.61 	0.045593 	4935 	0.045474
40.63 	0.041379 	4930 	0.040666
40.65 	0.046384 	4937 	0.046147
40.67 	0.045823 	4932 	0.044754
40.69 	0.038687 	4937 	0.037976
40.71 	0.045418 	4932 	0.045180
40.73 	0.042428 	4926 	0.041833
40.75 	0.036909 	4931 	0.036553
40.77 	0.046163 	4939 	0.045096
40.79 	0.043054 	4924 	0.042935
40.81 	0.041085 	4941 	0.040373
40.83 	0.045657 	4928 	0.044588
40.85 	0.042445 	4924 	0.041969
40.87 	0.041599 	4928 	0.040767
40.89 	0.042588 	4931 	0.041875
40.91 	0.039610 	4923 	0.039015
40.93 	0.041143 	4934 	0.040668
40.95 	0.041726 	4913 	0.041110
40.97 	0.043867 	4924 	0.043272
40.99 	0.042648 	4924 	0.042291
41.01 	0.043770 	4912 	0.043770
41.03 	0.046687 	4905 	0.045851
41.05 	0.042545 	4936 	0.041714
41.07 	0.041785 	4930 	0.041191
41.09 	0.037862 	4939 	0.037625
41.11 	0.037690 	4935 	0.037096
41.13 	0.035859 	4936 	0.035622
41.15 	0.041490 	4941 	0.041252
41.17 	0.038306 	4934 	0.037949
41.19 	0.042191 	4930 	0.041953
41.21 	0.046384 	4937 	0.045772
41.23 	0.043936 	4939 	0.043580
41.25 	0.042570 	4933 	0.041739
41.27 	0.048672 	4931 	0.047821
41.29 	0.040584 	4928 	0.040228
41.31 	0.043179 	4933 	0.042822
41.33 	0.039700 	4937 	0.039582
41.35 	0.044147 	4938 	0.043673
41.37 	0.044070 	4924 	0.043475
41.39 	0.043787 	4933 	0.043549
41.41 	0.037353 	4926 	0.037115
41.43 	0.043417 	4929 	0.043179
41.45 	0.040293 	4914 	0.039935
41.47 	0.043240 	4926 	0.042745
41.49 	0.041496 	4892 	0.041137
41.51 	0.041296 	4940 	0.040940
41.53 	0.040251 	4944 	0.039777
41.55 	0.046606 	4935 	0.045281
41.57 	0.046145 	4941 	0.045315
41.59 	0.039732 	4933 	0.039257
41.61 	0.041591 	4953 	0.040763
41.63 	0.039895 	4938 	0.039302
41.65 	0.042199 	4929 	0.041843
41.67 	0.046559 	4940 	0.046203
41.69 	0.040429 	4947 	0.039718
41.71 	0.042156 	4934 	0.042038
41.73 	0.038088 	4936 	0.037969
41.75 	0.047677 	4929 	0.046845
41.77 	0.038454 	4941 	0.038217
41.79 	0.040858 	4944 	0.040265
41.81 	0.043355 	4936 	0.043355
41.83 	0.043628 	4928 	0.042677
41.85 	0.037457 	4939 	0.037101
41.87 	0.038501 	4935 	0.038382
41.89 	0.041962 	4933 	0.041131
41.91 	0.040721 	4936 	0.039772
41.93 	0.042174 	4932 	0.041698
41.95 	0.035895 	4931 	0.035301
41.97 	0.035409 	4914 	0.034813
41.99 	0.041794 	4905 	0.041436
42.01 	0.040065 	4942 	0.039472
42.03 	0.036445 	4939 	0.036207
42.05 	0.037359 	4952 	0.037122
42.07 	0.038890 	4937 	0.038653
42.09 	0.040420 	4948 	0.039828
42.11 	0.041658 	4945 	0.040829
42.13 	0.036603 	4945 	0.036366
42.15 	0.035034 	4938 	0.034797
42.17 	0.042497 	4918 	0.041782
42.19 	0.041565 	4908 	0.041087
42.21 	0.037543 	4901 	0.037185
42.23 	0.035977 	4892 	0.035738
42.25 	0.041317 	4889 	0.040838
42.27 	0.042060 	4874 	0.041699
42.29 	0.036397 	4863 	0.035675
42.31 	0.037899 	4855 	0.037537
42.33 	0.041167 	4834 	0.040924
42.35 	0.031625 	4838 	0.031261
42.37 	0.043892 	4830 	0.043286
42.39 	0.042881 	4804 	0.042149
42.41 	0.044546 	4804 	0.043937
42.43 	0.042571 	4792 	0.041837
42.45 	0.041039 	4776 	0.040793
42.47 	0.036306 	4765 	0.036306
42.49 	0.035257 	4765 	0.034868
42.51 	0.039005 	4743 	0.038511
42.53 	0.035321 	4728 	0.034950
42.55 	0.039932 	4708 	0.039310
42.57 	0.038901 	4730 	0.038529
42.59 	0.035948 	4729 	0.035701
42.61 	0.037383 	4708 	0.037010
42.63 	0.037163 	4709 	0.036914
42.65 	0.043970 	4685 	0.043595
42.67 	0.040350 	4684 	0.040225
42.69 	0.036799 	4674 	0.036674
42.71 	0.039460 	4663 	0.039083
42.73 	0.039655 	4640 	0.039150
42.75 	0.041802 	4617 	0.041548
42.77 	0.039783 	4600 	0.039528
42.79 	0.037320 	4582 	0.036809
42.81 	0.041868 	4562 	0.041204
42.83 	0.037919 	4536 	0.037402
42.85 	0.037323 	4528 	0.037065
42.87 	0.042676 	4499 	0.042286
42.89 	0.038393 	4480 	0.037870
42.91 	0.034785 	4456 	0.034653
42.93 	0.038911 	4446 	0.037989
42.95 	0.039855 	4416 	0.039192
42.97 	0.039536 	4401 	0.038583
42.99 	0.041961 	4385 	0.041694
43.01 	0.040339 	4363 	0.040205
43.03 	0.042465 	4333 	0.042194
43.05 	0.037688 	4325 	0.037552
43.07 	0.039804 	4296 	0.039395
43.09 	0.039225 	4283 	0.038815
43.11 	0.034078 	4255 	0.034078
43.13 	0.041303 	4237 	0.040888
43.15 	0.043509 	4206 	0.042674
43.17 	0.039962 	4179 	0.039822
43.19 	0.042442 	4194 	0.042023
43.21 	0.036194 	4172 	0.036053
43.23 	0.039961 	4154 	0.039374
43.25 	0.036759 	4135 	0.036476
43.27 	0.040682 	4105 	0.040397
43.29 	0.043415 	4100 	0.042986
43.31 	0.032116 	4079 	0.031541
43.33 	0.039990 	4051 	0.039267
43.35 	0.040179 	4032 	0.039307
43.37 	0.037111 	4015 	0.036819
43.39 	0.038231 	4002 	0.037792
43.41 	0.039527 	3972 	0.039084
43.43 	0.036869 	3960 	0.036425
43.45 	0.036086 	3935 	0.036086
43.47 	0.040296 	3921 	0.039848
43.49 	0.036695 	3897 	0.035943
43.51 	0.038174 	3877 	0.037569
43.53 	0.041419 	3863 	0.040812
43.55 	0.036775 	2964 	0.036577
43.57 	0.033065 	2238 	0.032803
43.59 	0.048110 	1746 	0.047439
43.61 	0.031088 	1351 	0.031088
43.63 	0.036963 	1001 	0.035793
43.65 	0.024745 	687 	0.023893
43.67 	0.029880 	502 	0.029880
43.69 	0.046322 	367 	0.044725
43.71 	0.029289 	239 	0.029289
43.73 	0.041667 	120 	0.041667
43.75 	0.000000 	16 	0.000000