File: Example_Data/25SC_s1_0041.003.dat
#F C:\frames\spec\25SC_s1_0041.003
#C title =s:41 frm:3 25SC_s1
#C wavelength =0.15406

#S 1  fr_average C:\frames\spec\25SC_s1_0041.003 C:\win32app\speccom\mask.axs chi 0 180 0 360 0.02
#C 2 theta =0.000000 to 180 deg
#C   q   =0.000000 to 81.568 nm^-1
#C  chi  =0.000000 to 360 deg
#C collumns:
#C  1 position (2theta or chi in degrees)
#C  2 average intensity (sum of all counts in the region divided with number of pixels)
#C  3 Number of pixels in region)
#C  4 error (sum of sqrt(intensity) for all pixels divided by number)
#N 4
#L TTh  Int  N_pix  Err
32.99 	0.114754 	61 	0.114754
33.01 	0.073310 	873 	0.072639
33.03 	0.053199 	1391 	0.051936
33.05 	0.060330 	1757 	0.059330
33.07 	0.055610 	2050 	0.055038
33.09 	0.063485 	2347 	0.063236
33.11 	0.055448 	2579 	0.054312
33.13 	0.058360 	2793 	0.057521
33.15 	0.063021 	2999 	0.062044
33.17 	0.055295 	3201 	0.053618
33.19 	0.065230 	3342 	0.063069
33.21 	0.057916 	3436 	0.057405
33.23 	0.060460 	3523 	0.058465
33.25 	0.063677 	3612 	0.062866
33.27 	0.058953 	3630 	0.057985
33.29 	0.055099 	3648 	0.053814
33.31 	0.065574 	3660 	0.062853
33.33 	0.058329 	3686 	0.057349
33.35 	0.061180 	3694 	0.059912
33.37 	0.059774 	3714 	0.058512
33.39 	0.052561 	3729 	0.050467
33.41 	0.066845 	3740 	0.065592
33.43 	0.056368 	3761 	0.055278
33.45 	0.060429 	3773 	0.058696
33.47 	0.064771 	3798 	0.063383
33.49 	0.060383 	3809 	0.058180
33.51 	0.063696 	3815 	0.061700
33.53 	0.062223 	3841 	0.061613
33.55 	0.055165 	3843 	0.054098
33.57 	0.060356 	3877 	0.059600
33.59 	0.060567 	3880 	0.059183
33.61 	0.063699 	3909 	0.062201
33.63 	0.056392 	3919 	0.055022
33.65 	0.059272 	3931 	0.058056
33.67 	0.054375 	3954 	0.053462
33.69 	0.064255 	3953 	0.063341
33.71 	0.059119 	3975 	0.058530
33.73 	0.052448 	4004 	0.051716
33.75 	0.063016 	3999 	0.061380
33.77 	0.056149 	4025 	0.055567
33.79 	0.067063 	4041 	0.065299
33.81 	0.062902 	4038 	0.062032
33.83 	0.057531 	4050 	0.057097
33.85 	0.060990 	4099 	0.059704
33.87 	0.064948 	4111 	0.063380
33.89 	0.062606 	4121 	0.061161
33.91 	0.058327 	4149 	0.056892
33.93 	0.062395 	4151 	0.061548
33.95 	0.057881 	4181 	0.056760
33.97 	0.055370 	4190 	0.054671
33.99 	0.058095 	4200 	0.057258
34.01 	0.061476 	4213 	0.060781
34.03 	0.060320 	4244 	0.059216
34.05 	0.051976 	4252 	0.051149
34.07 	0.060216 	4268 	0.059804
34.09 	0.055996 	4286 	0.054493
34.11 	0.059042 	4302 	0.058498
34.13 	0.057335 	4308 	0.056927
34.15 	0.065574 	4331 	0.064492
34.17 	0.057931 	4350 	0.056719
34.19 	0.058918 	4362 	0.058246
34.21 	0.059025 	4371 	0.057953
34.23 	0.059185 	4393 	0.058252
34.25 	0.056312 	4404 	0.055647
34.27 	0.058118 	4422 	0.057059
34.29 	0.061105 	4435 	0.060048
34.31 	0.058771 	4458 	0.057961
34.33 	0.061955 	4471 	0.060907
34.35 	0.063782 	4484 	0.062345
34.37 	0.060788 	4491 	0.059353
34.39 	0.056864 	4502 	0.055953
34.41 	0.061865 	4526 	0.060312
34.43 	0.058163 	4539 	0.056851
34.45 	0.061301 	4535 	0.060138
34.47 	0.058145 	4592 	0.057379
34.49 	0.060909 	4597 	0.058977
34.51 	0.052757 	4606 	0.052121
34.53 	0.061167 	4643 	0.060158
34.55 	0.051906 	4643 	0.051149
34.57 	0.059227 	4660 	0.057970
34.59 	0.054759 	4675 	0.054133
34.61 	0.062380 	4697 	0.061757
34.63 	0.055839 	4710 	0.055341
34.65 	0.061851 	4721 	0.060362
34.67 	0.055052 	4741 	0.054310
34.69 	0.059950 	4754 	0.059333
34.71 	0.062107 	4766 	0.060263
34.73 	0.055149 	4787 	0.054293
34.75 	0.058652 	4808 	0.058043
34.77 	0.052927 	4818 	0.051954
34.79 	0.052861 	4824 	0.052375
34.81 	0.059649 	4845 	0.058924
34.83 	0.057795 	4862 	0.055447
34.85 	0.058123 	4869 	0.056559
34.87 	0.059573 	4868 	0.058851
34.89 	0.054281 	4882 	0.053441
34.91 	0.059812 	4882 	0.058732
34.93 	0.050827 	4899 	0.050109
34.95 	0.057873 	4890 	0.056555
34.97 	0.060996 	4902 	0.060159
34.99 	0.054319 	4897 	0.053123
35.01 	0.058095 	4923 	0.056786
35.03 	0.057253 	4943 	0.056423
35.05 	0.062058 	4947 	0.060874
35.07 	0.060729 	4940 	0.059899
35.09 	0.055724 	4953 	0.055014
35.11 	0.058217 	4947 	0.057250
35.13 	0.062525 	4958 	0.061580
35.15 	0.058538 	4937 	0.057826
35.17 	0.057016 	4946 	0.055950
35.19 	0.064751 	4942 	0.063329
35.21 	0.057432 	4945 	0.056603
35.23 	0.059858 	4945 	0.059029
35.25 	0.050779 	4943 	0.050305
35.27 	0.057195 	4948 	0.056248
35.29 	0.061678 	4945 	0.060968
35.31 	0.057774 	4933 	0.056587
35.33 	0.061703 	4943 	0.060143
35.35 	0.060097 	4942 	0.058774
35.37 	0.058109 	4939 	0.057279
35.39 	0.056825 	4945 	0.056114
35.41 	0.062119 	4926 	0.061049
35.43 	0.063450 	4933 	0.062144
35.45 	0.061373 	4937 	0.059949
35.47 	0.058609 	4931 	0.058015
35.49 	0.059674 	4910 	0.058958
35.51 	0.051766 	4926 	0.051053
35.53 	0.059608 	4949 	0.059016
35.55 	0.063094 	4945 	0.062028
35.57 	0.061829 	4933 	0.060404
35.59 	0.055410 	4945 	0.054580
35.61 	0.054027 	4942 	0.052960
35.63 	0.054016 	4943 	0.053305
35.65 	0.056421 	4945 	0.055947
35.67 	0.055038 	4942 	0.054209
35.69 	0.061059 	4946 	0.060349
35.71 	0.057930 	4937 	0.057218
35.73 	0.055713 	4936 	0.054170
35.75 	0.058406 	4931 	0.057337
35.77 	0.057362 	4951 	0.056771
35.79 	0.056367 	4932 	0.055278
35.81 	0.054328 	4933 	0.053853
35.83 	0.051759 	4946 	0.051167
35.85 	0.056940 	4935 	0.055516
35.87 	0.054235 	4923 	0.053402
35.89 	0.058370 	4934 	0.057539
35.91 	0.057236 	4927 	0.055928
35.93 	0.054191 	4927 	0.053478
35.95 	0.056945 	4917 	0.055397
35.97 	0.056596 	4912 	0.055284
35.99 	0.057097 	4939 	0.056622
36.01 	0.059026 	4930 	0.057838
36.03 	0.057253 	4943 	0.056305
36.05 	0.062892 	4945 	0.062181
36.07 	0.056084 	4939 	0.054780
36.09 	0.057085 	4940 	0.056136
36.11 	0.057618 	4929 	0.056905
36.13 	0.055848 	4942 	0.055255
36.15 	0.057704 	4939 	0.056518
36.17 	0.049340 	4925 	0.048626
36.19 	0.055466 	4940 	0.054517
36.21 	0.068168 	4929 	0.067574
36.23 	0.060588 	4935 	0.060232
36.25 	0.049787 	4941 	0.048958
36.27 	0.060305 	4925 	0.058639
36.29 	0.052322 	4931 	0.051490
36.31 	0.053166 	4928 	0.052096
36.33 	0.053112 	4933 	0.052518
36.35 	0.056401 	4929 	0.055569
36.37 	0.058907 	4923 	0.057836
36.39 	0.055477 	4921 	0.054881
36.41 	0.059028 	4896 	0.057831
36.43 	0.053166 	4928 	0.052334
36.45 	0.054158 	4930 	0.053208
36.47 	0.058752 	4936 	0.057803
36.49 	0.056455 	4942 	0.055388
36.51 	0.048044 	4933 	0.047213
36.53 	0.054420 	4943 	0.053216
36.55 	0.057236 	4927 	0.055670
36.57 	0.060600 	4934 	0.058938
36.59 	0.044543 	4939 	0.043950
36.61 	0.054756 	4931 	0.053805
36.63 	0.048469 	4931 	0.047756
36.65 	0.058597 	4932 	0.057290
36.67 	0.049493 	4930 	0.049018
36.69 	0.053358 	4929 	0.052288
36.71 	0.060354 	4921 	0.058925
36.73 	0.051980 	4925 	0.051028
36.75 	0.052791 	4944 	0.052317
36.77 	0.049604 	4919 	0.048770
36.79 	0.059338 	4921 	0.058128
36.81 	0.057567 	4916 	0.056256
36.83 	0.055951 	4915 	0.055355
36.85 	0.052879 	4898 	0.052400
36.87 	0.057443 	4944 	0.056732
36.89 	0.057160 	4916 	0.055254
36.91 	0.054847 	4941 	0.053642
36.93 	0.049087 	4930 	0.048731
36.95 	0.054328 	4933 	0.053378
36.97 	0.055533 	4934 	0.054821
36.99 	0.051672 	4935 	0.050129
37.01 	0.053923 	4933 	0.053210
37.03 	0.056255 	4924 	0.055779
37.05 	0.056221 	4927 	0.055151
37.07 	0.054306 	4935 	0.053119
37.09 	0.049513 	4928 	0.048562
37.11 	0.054914 	4935 	0.054083
37.13 	0.057271 	4924 	0.056557
37.15 	0.050316 	4909 	0.049719
37.17 	0.050263 	4934 	0.049789
37.19 	0.053604 	4925 	0.052653
37.21 	0.055318 	4917 	0.053889
37.23 	0.057544 	4918 	0.056948
37.25 	0.051924 	4911 	0.051209
37.27 	0.053126 	4894 	0.051929
37.29 	0.051927 	4930 	0.051333
37.31 	0.055319 	4935 	0.054607
37.33 	0.050335 	4927 	0.049978
37.35 	0.053463 	4938 	0.052751
37.37 	0.052770 	4927 	0.051681
37.39 	0.050091 	4931 	0.049497
37.41 	0.051511 	4931 	0.050917
37.43 	0.051906 	4932 	0.051193
37.45 	0.051178 	4924 	0.050345
37.47 	0.052546 	4929 	0.051595
37.49 	0.051798 	4923 	0.051203
37.51 	0.048449 	4933 	0.048093
37.53 	0.051840 	4919 	0.050887
37.55 	0.046045 	4930 	0.045332
37.57 	0.047919 	4925 	0.047800
37.59 	0.056358 	4915 	0.055405
37.61 	0.051199 	4922 	0.050366
37.63 	0.044115 	4919 	0.043281
37.65 	0.051240 	4918 	0.050645
37.67 	0.057096 	4904 	0.056857
37.69 	0.050429 	4898 	0.049711
37.71 	0.050314 	4929 	0.049601
37.73 	0.053561 	4929 	0.052966
37.75 	0.053441 	4940 	0.052611
37.77 	0.053862 	4920 	0.053147
37.79 	0.051927 	4930 	0.051333
37.81 	0.049057 	4933 	0.048582
37.83 	0.051829 	4920 	0.050877
37.85 	0.055059 	4922 	0.054226
37.87 	0.048795 	4939 	0.048321
37.89 	0.048325 	4925 	0.047254
37.91 	0.055578 	4930 	0.054509
37.93 	0.049604 	4919 	0.048770
37.95 	0.055477 	4921 	0.055119
37.97 	0.051938 	4929 	0.050462
37.99 	0.049674 	4912 	0.048601
38.01 	0.057427 	4928 	0.056001
38.03 	0.055001 	4909 	0.054046
38.05 	0.054822 	4925 	0.053752
38.07 	0.051334 	4909 	0.050618
38.09 	0.055351 	4878 	0.054510
38.11 	0.055927 	4935 	0.054977
38.13 	0.051043 	4937 	0.050569
38.15 	0.048597 	4918 	0.047882
38.17 	0.052333 	4930 	0.051620
38.19 	0.055172 	4930 	0.053984
38.21 	0.049766 	4923 	0.049290
38.23 	0.055691 	4938 	0.054742
38.25 	0.052674 	4917 	0.051721
38.27 	0.052535 	4930 	0.052060
38.29 	0.056661 	4924 	0.055947
38.31 	0.057033 	4927 	0.056082
38.33 	0.057880 	4924 	0.056928
38.35 	0.057427 	4928 	0.056476
38.37 	0.057677 	4924 	0.057201
38.39 	0.056020 	4909 	0.055065
38.41 	0.056673 	4923 	0.055959
38.43 	0.064076 	4916 	0.063123
38.45 	0.060797 	4918 	0.059844
38.47 	0.056450 	4907 	0.055853
38.49 	0.058438 	4877 	0.057597
38.51 	0.063666 	4932 	0.062221
38.53 	0.059647 	4929 	0.058577
38.55 	0.069287 	4936 	0.067863
38.57 	0.058298 	4923 	0.057227
38.59 	0.062348 	4924 	0.061515
38.61 	0.055308 	4936 	0.054596
38.63 	0.056458 	4924 	0.055863
38.65 	0.055307 	4918 	0.054592
38.67 	0.051246 	4937 	0.050415
38.69 	0.056278 	4922 	0.055207
38.71 	0.056255 	4924 	0.055184
38.73 	0.051037 	4918 	0.050203
38.75 	0.058047 	4927 	0.057215
38.77 	0.055048 	4923 	0.054453
38.79 	0.054317 	4934 	0.053486
38.81 	0.051099 	4912 	0.050265
38.83 	0.052450 	4919 	0.051497
38.85 	0.051914 	4912 	0.051317
38.87 	0.050092 	4911 	0.049734
38.89 	0.054115 	4897 	0.053397
38.91 	0.055884 	4903 	0.055048
38.93 	0.047995 	4938 	0.047165
38.95 	0.052054 	4918 	0.051220
38.97 	0.048672 	4931 	0.048078
38.99 	0.054892 	4937 	0.053705
39.01 	0.049004 	4918 	0.047813
39.03 	0.055330 	4934 	0.054737
39.05 	0.045482 	4925 	0.044531
39.07 	0.051178 	4924 	0.050226
39.09 	0.045907 	4923 	0.045550
39.11 	0.048469 	4931 	0.048231
39.13 	0.048548 	4923 	0.047715
39.15 	0.050051 	4915 	0.049336
39.17 	0.048005 	4937 	0.047768
39.19 	0.045963 	4917 	0.045129
39.21 	0.049695 	4910 	0.048740
39.23 	0.046091 	4925 	0.045021
39.25 	0.047338 	4922 	0.046743
39.27 	0.047047 	4910 	0.045973
39.29 	0.041420 	4901 	0.040464
39.31 	0.046683 	4884 	0.046323
39.33 	0.047049 	4931 	0.046455
39.35 	0.044174 	4935 	0.043324
39.37 	0.047677 	4929 	0.046845
39.39 	0.050314 	4929 	0.049344
39.41 	0.045832 	4931 	0.045001
39.43 	0.049260 	4933 	0.048429
39.45 	0.043249 	4925 	0.042654
39.47 	0.045501 	4923 	0.044906
39.49 	0.053517 	4933 	0.052567
39.51 	0.047319 	4924 	0.046962
39.53 	0.049766 	4923 	0.048795
39.55 	0.047977 	4919 	0.047501
39.57 	0.048855 	4933 	0.048261
39.59 	0.047231 	4912 	0.046635
39.61 	0.048141 	4923 	0.047546
39.63 	0.046932 	4922 	0.046099
39.65 	0.049736 	4926 	0.048904
39.67 	0.052310 	4913 	0.051714
39.69 	0.045769 	4916 	0.045531
39.71 	0.044331 	4895 	0.044092
39.73 	0.050530 	4908 	0.049933
39.75 	0.052760 	4928 	0.052403
39.77 	0.050456 	4935 	0.049862
39.79 	0.046894 	4926 	0.045824
39.81 	0.049320 	4927 	0.048607
39.83 	0.046210 	4934 	0.046091
39.85 	0.048508 	4927 	0.047676
39.87 	0.042640 	4925 	0.042164
39.89 	0.049250 	4934 	0.048775
39.91 	0.041447 	4922 	0.040732
39.93 	0.049423 	4937 	0.048829
39.95 	0.046592 	4915 	0.045758
39.97 	0.046672 	4928 	0.045721
39.99 	0.049676 	4932 	0.049200
40.01 	0.044327 	4918 	0.043831
40.03 	0.048093 	4928 	0.047617
40.05 	0.053691 	4917 	0.053096
40.07 	0.047735 	4923 	0.046902
40.09 	0.054516 	4916 	0.053563
40.11 	0.040887 	4916 	0.040410
40.13 	0.049632 	4896 	0.048675
40.15 	0.047425 	4913 	0.046591
40.17 	0.047484 	4928 	0.046771
40.19 	0.049300 	4929 	0.048825
40.21 	0.047011 	4935 	0.046398
40.23 	0.041971 	4932 	0.041733
40.25 	0.044715 	4920 	0.044001
40.27 	0.042941 	4937 	0.041992
40.29 	0.046885 	4927 	0.046528
40.31 	0.046568 	4939 	0.046568
40.33 	0.046026 	4932 	0.045195
40.35 	0.040455 	4919 	0.039979
40.37 	0.042402 	4929 	0.041570
40.39 	0.046644 	4931 	0.046050
40.41 	0.045888 	4925 	0.045413
40.43 	0.045916 	4922 	0.045083
40.45 	0.045814 	4933 	0.045339
40.47 	0.049410 	4918 	0.048934
40.49 	0.051969 	4926 	0.051493
40.51 	0.046323 	4922 	0.045013
40.53 	0.042718 	4916 	0.042003
40.55 	0.045232 	4908 	0.044497
40.57 	0.043967 	4890 	0.043608
40.59 	0.048005 	4937 	0.047293
40.61 	0.042148 	4935 	0.041436
40.63 	0.049087 	4930 	0.048137
40.65 	0.049423 	4937 	0.049067
40.67 	0.044201 	4932 	0.043607
40.69 	0.040916 	4937 	0.040797
40.71 	0.047445 	4932 	0.046851
40.73 	0.045067 	4926 	0.044710
40.75 	0.042791 	4931 	0.042315
40.77 	0.051225 	4939 	0.050395
40.79 	0.045695 	4924 	0.045100
40.81 	0.039061 	4941 	0.038350
40.83 	0.044440 	4928 	0.043964
40.85 	0.047116 	4924 	0.046521
40.87 	0.049107 	4928 	0.048018
40.89 	0.046238 	4931 	0.045169
40.91 	0.046719 	4923 	0.046006
40.93 	0.047426 	4934 	0.046832
40.95 	0.044372 	4913 	0.043537
40.97 	0.042242 	4924 	0.041766
40.99 	0.045695 	4924 	0.045219
41.01 	0.045603 	4912 	0.044649
41.03 	0.050153 	4905 	0.049197
41.05 	0.046394 	4936 	0.045563
41.07 	0.041785 	4930 	0.041191
41.09 	0.044746 	4939 	0.044271
41.11 	0.041945 	4935 	0.041589
41.13 	0.047407 	4936 	0.046932
41.15 	0.040073 	4941 	0.039717
41.17 	0.048439 	4934 	0.047727
41.19 	0.046653 	4930 	0.045940
41.21 	0.049423 	4937 	0.048829
41.23 	0.041101 	4939 	0.040746
41.25 	0.045206 	4933 	0.044968
41.27 	0.046441 	4931 	0.045609
41.29 	0.047281 	4928 	0.046568
41.31 	0.044395 	4933 	0.043564
41.33 	0.047600 	4937 	0.047006
41.35 	0.040705 	4938 	0.040349
41.37 	0.045288 	4924 	0.044575
41.39 	0.043989 	4933 	0.043752
41.41 	0.042428 	4926 	0.041714
41.43 	0.038344 	4929 	0.037631
41.45 	0.047009 	4914 	0.046174
41.47 	0.042022 	4926 	0.041427
41.49 	0.038839 	4892 	0.038001
41.51 	0.042308 	4940 	0.042071
41.53 	0.044498 	4944 	0.043551
41.55 	0.044377 	4935 	0.043546
41.57 	0.040073 	4941 	0.039480
41.59 	0.042165 	4933 	0.041571
41.61 	0.045427 	4953 	0.044461
41.63 	0.038072 	4938 	0.037598
41.65 	0.051329 	4929 	0.050972
41.67 	0.043927 	4940 	0.042860
41.69 	0.043461 	4947 	0.042987
41.71 	0.047831 	4934 	0.047594
41.73 	0.040924 	4936 	0.040568
41.75 	0.041996 	4929 	0.041026
41.77 	0.041490 	4941 	0.040897
41.79 	0.043487 	4944 	0.043132
41.81 	0.041126 	4936 	0.041008
41.83 	0.041802 	4928 	0.041089
41.85 	0.041911 	4939 	0.041556
41.87 	0.042553 	4935 	0.041722
41.89 	0.046625 	4933 	0.046387
41.91 	0.046799 	4936 	0.046087
41.93 	0.045418 	4932 	0.044943
41.95 	0.043196 	4931 	0.042721
41.97 	0.041107 	4914 	0.040630
41.99 	0.040163 	4905 	0.039685
42.01 	0.045123 	4942 	0.044531
42.03 	0.044948 	4939 	0.044355
42.05 	0.044023 	4952 	0.043668
42.07 	0.038282 	4937 	0.038045
42.09 	0.044665 	4948 	0.044191
42.11 	0.038220 	4945 	0.037865
42.13 	0.038220 	4945 	0.038102
42.15 	0.042932 	4938 	0.042458
42.17 	0.038227 	4918 	0.037870
42.19 	0.034026 	4908 	0.033907
42.21 	0.042032 	4901 	0.041315
42.23 	0.040065 	4892 	0.039706
42.25 	0.039272 	4889 	0.039152
42.27 	0.039598 	4874 	0.039237
42.29 	0.039893 	4863 	0.039291
42.31 	0.041607 	4855 	0.041124
42.33 	0.042408 	4834 	0.041923
42.35 	0.042786 	4838 	0.042302
42.37 	0.043685 	4830 	0.043321
42.39 	0.038926 	4804 	0.038560
42.41 	0.042048 	4804 	0.041926
42.43 	0.041110 	4792 	0.040743
42.45 	0.046901 	4776 	0.046288
42.47 	0.041133 	4765 	0.040642
42.49 	0.041133 	4765 	0.040396
42.51 	0.042378 	4743 	0.041864
42.53 	0.041032 	4728 	0.040660
42.55 	0.037171 	4708 	0.036673
42.57 	0.040169 	4730 	0.039921
42.59 	0.041446 	4729 	0.041075
42.61 	0.039295 	4708 	0.038673
42.63 	0.039286 	4709 	0.038291
42.65 	0.040555 	4685 	0.039805
42.67 	0.042912 	4684 	0.042537
42.69 	0.042576 	4674 	0.041949
42.71 	0.045893 	4663 	0.044888
42.73 	0.043103 	4640 	0.042704
42.75 	0.040936 	4617 	0.040555
42.77 	0.040217 	4600 	0.039453
42.79 	0.041903 	4582 	0.041392
42.81 	0.046909 	4562 	0.046396
42.83 	0.040564 	4536 	0.039790
42.85 	0.037323 	4528 	0.036935
42.87 	0.045566 	4499 	0.045175
42.89 	0.040848 	4480 	0.040194
42.91 	0.041966 	4456 	0.041046
42.93 	0.045434 	4446 	0.044907
42.95 	0.046649 	4416 	0.046383
42.97 	0.042036 	4401 	0.041637
42.99 	0.043330 	4385 	0.042239
43.01 	0.039881 	4363 	0.039612
43.03 	0.038772 	4333 	0.038367
43.05 	0.048092 	4325 	0.047551
43.07 	0.033985 	4296 	0.033576
43.09 	0.043894 	4283 	0.043211
43.11 	0.041363 	4255 	0.040812
43.13 	0.038471 	4237 	0.038194
43.15 	0.038041 	4206 	0.037623
43.17 	0.042115 	4179 	0.041414
43.19 	0.038865 	4194 	0.038446
43.21 	0.043624 	4172 	0.043343
43.23 	0.040443 	4154 	0.040020
43.25 	0.044982 	4135 	0.044274
43.27 	0.038733 	4105 	0.038448
43.29 	0.038293 	4100 	0.037721
43.31 	0.038735 	4079 	0.038591
43.33 	0.038262 	4051 	0.038118
43.35 	0.041171 	4032 	0.040880
43.37 	0.043337 	4015 	0.042754
43.39 	0.037481 	4002 	0.037042
43.41 	0.040785 	3972 	0.040343
43.43 	0.040152 	3960 	0.039708
43.45 	0.042440 	3935 	0.041373
43.47 	0.034940 	3921 	0.034342
43.49 	0.041570 	3897 	0.041119
43.51 	0.042301 	3877 	0.042301
43.53 	0.047631 	3863 	0.047176
43.55 	0.035762 	2964 	0.035565
43.57 	0.043789 	2238 	0.043004
43.59 	0.042383 	1746 	0.041712
43.61 	0.043671 	1351 	0.042804
43.63 	0.049950 	1001 	0.049950
43.65 	0.042213 	687 	0.040507
43.67 	0.025896 	502 	0.025896
43.69 	0.054496 	367 	0.054496
43.71 	0.041841 	239 	0.041841
43.73 	0.016667 	120 	0.016667
43.75 	0.000000 	16 	0.000000