File: Example_Data/25SC_s1_0003.000.dat
#F C:\frames\spec\25SC_s1_0003.000
#C title =s:3 frm:0 25SC_s1
#C wavelength =0.15406

#S 1  fr_average C:\frames\spec\25SC_s1_0003.000 C:\win32app\speccom\mask.axs chi 0 180 0 360 0.02
#C 2 theta =0.000000 to 180 deg
#C   q   =0.000000 to 81.568 nm^-1
#C  chi  =0.000000 to 360 deg
#C collumns:
#C  1 position (2theta or chi in degrees)
#C  2 average intensity (sum of all counts in the region divided with number of pixels)
#C  3 Number of pixels in region)
#C  4 error (sum of sqrt(intensity) for all pixels divided by number)
#N 4
#L TTh  Int  N_pix  Err
32.99 	0.065574 	61 	0.055971
33.01 	0.050401 	873 	0.050401
33.03 	0.053918 	1391 	0.053076
33.05 	0.054069 	1757 	0.053403
33.07 	0.053171 	2050 	0.052599
33.09 	0.068172 	2347 	0.066924
33.11 	0.066305 	2579 	0.064942
33.13 	0.065879 	2793 	0.065006
33.15 	0.052684 	2999 	0.051708
33.17 	0.060294 	3201 	0.059196
33.19 	0.055655 	3342 	0.054954
33.21 	0.070431 	3436 	0.068726
33.23 	0.060744 	3523 	0.059413
33.25 	0.054817 	3612 	0.053844
33.27 	0.054270 	3630 	0.053140
33.29 	0.067982 	3648 	0.066698
33.31 	0.057104 	3660 	0.056277
33.33 	0.066739 	3686 	0.065944
33.35 	0.060368 	3694 	0.059100
33.37 	0.062197 	3714 	0.061093
33.39 	0.065433 	3729 	0.064019
33.41 	0.064438 	3740 	0.063655
33.43 	0.064876 	3761 	0.063163
33.45 	0.057779 	3773 	0.057003
33.47 	0.057135 	3798 	0.056364
33.49 	0.062484 	3809 	0.061715
33.51 	0.062123 	3815 	0.061202
33.53 	0.066389 	3841 	0.064864
33.55 	0.067916 	3843 	0.066544
33.57 	0.062935 	3877 	0.061878
33.59 	0.057732 	3880 	0.056373
33.61 	0.060629 	3909 	0.059281
33.63 	0.058178 	3919 	0.056808
33.65 	0.061308 	3931 	0.060562
33.67 	0.056146 	3954 	0.054664
33.69 	0.062990 	3953 	0.062101
33.71 	0.055094 	3975 	0.053915
33.73 	0.058192 	4004 	0.056875
33.75 	0.066017 	3999 	0.064674
33.77 	0.058137 	4025 	0.057263
33.79 	0.056422 	4041 	0.054972
33.81 	0.056216 	4038 	0.055491
33.83 	0.060247 	4050 	0.058511
33.85 	0.063430 	4099 	0.062287
33.87 	0.061299 	4111 	0.060017
33.89 	0.056297 	4121 	0.055586
33.91 	0.062184 	4149 	0.060913
33.93 	0.060708 	4151 	0.060003
33.95 	0.057163 	4181 	0.056323
33.97 	0.061814 	4190 	0.060835
33.99 	0.058571 	4200 	0.057572
34.01 	0.061239 	4213 	0.059849
34.03 	0.060556 	4244 	0.059728
34.05 	0.053622 	4252 	0.052795
34.07 	0.061153 	4268 	0.059598
34.09 	0.062529 	4286 	0.061572
34.11 	0.059275 	4302 	0.058866
34.13 	0.067317 	4308 	0.065527
34.15 	0.057262 	4331 	0.055909
34.17 	0.059080 	4350 	0.057286
34.19 	0.056625 	4362 	0.055685
34.21 	0.056509 	4371 	0.055303
34.23 	0.055771 	4393 	0.055104
34.25 	0.048592 	4404 	0.047661
34.27 	0.057666 	4422 	0.056452
34.29 	0.059977 	4435 	0.059449
34.31 	0.061238 	4458 	0.060187
34.33 	0.062178 	4471 	0.061130
34.35 	0.059768 	4484 	0.058070
34.37 	0.061234 	4491 	0.059799
34.39 	0.059529 	4502 	0.058488
34.41 	0.065400 	4526 	0.063847
34.43 	0.058383 	4539 	0.057480
34.45 	0.056229 	4535 	0.055454
34.47 	0.054225 	4592 	0.053204
34.49 	0.060039 	4597 	0.059275
34.51 	0.061224 	4606 	0.060313
34.53 	0.057721 	4643 	0.056586
34.55 	0.058152 	4643 	0.057269
34.57 	0.059657 	4660 	0.058379
34.59 	0.060963 	4675 	0.060336
34.61 	0.054929 	4697 	0.054555
34.63 	0.054352 	4710 	0.052984
34.65 	0.060792 	4721 	0.059675
34.67 	0.059481 	4741 	0.057875
34.69 	0.053429 	4754 	0.052299
34.71 	0.058330 	4766 	0.057347
34.73 	0.060999 	4787 	0.059510
34.75 	0.065724 	4808 	0.064505
34.77 	0.052304 	4818 	0.051574
34.79 	0.052446 	4824 	0.051718
34.81 	0.056966 	4845 	0.055757
34.83 	0.063143 	4862 	0.062159
34.85 	0.057917 	4869 	0.057196
34.87 	0.058546 	4868 	0.057703
34.89 	0.061860 	4882 	0.060540
34.91 	0.057763 	4882 	0.057163
34.93 	0.058583 	4899 	0.057507
34.95 	0.056851 	4890 	0.056252
34.97 	0.057936 	4902 	0.057577
34.99 	0.063917 	4897 	0.063319
35.01 	0.050579 	4923 	0.049865
35.03 	0.060085 	4943 	0.059018
35.05 	0.057004 	4947 	0.055820
35.07 	0.064777 	4940 	0.064066
35.09 	0.059560 	4953 	0.058614
35.11 	0.056398 	4947 	0.055806
35.13 	0.057483 	4958 	0.056656
35.15 	0.063196 	4937 	0.061891
35.17 	0.060655 	4946 	0.059826
35.19 	0.055038 	4942 	0.054683
35.21 	0.058241 	4945 	0.057411
35.23 	0.066127 	4945 	0.064824
35.25 	0.059478 	4943 	0.058648
35.27 	0.059620 	4948 	0.058180
35.29 	0.050354 	4945 	0.049880
35.31 	0.060612 	4933 	0.059425
35.33 	0.059276 	4943 	0.057834
35.35 	0.055848 	4942 	0.054781
35.37 	0.058514 	4939 	0.058039
35.39 	0.062892 	4945 	0.061470
35.41 	0.061104 	4926 	0.060272
35.43 	0.066694 	4933 	0.064794
35.45 	0.066640 	4937 	0.065078
35.47 	0.061042 	4931 	0.059617
35.49 	0.058656 	4910 	0.058179
35.51 	0.063134 	4926 	0.061588
35.53 	0.057587 	4949 	0.056503
35.55 	0.060263 	4945 	0.059059
35.57 	0.060815 	4933 	0.059746
35.59 	0.066330 	4945 	0.064553
35.61 	0.058681 	4942 	0.057495
35.63 	0.060894 	4943 	0.060183
35.65 	0.058241 	4945 	0.056464
35.67 	0.057669 	4942 	0.056464
35.69 	0.063688 	4946 	0.062740
35.71 	0.056107 	4937 	0.055632
35.73 	0.058347 	4936 	0.057516
35.75 	0.059623 	4931 	0.058554
35.77 	0.060392 	4951 	0.059189
35.79 	0.056164 	4932 	0.055570
35.81 	0.060612 	4933 	0.059662
35.83 	0.056814 	4946 	0.055866
35.85 	0.055319 	4935 	0.053776
35.87 	0.060126 	4923 	0.058460
35.89 	0.052696 	4934 	0.051390
35.91 	0.059874 	4927 	0.058923
35.93 	0.058250 	4927 	0.057299
35.95 	0.060809 	4917 	0.059261
35.97 	0.058428 	4912 	0.057713
35.99 	0.069447 	4939 	0.067905
36.01 	0.063286 	4930 	0.061603
36.03 	0.063120 	4943 	0.061204
36.05 	0.056623 	4945 	0.055557
36.07 	0.062968 	4939 	0.062257
36.09 	0.055466 	4940 	0.054398
36.11 	0.059647 	4929 	0.058696
36.13 	0.062323 	4942 	0.061375
36.15 	0.064183 	4939 	0.063234
36.17 	0.065584 	4925 	0.064513
36.19 	0.061943 	4940 	0.060402
36.21 	0.063907 	4929 	0.062838
36.23 	0.064438 	4935 	0.063369
36.25 	0.060109 	4941 	0.058687
36.27 	0.065178 	4925 	0.063969
36.29 	0.059623 	4931 	0.058672
36.31 	0.062094 	4928 	0.061500
36.33 	0.061626 	4933 	0.061270
36.35 	0.061676 	4929 	0.060725
36.37 	0.062767 	4923 	0.061220
36.39 	0.063808 	4921 	0.062856
36.41 	0.055351 	4896 	0.054035
36.43 	0.057630 	4928 	0.056441
36.45 	0.070791 	4930 	0.068890
36.47 	0.060373 	4936 	0.059067
36.49 	0.059288 	4942 	0.057984
36.51 	0.064261 	4933 	0.062817
36.53 	0.066559 	4943 	0.065137
36.55 	0.063325 	4927 	0.062492
36.57 	0.060600 	4934 	0.059531
36.59 	0.056489 	4939 	0.055185
36.61 	0.065098 	4931 	0.064029
36.63 	0.062462 	4931 	0.061512
36.65 	0.065491 	4932 	0.064540
36.67 	0.061460 	4930 	0.059777
36.69 	0.061676 	4929 	0.060487
36.71 	0.058728 	4921 	0.057538
36.73 	0.065584 	4925 	0.064632
36.75 	0.061286 	4944 	0.060457
36.77 	0.062818 	4919 	0.061369
36.79 	0.065840 	4921 	0.064174
36.81 	0.064890 	4916 	0.063699
36.83 	0.057172 	4915 	0.055722
36.85 	0.060841 	4898 	0.059645
36.87 	0.068972 	4944 	0.067432
36.89 	0.060212 	4916 	0.058543
36.91 	0.066990 	4941 	0.065331
36.93 	0.063895 	4930 	0.062706
36.95 	0.060207 	4933 	0.059019
36.97 	0.057965 	4934 	0.057253
36.99 	0.061803 	4935 	0.060379
37.01 	0.058585 	4933 	0.058110
37.03 	0.058895 	4924 	0.058300
37.05 	0.061701 	4927 	0.060631
37.07 	0.055927 	4935 	0.055334
37.09 	0.062297 	4928 	0.060752
37.11 	0.067882 	4935 	0.066557
37.13 	0.060723 	4924 	0.060009
37.15 	0.065798 	4909 	0.064962
37.17 	0.056546 	4934 	0.055834
37.19 	0.062538 	4925 	0.061230
37.21 	0.061013 	4917 	0.059464
37.23 	0.061407 	4918 	0.060335
37.25 	0.057829 	4911 	0.056994
37.27 	0.066408 	4894 	0.064593
37.29 	0.054970 	4930 	0.053900
37.31 	0.057548 	4935 	0.056698
37.33 	0.051756 	4927 	0.050923
37.35 	0.059133 	4938 	0.058421
37.37 	0.063325 	4927 	0.062255
37.39 	0.056784 	4931 	0.055714
37.41 	0.055567 	4931 	0.055092
37.43 	0.061841 	4932 	0.061010
37.45 	0.058692 	4924 	0.057859
37.47 	0.055792 	4929 	0.054960
37.49 	0.058298 	4923 	0.057584
37.51 	0.062234 	4933 	0.061759
37.53 	0.062614 	4919 	0.060352
37.55 	0.056187 	4930 	0.055474
37.57 	0.056853 	4925 	0.056258
37.59 	0.052289 	4915 	0.051574
37.61 	0.059122 	4922 	0.057794
37.63 	0.054076 	4919 	0.053104
37.65 	0.058967 	4918 	0.057538
37.67 	0.056077 	4904 	0.054643
37.69 	0.057166 	4898 	0.056568
37.71 	0.051532 	4929 	0.050938
37.73 	0.060661 	4929 	0.060305
37.75 	0.057287 	4940 	0.056220
37.77 	0.051829 	4920 	0.051591
37.79 	0.054564 	4930 	0.053613
37.81 	0.054125 	4933 	0.053294
37.83 	0.062195 	4920 	0.061104
37.85 	0.048964 	4922 	0.047893
37.87 	0.058716 	4939 	0.057748
37.89 	0.053604 	4925 	0.052771
37.91 	0.054564 	4930 	0.053257
37.93 	0.049604 	4919 	0.049008
37.95 	0.057305 	4921 	0.056334
37.97 	0.058227 	4929 	0.057157
37.99 	0.054153 	4912 	0.053557
38.01 	0.059456 	4928 	0.058386
38.03 	0.056223 	4909 	0.054294
38.05 	0.060914 	4925 	0.060081
38.07 	0.054186 	4909 	0.053709
38.09 	0.058221 	4878 	0.057360
38.11 	0.054711 	4935 	0.053999
38.13 	0.061373 	4937 	0.060405
38.15 	0.055307 	4918 	0.054831
38.17 	0.057606 	4930 	0.056518
38.19 	0.060041 	4930 	0.059289
38.21 	0.062970 	4923 	0.061661
38.23 	0.058931 	4938 	0.057507
38.25 	0.058572 	4917 	0.057480
38.27 	0.060243 	4930 	0.058936
38.29 	0.068237 	4924 	0.067404
38.31 	0.069616 	4927 	0.068170
38.33 	0.072502 	4924 	0.071193
38.35 	0.076299 	4928 	0.074753
38.37 	0.081844 	4924 	0.080060
38.39 	0.077409 	4909 	0.075480
38.41 	0.078204 	4923 	0.076657
38.43 	0.083401 	4916 	0.081852
38.45 	0.079097 	4918 	0.077668
38.47 	0.087222 	4907 	0.085074
38.49 	0.079762 	4877 	0.077700
38.51 	0.082320 	4932 	0.080300
38.53 	0.081152 	4929 	0.079370
38.55 	0.083063 	4936 	0.081026
38.57 	0.082470 	4923 	0.081161
38.59 	0.079001 	4924 	0.077811
38.61 	0.076378 	4936 	0.074677
38.63 	0.071284 	4924 	0.069380
38.65 	0.069540 	4918 	0.067715
38.67 	0.066235 	4937 	0.064673
38.69 	0.067046 	4922 	0.065618
38.71 	0.068643 	4924 	0.067196
38.73 	0.058764 	4918 	0.057077
38.75 	0.060280 	4927 	0.059567
38.77 	0.059720 	4923 	0.058768
38.79 	0.056749 	4934 	0.055681
38.81 	0.055578 	4912 	0.054724
38.83 	0.056516 	4919 	0.055801
38.85 	0.051507 	4912 	0.050791
38.87 	0.050092 	4911 	0.049615
38.89 	0.048193 	4897 	0.047355
38.91 	0.054049 	4903 	0.053332
38.93 	0.044552 	4938 	0.044315
38.95 	0.048597 	4918 	0.047525
38.97 	0.048469 	4931 	0.047994
38.99 	0.054081 	4937 	0.053014
39.01 	0.051240 	4918 	0.050168
39.03 	0.045602 	4934 	0.045008
39.05 	0.050355 	4925 	0.049761
39.07 	0.051584 	4924 	0.050870
39.09 	0.043469 	4923 	0.042993
39.11 	0.048672 	4931 	0.047721
39.13 	0.053220 	4923 	0.052030
39.15 	0.046389 	4915 	0.046031
39.17 	0.052056 	4937 	0.051344
39.19 	0.041692 	4917 	0.041096
39.21 	0.050509 	4910 	0.050032
39.23 	0.043249 	4925 	0.042535
39.25 	0.047135 	4922 	0.046778
39.27 	0.049084 	4910 	0.048726
39.29 	0.047337 	4901 	0.046262
39.31 	0.045045 	4884 	0.044565
39.33 	0.041168 	4931 	0.040337
39.35 	0.045187 	4935 	0.044831
39.37 	0.044431 	4929 	0.043599
39.39 	0.045851 	4929 	0.045118
39.41 	0.049280 	4931 	0.048686
39.43 	0.046017 	4933 	0.045423
39.45 	0.039391 	4925 	0.039153
39.47 	0.047329 	4923 	0.046853
39.49 	0.047030 	4933 	0.046436
39.51 	0.048132 	4924 	0.047398
39.53 	0.047735 	4923 	0.047259
39.55 	0.044521 	4919 	0.043807
39.57 	0.049260 	4933 	0.048429
39.59 	0.044992 	4912 	0.044634
39.61 	0.045704 	4923 	0.044990
39.63 	0.045104 	4922 	0.044271
39.65 	0.046691 	4926 	0.046096
39.67 	0.047629 	4913 	0.047152
39.69 	0.045972 	4916 	0.044542
39.71 	0.050868 	4895 	0.050390
39.73 	0.044417 	4908 	0.044179
39.75 	0.043019 	4928 	0.042663
39.77 	0.044580 	4935 	0.044342
39.79 	0.051157 	4926 	0.049730
39.81 	0.044246 	4927 	0.043176
39.83 	0.047223 	4934 	0.046511
39.85 	0.048508 	4927 	0.048033
39.87 	0.046091 	4925 	0.045497
39.89 	0.046007 	4934 	0.045651
39.91 	0.046526 	4922 	0.045693
39.93 	0.043549 	4937 	0.043430
39.95 	0.046796 	4915 	0.045961
39.97 	0.042005 	4928 	0.041411
39.99 	0.039132 	4932 	0.038895
40.01 	0.043920 	4918 	0.042948
40.03 	0.044440 	4928 	0.043846
40.05 	0.046573 	4917 	0.045977
40.07 	0.049766 	4923 	0.049052
40.09 	0.045566 	4916 	0.044970
40.11 	0.045566 	4916 	0.044116
40.13 	0.041871 	4896 	0.040794
40.15 	0.044983 	4913 	0.043910
40.17 	0.045049 	4928 	0.044573
40.19 	0.040779 	4929 	0.039690
40.21 	0.045187 	4935 	0.044357
40.23 	0.038321 	4932 	0.037846
40.25 	0.041260 	4920 	0.040546
40.27 	0.043954 	4937 	0.042886
40.29 	0.041405 	4927 	0.041167
40.31 	0.044543 	4939 	0.043456
40.33 	0.038727 	4932 	0.038252
40.35 	0.041878 	4919 	0.041759
40.37 	0.040576 	4929 	0.040338
40.39 	0.042182 	4931 	0.041945
40.41 	0.048325 	4925 	0.047373
40.43 	0.045916 	4922 	0.045678
40.45 	0.039327 	4933 	0.038496
40.47 	0.044327 	4918 	0.043851
40.49 	0.046082 	4926 	0.045487
40.51 	0.040634 	4922 	0.039563
40.53 	0.044548 	4916 	0.043714
40.55 	0.044214 	4908 	0.043855
40.57 	0.043558 	4890 	0.042959
40.59 	0.046992 	4937 	0.046517
40.61 	0.043161 	4935 	0.042449
40.63 	0.048682 	4930 	0.047949
40.65 	0.036864 	4937 	0.036509
40.67 	0.038929 	4932 	0.038573
40.69 	0.044764 	4937 	0.043795
40.71 	0.042782 	4932 	0.042307
40.73 	0.043443 	4926 	0.043205
40.75 	0.043602 	4931 	0.043008
40.77 	0.045556 	4939 	0.044963
40.79 	0.041430 	4924 	0.040835
40.81 	0.043716 	4941 	0.043242
40.83 	0.044643 	4928 	0.044167
40.85 	0.039399 	4924 	0.038447
40.87 	0.046875 	4928 	0.046162
40.89 	0.049280 	4931 	0.048448
40.91 	0.047938 	4923 	0.047462
40.93 	0.045805 	4934 	0.044974
40.95 	0.046611 	4913 	0.045896
40.97 	0.044070 	4924 	0.043594
40.99 	0.042445 	4924 	0.041850
41.01 	0.046621 	4912 	0.046621
41.03 	0.043017 	4905 	0.042181
41.05 	0.043558 	4936 	0.043202
41.07 	0.048073 	4930 	0.047479
41.09 	0.040292 	4939 	0.039936
41.11 	0.044580 	4935 	0.044105
41.13 	0.038898 	4936 	0.038542
41.15 	0.044728 	4941 	0.044491
41.17 	0.039522 	4934 	0.039284
41.19 	0.041785 	4930 	0.040716
41.21 	0.043549 	4937 	0.042955
41.23 	0.040494 	4939 	0.040257
41.25 	0.042773 	4933 	0.042061
41.27 	0.045021 	4931 	0.044190
41.29 	0.045049 	4928 	0.044811
41.31 	0.044192 	4933 	0.043242
41.33 	0.043144 	4937 	0.043025
41.35 	0.042325 	4938 	0.041850
41.37 	0.047725 	4924 	0.047131
41.39 	0.044598 	4933 	0.044004
41.41 	0.042428 	4926 	0.041833
41.43 	0.042199 	4929 	0.041843
41.45 	0.044770 	4914 	0.044412
41.47 	0.044661 	4926 	0.044066
41.49 	0.039657 	4892 	0.039297
41.51 	0.046154 	4940 	0.045917
41.53 	0.045307 	4944 	0.044597
41.55 	0.037487 	4935 	0.037250
41.57 	0.040882 	4941 	0.040527
41.59 	0.042976 	4933 	0.042738
41.61 	0.044821 	4953 	0.044329
41.63 	0.040502 	4938 	0.040265
41.65 	0.046865 	4929 	0.046034
41.67 	0.040891 	4940 	0.040416
41.69 	0.040429 	4947 	0.040073
41.71 	0.039724 	4934 	0.039606
41.73 	0.038493 	4936 	0.038137
41.75 	0.038547 	4929 	0.038072
41.77 	0.042299 	4941 	0.041943
41.79 	0.039846 	4944 	0.039116
41.81 	0.042139 	4936 	0.041902
41.83 	0.038352 	4928 	0.038233
41.85 	0.041911 	4939 	0.041556
41.87 	0.045187 	4935 	0.044594
41.89 	0.038313 	4933 	0.038195
41.91 	0.039708 	4936 	0.039352
41.93 	0.042985 	4932 	0.042153
41.95 	0.047049 	4931 	0.046099
41.97 	0.041718 	4914 	0.041002
41.99 	0.042610 	4905 	0.041774
42.01 	0.042493 	4942 	0.042256
42.03 	0.041304 	4939 	0.040948
42.05 	0.034733 	4952 	0.034260
42.07 	0.040916 	4937 	0.040678
42.09 	0.042037 	4948 	0.041208
42.11 	0.038827 	4945 	0.038590
42.13 	0.040849 	4945 	0.040731
42.15 	0.037870 	4938 	0.037751
42.17 	0.039854 	4918 	0.039238
42.19 	0.037897 	4908 	0.037659
42.21 	0.043665 	4901 	0.043306
42.23 	0.040679 	4892 	0.040319
42.25 	0.038045 	4889 	0.037446
42.27 	0.041855 	4874 	0.041855
42.29 	0.042566 	4863 	0.042325
42.31 	0.041195 	4855 	0.040712
42.33 	0.036616 	4834 	0.036131
42.35 	0.038446 	4838 	0.038203
42.37 	0.043271 	4830 	0.042665
42.39 	0.043297 	4804 	0.042668
42.41 	0.039342 	4804 	0.038976
42.43 	0.041319 	4792 	0.040708
42.45 	0.038735 	4776 	0.037999
42.47 	0.040294 	4765 	0.040048
42.49 	0.042183 	4765 	0.041445
42.51 	0.040481 	4743 	0.040110
42.53 	0.043147 	4728 	0.042899
42.55 	0.041631 	4708 	0.041258
42.57 	0.037632 	4730 	0.037261
42.59 	0.040178 	4729 	0.039930
42.61 	0.042268 	4708 	0.041771
42.63 	0.041835 	4709 	0.041088
42.65 	0.037353 	4685 	0.036978
42.67 	0.043339 	4684 	0.042839
42.69 	0.039795 	4674 	0.039669
42.71 	0.038173 	4663 	0.037419
42.73 	0.042457 	4640 	0.041447
42.75 	0.037037 	4617 	0.036783
42.77 	0.037174 	4600 	0.036792
42.79 	0.037975 	4582 	0.037719
42.81 	0.035072 	4562 	0.034687
42.83 	0.042328 	4536 	0.042199
42.85 	0.035998 	4528 	0.035610
42.87 	0.036897 	4499 	0.036506
42.89 	0.038170 	4480 	0.037647
42.91 	0.041741 	4456 	0.041347
42.93 	0.039136 	4446 	0.038609
42.95 	0.042572 	4416 	0.041777
42.97 	0.036810 	4401 	0.036810
42.99 	0.036032 	4385 	0.035631
43.01 	0.039422 	4363 	0.038885
43.03 	0.036926 	4333 	0.036385
43.05 	0.036069 	4325 	0.035934
43.07 	0.034451 	4296 	0.034314
43.09 	0.038991 	4283 	0.038855
43.11 	0.039013 	4255 	0.038738
43.13 	0.040831 	4237 	0.040117
43.15 	0.041369 	4206 	0.040673
43.17 	0.043073 	4179 	0.042372
43.19 	0.039342 	4194 	0.038783
43.21 	0.039549 	4172 	0.038426
43.23 	0.041406 	4154 	0.040560
43.25 	0.038936 	4135 	0.038794
43.27 	0.038246 	4105 	0.037961
43.29 	0.038049 	4100 	0.037334
43.31 	0.034077 	4079 	0.033646
43.33 	0.034066 	4051 	0.033921
43.35 	0.037202 	4032 	0.036331
43.37 	0.043337 	4015 	0.042462
43.39 	0.039730 	4002 	0.039437
43.41 	0.038268 	3972 	0.037825
43.43 	0.042172 	3960 	0.041580
43.45 	0.040661 	3935 	0.040214
43.47 	0.047182 	3921 	0.046883
43.49 	0.038748 	3897 	0.038748
43.51 	0.043848 	3877 	0.042942
43.53 	0.041677 	3863 	0.040768
43.55 	0.035762 	2964 	0.035367
43.57 	0.035746 	2238 	0.035746
43.59 	0.041810 	1746 	0.040468
43.61 	0.034049 	1351 	0.034049
43.63 	0.033966 	1001 	0.033966
43.65 	0.039301 	687 	0.039301
43.67 	0.021912 	502 	0.020745
43.69 	0.046322 	367 	0.046322
43.71 	0.025105 	239 	0.025105
43.73 	0.025000 	120 	0.025000
43.75 	0.062500 	16 	0.062500