File: Example_Data/25SC_s1_0037.004.dat
#F C:\frames\spec\25SC_s1_0037.004
#C title =s:37 frm:4 25SC_s1
#C wavelength =0.15406

#S 1  fr_average C:\frames\spec\25SC_s1_0037.004 C:\win32app\speccom\mask.axs chi 0 180 0 360 0.02
#C 2 theta =0.000000 to 180 deg
#C   q   =0.000000 to 81.568 nm^-1
#C  chi  =0.000000 to 360 deg
#C collumns:
#C  1 position (2theta or chi in degrees)
#C  2 average intensity (sum of all counts in the region divided with number of pixels)
#C  3 Number of pixels in region)
#C  4 error (sum of sqrt(intensity) for all pixels divided by number)
#N 4
#L TTh  Int  N_pix  Err
32.99 	0.016393 	61 	0.016393
33.01 	0.054983 	873 	0.054312
33.03 	0.063264 	1391 	0.062000
33.05 	0.063745 	1757 	0.063412
33.07 	0.062439 	2050 	0.061868
33.09 	0.056668 	2347 	0.055670
33.11 	0.051183 	2579 	0.050501
33.13 	0.064089 	2793 	0.063669
33.15 	0.055352 	2999 	0.054766
33.17 	0.066229 	3201 	0.064948
33.19 	0.055057 	3342 	0.054005
33.21 	0.059371 	3436 	0.058689
33.23 	0.059892 	3523 	0.059061
33.25 	0.058140 	3612 	0.057004
33.27 	0.052617 	3630 	0.051649
33.29 	0.057018 	3648 	0.056215
33.31 	0.063115 	3660 	0.061354
33.33 	0.057515 	3686 	0.056720
33.35 	0.064429 	3694 	0.063002
33.37 	0.056274 	3714 	0.055643
33.39 	0.056584 	3729 	0.055327
33.41 	0.057754 	3740 	0.057284
33.43 	0.060888 	3761 	0.059954
33.45 	0.058839 	3773 	0.057727
33.47 	0.062401 	3798 	0.061450
33.49 	0.061171 	3809 	0.059633
33.51 	0.060550 	3815 	0.058554
33.53 	0.055715 	3841 	0.054800
33.55 	0.053864 	3843 	0.052492
33.57 	0.054166 	3877 	0.053410
33.59 	0.062113 	3880 	0.061660
33.61 	0.058071 	3909 	0.057172
33.63 	0.059454 	3919 	0.058557
33.65 	0.053930 	3931 	0.053012
33.67 	0.058169 	3954 	0.056984
33.69 	0.066026 	3953 	0.065581
33.71 	0.057862 	3975 	0.056977
33.73 	0.054695 	4004 	0.053793
33.75 	0.060765 	3999 	0.059593
33.77 	0.060373 	4025 	0.059645
33.79 	0.064093 	4041 	0.062910
33.81 	0.053492 	4038 	0.052912
33.83 	0.058272 	4050 	0.057115
33.85 	0.063430 	4099 	0.062287
33.87 	0.053028 	4111 	0.052458
33.89 	0.060908 	4121 	0.060197
33.91 	0.058809 	4149 	0.057539
33.93 	0.052277 	4151 	0.051006
33.95 	0.059077 	4181 	0.058656
33.97 	0.050119 	4190 	0.049840
33.99 	0.056905 	4200 	0.056068
34.01 	0.055305 	4213 	0.054749
34.03 	0.055137 	4244 	0.054447
34.05 	0.059501 	4252 	0.058262
34.07 	0.054592 	4268 	0.053357
34.09 	0.065096 	4286 	0.063570
34.11 	0.051604 	4302 	0.050787
34.13 	0.052925 	4308 	0.051973
34.15 	0.061187 	4331 	0.060646
34.17 	0.055172 	4350 	0.053691
34.19 	0.054104 	4362 	0.053276
34.21 	0.055136 	4371 	0.053930
34.23 	0.055998 	4393 	0.055198
34.25 	0.061308 	4404 	0.060377
34.27 	0.058797 	4422 	0.058400
34.29 	0.057723 	4435 	0.056402
34.31 	0.055855 	4458 	0.054803
34.33 	0.056587 	4471 	0.055932
34.35 	0.064005 	4484 	0.063744
34.37 	0.056112 	4491 	0.055439
34.39 	0.054420 	4502 	0.053379
34.41 	0.060097 	4526 	0.058932
34.43 	0.057061 	4539 	0.056287
34.45 	0.057332 	4535 	0.056299
34.47 	0.058798 	4592 	0.057395
34.49 	0.055036 	4597 	0.054250
34.51 	0.055145 	4606 	0.053746
34.53 	0.055568 	4643 	0.054811
34.55 	0.054706 	4643 	0.053444
34.57 	0.061373 	4660 	0.060745
34.59 	0.058610 	4675 	0.057733
34.61 	0.050032 	4697 	0.049408
34.63 	0.055414 	4710 	0.054668
34.65 	0.056979 	4721 	0.055490
34.67 	0.054419 	4741 	0.052936
34.69 	0.062684 	4754 	0.061822
34.71 	0.052665 	4766 	0.052173
34.73 	0.049927 	4787 	0.049193
34.75 	0.060316 	4808 	0.058834
34.77 	0.055625 	4818 	0.054895
34.79 	0.058250 	4824 	0.057400
34.81 	0.058824 	4845 	0.058461
34.83 	0.056972 	4862 	0.055868
34.85 	0.057712 	4869 	0.056750
34.87 	0.058546 	4868 	0.057463
34.89 	0.053462 	4882 	0.051642
34.91 	0.059812 	4882 	0.059332
34.93 	0.055522 	4899 	0.054206
34.95 	0.053988 	4890 	0.053509
34.97 	0.055692 	4902 	0.054975
34.99 	0.059628 	4897 	0.058432
35.01 	0.059517 	4923 	0.058208
35.03 	0.057657 	4943 	0.056946
35.05 	0.058217 	4947 	0.057151
35.07 	0.058300 	4940 	0.057232
35.09 	0.056329 	4953 	0.055147
35.11 	0.057004 	4947 	0.055939
35.13 	0.050222 	4958 	0.049395
35.15 	0.060968 	4937 	0.059900
35.17 	0.062879 	4946 	0.061695
35.19 	0.054431 	4942 	0.053957
35.21 	0.058443 	4945 	0.057495
35.23 	0.056218 	4945 	0.055508
35.25 	0.057860 	4943 	0.056636
35.27 	0.052749 	4948 	0.051565
35.29 	0.058241 	4945 	0.057293
35.31 	0.055950 	4933 	0.054881
35.33 	0.058264 	4943 	0.056941
35.35 	0.053824 	4942 	0.053113
35.37 	0.053452 	4939 	0.052740
35.39 	0.063903 	4945 	0.062817
35.41 	0.057044 	4926 	0.055954
35.43 	0.054936 	4933 	0.054461
35.45 	0.057727 	4937 	0.056422
35.47 	0.061651 	4931 	0.060700
35.49 	0.055193 	4910 	0.054358
35.51 	0.060089 	4926 	0.059495
35.53 	0.053344 	4949 	0.052397
35.55 	0.059454 	4945 	0.059099
35.57 	0.056558 	4933 	0.055964
35.59 	0.060263 	4945 	0.059533
35.61 	0.058074 	4942 	0.057125
35.63 	0.055230 	4943 	0.054045
35.65 	0.054803 	4945 	0.053974
35.67 	0.059490 	4942 	0.058305
35.69 	0.057218 	4946 	0.056270
35.71 	0.059348 	4937 	0.058161
35.73 	0.050851 	4936 	0.050495
35.75 	0.053539 	4931 	0.052232
35.77 	0.060796 	4951 	0.059849
35.79 	0.057178 	4932 	0.055990
35.81 	0.059193 	4933 	0.058105
35.83 	0.052568 	4946 	0.051502
35.85 	0.053495 	4935 	0.052052
35.87 	0.060532 	4923 	0.059461
35.89 	0.055533 	4934 	0.054939
35.91 	0.059468 	4927 	0.058636
35.93 	0.058453 	4927 	0.057383
35.95 	0.058776 	4917 	0.057227
35.97 	0.057818 	4912 	0.056267
35.99 	0.051427 	4939 	0.050953
36.01 	0.060243 	4930 	0.059630
36.03 	0.060085 	4943 	0.059374
36.05 	0.053792 	4945 	0.052943
36.07 	0.057299 	4939 	0.056350
36.09 	0.060526 	4940 	0.059933
36.11 	0.056198 	4929 	0.055247
36.13 	0.059288 	4942 	0.057727
36.15 	0.058311 	4939 	0.057600
36.17 	0.054416 	4925 	0.053822
36.19 	0.052834 	4940 	0.052241
36.21 	0.056198 	4929 	0.054772
36.23 	0.051469 	4935 	0.050757
36.25 	0.059300 	4941 	0.057403
36.27 	0.055228 	4925 	0.054515
36.29 	0.053336 	4931 	0.052861
36.31 	0.054586 	4928 	0.054229
36.33 	0.053720 	4933 	0.053007
36.35 	0.058430 	4929 	0.057341
36.37 	0.056470 	4923 	0.055994
36.39 	0.060557 	4921 	0.059604
36.41 	0.058211 	4896 	0.057254
36.43 	0.059050 	4928 	0.057862
36.45 	0.055578 	4930 	0.054984
36.47 	0.046799 	4936 	0.046087
36.49 	0.061109 	4942 	0.059686
36.51 	0.055747 	4933 	0.055272
36.53 	0.055634 	4943 	0.054449
36.55 	0.057642 	4927 	0.056690
36.57 	0.055938 	4934 	0.055226
36.59 	0.055072 	4939 	0.053411
36.61 	0.061854 	4931 	0.059933
36.63 	0.055567 	4931 	0.054022
36.65 	0.056164 	4932 	0.055095
36.67 	0.050304 	4930 	0.049948
36.69 	0.055386 	4929 	0.054673
36.71 	0.055273 	4921 	0.054202
36.73 	0.051168 	4925 	0.050335
36.75 	0.050162 	4944 	0.049806
36.77 	0.047164 	4919 	0.046330
36.79 	0.059338 	4921 	0.057770
36.81 	0.055940 	4916 	0.054867
36.83 	0.056765 	4915 	0.055692
36.85 	0.054716 	4898 	0.054238
36.87 	0.059668 	4944 	0.059194
36.89 	0.053092 	4916 	0.052258
36.91 	0.052621 	4941 	0.051772
36.93 	0.059026 	4930 	0.058313
36.95 	0.054936 	4933 	0.054224
36.97 	0.056344 	4934 	0.055631
36.99 	0.060993 	4935 	0.060043
37.01 	0.053314 	4933 	0.052246
37.03 	0.051178 	4924 	0.050940
37.05 	0.059874 	4927 	0.058923
37.07 	0.052280 	4935 	0.051686
37.09 	0.056818 	4928 	0.055848
37.11 	0.053901 	4935 	0.053050
37.13 	0.049553 	4924 	0.048245
37.15 	0.055408 	4909 	0.054692
37.17 	0.058370 	4934 	0.057777
37.19 	0.058883 	4925 	0.058051
37.21 	0.055522 	4917 	0.055045
37.23 	0.048394 	4918 	0.047917
37.25 	0.058033 	4911 	0.057437
37.27 	0.054148 	4894 	0.053430
37.29 	0.056998 	4930 	0.055434
37.31 	0.057953 	4935 	0.056648
37.33 	0.049523 	4927 	0.048929
37.35 	0.053665 	4938 	0.052242
37.37 	0.055815 	4927 	0.055102
37.39 	0.053539 	4931 	0.051876
37.41 	0.053539 	4931 	0.052826
37.43 	0.054542 	4932 	0.054067
37.45 	0.049350 	4924 	0.048636
37.47 	0.054169 	4929 	0.053813
37.49 	0.049563 	4923 	0.048730
37.51 	0.056558 	4933 	0.055588
37.53 	0.054279 	4919 	0.053446
37.55 	0.060243 	4930 	0.059055
37.57 	0.054822 	4925 	0.053990
37.59 	0.054527 	4915 	0.053693
37.61 	0.050996 	4922 	0.050162
37.63 	0.058142 	4919 	0.057070
37.65 	0.049410 	4918 	0.048338
37.67 	0.050979 	4904 	0.050023
37.69 	0.047775 	4898 	0.047057
37.71 	0.052140 	4929 	0.051665
37.73 	0.052749 	4929 	0.052155
37.75 	0.053846 	4940 	0.052641
37.77 	0.051016 	4920 	0.050540
37.79 	0.059229 	4930 	0.058140
37.81 	0.052504 	4933 	0.051672
37.83 	0.055488 	4920 	0.054892
37.85 	0.050996 	4922 	0.049786
37.87 	0.053452 	4939 	0.052503
37.89 	0.054822 	4925 	0.053871
37.91 	0.057809 	4930 	0.056265
37.93 	0.054279 	4919 	0.054041
37.95 	0.060760 	4921 	0.059808
37.97 	0.061270 	4929 	0.060082
37.99 	0.051710 	4912 	0.051233
38.01 	0.053977 	4928 	0.053502
38.03 	0.053779 	4909 	0.053182
38.05 	0.050558 	4925 	0.050083
38.07 	0.052353 	4909 	0.051279
38.09 	0.049405 	4878 	0.048325
38.11 	0.053698 	4935 	0.052748
38.13 	0.050638 	4937 	0.049669
38.15 	0.057747 	4918 	0.056913
38.17 	0.061460 	4930 	0.060985
38.19 	0.054970 	4930 	0.054257
38.21 	0.056876 	4923 	0.056400
38.23 	0.059133 	4938 	0.058540
38.25 	0.058572 	4917 	0.057143
38.27 	0.059838 	4930 	0.059125
38.29 	0.067831 	4924 	0.067117
38.31 	0.058047 	4927 	0.056859
38.33 	0.057677 	4924 	0.056725
38.35 	0.066558 	4928 	0.064894
38.37 	0.061332 	4924 	0.060618
38.39 	0.064779 	4909 	0.063705
38.41 	0.068454 	4923 	0.067126
38.43 	0.062653 	4916 	0.061699
38.45 	0.064254 	4918 	0.061991
38.47 	0.068270 	4907 	0.066788
38.49 	0.061103 	4877 	0.060022
38.51 	0.066302 	4932 	0.064758
38.53 	0.070197 	4929 	0.068414
38.55 	0.058549 	4936 	0.057125
38.57 	0.058704 	4923 	0.057276
38.59 	0.065597 	4924 	0.064645
38.61 	0.065640 	4936 	0.064928
38.63 	0.057880 	4924 	0.056195
38.65 	0.056527 	4918 	0.055931
38.67 	0.059550 	4937 	0.058601
38.69 	0.054856 	4922 	0.054380
38.71 	0.052193 	4924 	0.051717
38.73 	0.054900 	4918 	0.054305
38.75 	0.051756 	4927 	0.051280
38.77 	0.063173 	4923 	0.061745
38.79 	0.059992 	4934 	0.058567
38.81 	0.055985 	4912 	0.055031
38.83 	0.054279 	4919 	0.053803
38.85 	0.054153 	4912 	0.053557
38.87 	0.054164 	4911 	0.053210
38.89 	0.049418 	4897 	0.048581
38.91 	0.057516 	4903 	0.056679
38.93 	0.050425 	4938 	0.049595
38.95 	0.055307 	4918 	0.053977
38.97 	0.046644 	4931 	0.046644
38.99 	0.054284 	4937 	0.053453
39.01 	0.052664 	4918 	0.051473
39.03 	0.053304 	4934 	0.052591
39.05 	0.046904 	4925 	0.046666
39.07 	0.050772 	4924 	0.049939
39.09 	0.061142 	4923 	0.059932
39.11 	0.056175 	4931 	0.055581
39.13 	0.047126 	4923 	0.046650
39.15 	0.054527 	4915 	0.053573
39.17 	0.051043 	4937 	0.050569
39.19 	0.054708 	4917 	0.053378
39.21 	0.049491 	4910 	0.048536
39.23 	0.047919 	4925 	0.046848
39.25 	0.056278 	4922 	0.055088
39.27 	0.054582 	4910 	0.053986
39.29 	0.052234 	4901 	0.051756
39.31 	0.056306 	4884 	0.056186
39.33 	0.046846 	4931 	0.046371
39.35 	0.053698 	4935 	0.052986
39.37 	0.053966 	4929 	0.053491
39.39 	0.048489 	4929 	0.047894
39.41 	0.056378 	4931 	0.054834
39.43 	0.049666 	4933 	0.049072
39.45 	0.052589 	4925 	0.051994
39.47 	0.053016 	4923 	0.052659
39.49 	0.048247 	4933 	0.047890
39.51 	0.056052 	4924 	0.055219
39.53 	0.057282 	4923 	0.056211
39.55 	0.052856 	4919 	0.051904
39.57 	0.055342 	4933 	0.054273
39.59 	0.058021 	4912 	0.056809
39.61 	0.057282 	4923 	0.056330
39.63 	0.057497 	4922 	0.056069
39.65 	0.049533 	4926 	0.048701
39.67 	0.049868 	4913 	0.048675
39.69 	0.049634 	4916 	0.049157
39.71 	0.056180 	4895 	0.055222
39.73 	0.053586 	4908 	0.052870
39.75 	0.054383 	4928 	0.053670
39.77 	0.054711 	4935 	0.053880
39.79 	0.050548 	4926 	0.049835
39.81 	0.052973 	4927 	0.052260
39.83 	0.059587 	4934 	0.058617
39.85 	0.056018 	4927 	0.055305
39.87 	0.056853 	4925 	0.055901
39.89 	0.057762 	4934 	0.056931
39.91 	0.054856 	4922 	0.053904
39.93 	0.052461 	4937 	0.051868
39.95 	0.051679 	4915 	0.050487
39.97 	0.047687 	4928 	0.047092
39.99 	0.053325 	4932 	0.052613
40.01 	0.049614 	4918 	0.049018
40.03 	0.052557 	4928 	0.051725
40.05 	0.048810 	4917 	0.047619
40.07 	0.058298 	4923 	0.057227
40.09 	0.056957 	4916 	0.055765
40.11 	0.054109 	4916 	0.053275
40.13 	0.057394 	4896 	0.056197
40.15 	0.046407 	4913 	0.045692
40.17 	0.049513 	4928 	0.049156
40.19 	0.047880 	4929 	0.047167
40.21 	0.048024 	4935 	0.047550
40.23 	0.051095 	4932 	0.050382
40.25 	0.057927 	4920 	0.056974
40.27 	0.057930 	4937 	0.056625
40.29 	0.049523 	4927 	0.048810
40.31 	0.053857 	4939 	0.053027
40.33 	0.047242 	4932 	0.046748
40.35 	0.057329 	4919 	0.056733
40.37 	0.047880 	4929 	0.047642
40.39 	0.058812 	4931 	0.058099
40.41 	0.049543 	4925 	0.048829
40.43 	0.050589 	4922 	0.049161
40.45 	0.055139 	4933 	0.054426
40.47 	0.048800 	4918 	0.048681
40.49 	0.045676 	4926 	0.045200
40.51 	0.055668 	4922 	0.054716
40.53 	0.048820 	4916 	0.047867
40.55 	0.051548 	4908 	0.050236
40.57 	0.047444 	4890 	0.046366
40.59 	0.050841 	4937 	0.050129
40.61 	0.049645 	4935 	0.048933
40.63 	0.049899 	4930 	0.049067
40.65 	0.052056 	4937 	0.050988
40.67 	0.047242 	4932 	0.046411
40.69 	0.052056 	4937 	0.051344
40.71 	0.053122 	4932 	0.052054
40.73 	0.051563 	4926 	0.050493
40.75 	0.056784 	4931 	0.056190
40.77 	0.052237 	4939 	0.051763
40.79 	0.050569 	4924 	0.049855
40.81 	0.052419 	4941 	0.051707
40.83 	0.050122 	4928 	0.049765
40.85 	0.046101 	4924 	0.045268
40.87 	0.051745 	4928 	0.051151
40.89 	0.053539 	4931 	0.052470
40.91 	0.051188 	4923 	0.049998
40.93 	0.051277 	4934 	0.050090
40.95 	0.049461 	4913 	0.048745
40.97 	0.051178 	4924 	0.050821
40.99 	0.051178 	4924 	0.050226
41.01 	0.046621 	4912 	0.045885
41.03 	0.048114 	4905 	0.047636
41.05 	0.051053 	4936 	0.050223
41.07 	0.049290 	4930 	0.048458
41.09 	0.050010 	4939 	0.048943
41.11 	0.052280 	4935 	0.051449
41.13 	0.052877 	4936 	0.052521
41.15 	0.058490 	4941 	0.057897
41.17 	0.047629 	4934 	0.046916
41.19 	0.046450 	4930 	0.045737
41.21 	0.048410 	4937 	0.047935
41.23 	0.048593 	4939 	0.047862
41.25 	0.046827 	4933 	0.046095
41.27 	0.054147 	4931 	0.053316
41.29 	0.049107 	4928 	0.048493
41.31 	0.051287 	4933 	0.050812
41.33 	0.053069 	4937 	0.052475
41.35 	0.049413 	4938 	0.048938
41.37 	0.044273 	4924 	0.043678
41.39 	0.046625 	4933 	0.046150
41.41 	0.057247 	4926 	0.056653
41.43 	0.044228 	4929 	0.043634
41.45 	0.050468 	4914 	0.049991
41.47 	0.045879 	4926 	0.045641
41.49 	0.051513 	4892 	0.051034
41.51 	0.047773 	4940 	0.046825
41.53 	0.046926 	4944 	0.046215
41.55 	0.053293 	4935 	0.052462
41.57 	0.049990 	4941 	0.049516
41.59 	0.050679 	4933 	0.049610
41.61 	0.048052 	4953 	0.047579
41.63 	0.047590 	4938 	0.046622
41.65 	0.048083 	4929 	0.047489
41.67 	0.046559 	4940 	0.046084
41.69 	0.046493 	4947 	0.045782
41.71 	0.047021 	4934 	0.046071
41.73 	0.050648 	4936 	0.050055
41.75 	0.045040 	4929 	0.044445
41.77 	0.047966 	4941 	0.047729
41.79 	0.049150 	4944 	0.048084
41.81 	0.049433 	4936 	0.048483
41.83 	0.043425 	4928 	0.042950
41.85 	0.045353 	4939 	0.044879
41.87 	0.051874 	4935 	0.051400
41.89 	0.049057 	4933 	0.048701
41.91 	0.043760 	4936 	0.043048
41.93 	0.046229 	4932 	0.045872
41.95 	0.046644 	4931 	0.045654
41.97 	0.040904 	4914 	0.040904
41.99 	0.045872 	4905 	0.045394
42.01 	0.048968 	4942 	0.048731
42.03 	0.045353 	4939 	0.044642
42.05 	0.045840 	4952 	0.045012
42.07 	0.048815 	4937 	0.047985
42.09 	0.044058 	4948 	0.043703
42.11 	0.044692 	4945 	0.043744
42.13 	0.040445 	4945 	0.039971
42.15 	0.049413 	4938 	0.048701
42.17 	0.042904 	4918 	0.042427
42.19 	0.048085 	4908 	0.047846
42.21 	0.046929 	4901 	0.046212
42.23 	0.050491 	4892 	0.049413
42.25 	0.043772 	4889 	0.043173
42.27 	0.048215 	4874 	0.047494
42.29 	0.044417 	4863 	0.043694
42.31 	0.045932 	4855 	0.045449
42.33 	0.048200 	4834 	0.047231
42.35 	0.044026 	4838 	0.043784
42.37 	0.048654 	4830 	0.047684
42.39 	0.053497 	4804 	0.052522
42.41 	0.042673 	4804 	0.042185
42.43 	0.050710 	4792 	0.049202
42.45 	0.043760 	4776 	0.043147
42.47 	0.038825 	4765 	0.038702
42.49 	0.047849 	4765 	0.046988
42.51 	0.045541 	4743 	0.045047
42.53 	0.048435 	4728 	0.047939
42.55 	0.048003 	4708 	0.047381
42.57 	0.044820 	4730 	0.044696
42.59 	0.047367 	4729 	0.046996
42.61 	0.044180 	4708 	0.043558
42.63 	0.046719 	4709 	0.046221
42.65 	0.047599 	4685 	0.046723
42.67 	0.046114 	4684 	0.045489
42.69 	0.045571 	4674 	0.044945
42.71 	0.045464 	4663 	0.044836
42.73 	0.041595 	4640 	0.040837
42.75 	0.040286 	4617 	0.039398
42.77 	0.046522 	4600 	0.046267
42.79 	0.051069 	4582 	0.050430
42.81 	0.048005 	4562 	0.047363
42.83 	0.050485 	4536 	0.049323
42.85 	0.049249 	4528 	0.048861
42.87 	0.043343 	4499 	0.042562
42.89 	0.048884 	4480 	0.048492
42.91 	0.048923 	4456 	0.048660
42.93 	0.048358 	4446 	0.047699
42.95 	0.045290 	4416 	0.044759
42.97 	0.044763 	4401 	0.044363
42.99 	0.041049 	4385 	0.040648
43.01 	0.046298 	4363 	0.045627
43.03 	0.044311 	4333 	0.043635
43.05 	0.043006 	4325 	0.042599
43.07 	0.051909 	4296 	0.050682
43.09 	0.046696 	4283 	0.046012
43.11 	0.043008 	4255 	0.042733
43.13 	0.042247 	4237 	0.041694
43.15 	0.045411 	4206 	0.044158
43.17 	0.042833 	4179 	0.042553
43.19 	0.050548 	4194 	0.049990
43.21 	0.046980 	4172 	0.045576
43.23 	0.053442 	4154 	0.052737
43.25 	0.045224 	4135 	0.044515
43.27 	0.043362 	4105 	0.043219
43.29 	0.043659 	4100 	0.043087
43.31 	0.053199 	4079 	0.052768
43.33 	0.039990 	4051 	0.039701
43.35 	0.045387 	4032 	0.044806
43.37 	0.042092 	4015 	0.041800
43.39 	0.040230 	4002 	0.040084
43.41 	0.041793 	3972 	0.041645
43.43 	0.052273 	3960 	0.051385
43.45 	0.042186 	3935 	0.041268
43.47 	0.053558 	3921 	0.052512
43.49 	0.045163 	3897 	0.044261
43.51 	0.045396 	3877 	0.044640
43.53 	0.044007 	3863 	0.043552
43.55 	0.045547 	2964 	0.044361
43.57 	0.033959 	2238 	0.033959
43.59 	0.049255 	1746 	0.047858
43.61 	0.043671 	1351 	0.043238
43.63 	0.037962 	1001 	0.036792
43.65 	0.050946 	687 	0.050946
43.67 	0.057769 	502 	0.057769
43.69 	0.054496 	367 	0.054496
43.71 	0.029289 	239 	0.029289
43.73 	0.033333 	120 	0.033333
43.75 	0.000000 	16 	0.000000