File: Example_Data/25SC_s1_0010.000.dat
#F C:\frames\spec\25SC_s1_0010.000
#C title =s:10 frm:0 25SC_s1
#C wavelength =0.15406

#S 1  fr_average C:\frames\spec\25SC_s1_0010.000 C:\win32app\speccom\mask.axs chi 0 180 0 360 0.02
#C 2 theta =0.000000 to 180 deg
#C   q   =0.000000 to 81.568 nm^-1
#C  chi  =0.000000 to 360 deg
#C collumns:
#C  1 position (2theta or chi in degrees)
#C  2 average intensity (sum of all counts in the region divided with number of pixels)
#C  3 Number of pixels in region)
#C  4 error (sum of sqrt(intensity) for all pixels divided by number)
#N 4
#L TTh  Int  N_pix  Err
32.99 	0.065574 	61 	0.065574
33.01 	0.056128 	873 	0.055457
33.03 	0.066139 	1391 	0.064455
33.05 	0.060330 	1757 	0.058997
33.07 	0.065366 	2050 	0.063937
33.09 	0.059225 	2347 	0.057727
33.11 	0.059325 	2579 	0.059325
33.13 	0.059076 	2793 	0.058867
33.15 	0.056019 	2999 	0.054619
33.17 	0.066542 	3201 	0.064468
33.19 	0.062537 	3342 	0.061486
33.21 	0.066938 	3436 	0.066256
33.23 	0.060176 	3523 	0.059511
33.25 	0.065891 	3612 	0.064405
33.27 	0.058678 	3630 	0.056580
33.29 	0.058114 	3648 	0.057472
33.31 	0.062295 	3660 	0.060535
33.33 	0.060228 	3686 	0.059274
33.35 	0.058202 	3694 	0.057568
33.37 	0.067851 	3714 	0.065486
33.39 	0.064092 	3729 	0.063464
33.41 	0.063102 	3740 	0.062005
33.43 	0.057166 	3761 	0.055452
33.45 	0.063610 	3773 	0.062523
33.47 	0.057135 	3798 	0.055593
33.49 	0.061959 	3809 	0.060421
33.51 	0.057667 	3815 	0.056899
33.53 	0.058318 	3841 	0.057098
33.55 	0.053864 	3843 	0.053407
33.57 	0.066288 	3877 	0.065533
33.59 	0.059278 	3880 	0.057920
33.61 	0.057815 	3909 	0.056616
33.63 	0.052054 	3919 	0.050983
33.65 	0.064106 	3931 	0.063212
33.67 	0.068285 	3954 	0.067841
33.69 	0.052871 	3953 	0.051982
33.71 	0.061384 	3975 	0.060647
33.73 	0.055694 	4004 	0.054207
33.75 	0.056514 	3999 	0.055782
33.77 	0.060373 	4025 	0.059936
33.79 	0.053205 	4041 	0.052480
33.81 	0.062407 	4038 	0.061392
33.83 	0.054568 	4050 	0.053700
33.85 	0.056599 	4099 	0.055313
33.87 	0.064948 	4111 	0.063665
33.89 	0.063091 	4121 	0.061101
33.91 	0.066763 	4149 	0.065210
33.93 	0.056854 	4151 	0.056289
33.95 	0.060512 	4181 	0.059228
33.97 	0.053461 	4190 	0.053181
33.99 	0.055000 	4200 	0.053745
34.01 	0.056254 	4213 	0.055698
34.03 	0.059614 	4244 	0.058371
34.05 	0.058796 	4252 	0.058107
34.07 	0.056701 	4268 	0.055580
34.09 	0.057629 	4286 	0.056514
34.11 	0.053696 	4302 	0.053015
34.13 	0.056175 	4308 	0.055223
34.15 	0.052644 	4331 	0.051967
34.17 	0.053563 	4350 	0.052486
34.19 	0.054104 	4362 	0.053432
34.21 	0.050103 	4371 	0.049009
34.23 	0.062827 	4393 	0.062160
34.25 	0.060627 	4404 	0.059430
34.27 	0.054953 	4422 	0.054423
34.29 	0.055242 	4435 	0.054692
34.31 	0.063930 	4458 	0.062747
34.33 	0.059271 	4471 	0.057000
34.35 	0.059991 	4484 	0.058946
34.37 	0.056112 	4491 	0.055069
34.39 	0.056864 	4502 	0.055823
34.41 	0.056783 	4526 	0.056136
34.43 	0.061247 	4539 	0.060215
34.45 	0.058655 	4535 	0.057234
34.47 	0.055749 	4592 	0.055366
34.49 	0.060474 	4597 	0.059264
34.51 	0.057968 	4606 	0.057078
34.53 	0.060737 	4643 	0.059601
34.55 	0.057721 	4643 	0.057090
34.57 	0.059013 	4660 	0.058133
34.59 	0.054118 	4675 	0.053366
34.61 	0.063658 	4697 	0.061787
34.63 	0.047771 	4710 	0.047398
34.65 	0.058462 	4721 	0.057594
34.67 	0.058005 	4741 	0.056028
34.69 	0.054480 	4754 	0.053988
34.71 	0.058959 	4766 	0.057587
34.73 	0.061625 	4787 	0.061136
34.75 	0.061148 	4808 	0.060539
34.77 	0.055625 	4818 	0.054530
34.79 	0.060116 	4824 	0.059509
34.81 	0.058617 	4845 	0.057892
34.83 	0.055533 	4862 	0.054328
34.85 	0.052783 	4869 	0.051820
34.87 	0.059984 	4868 	0.059001
34.89 	0.055100 	4882 	0.054620
34.91 	0.060836 	4882 	0.059276
34.93 	0.053889 	4899 	0.053052
34.95 	0.054806 	4890 	0.054327
34.97 	0.059364 	4902 	0.058647
34.99 	0.058812 	4897 	0.057256
35.01 	0.049766 	4923 	0.048814
35.03 	0.058264 	4943 	0.057435
35.05 	0.057813 	4947 	0.057221
35.07 	0.051619 	4940 	0.051264
35.09 	0.057743 	4953 	0.057506
35.11 	0.065494 	4947 	0.064073
35.13 	0.060508 	4958 	0.059090
35.15 	0.058740 	4937 	0.057910
35.17 	0.056814 	4946 	0.055629
35.19 	0.050789 	4942 	0.050434
35.21 	0.056016 	4945 	0.055424
35.23 	0.061072 	4945 	0.059769
35.25 	0.053813 	4943 	0.052846
35.27 	0.058205 	4948 	0.057258
35.29 	0.056016 	4945 	0.055068
35.31 	0.056558 	4933 	0.055707
35.33 	0.058264 	4943 	0.057198
35.35 	0.057062 	4942 	0.056351
35.37 	0.052642 	4939 	0.052168
35.39 	0.060870 	4945 	0.060159
35.41 	0.055623 	4926 	0.054672
35.43 	0.061018 	4933 	0.059811
35.45 	0.060766 	4937 	0.059935
35.47 	0.053336 	4931 	0.052504
35.49 	0.056212 	4910 	0.055496
35.51 	0.056029 	4926 	0.055078
35.53 	0.059002 	4949 	0.058528
35.55 	0.055814 	4945 	0.054491
35.57 	0.067707 	4933 	0.066401
35.59 	0.062083 	4945 	0.060780
35.61 	0.057669 	4942 	0.056602
35.63 	0.053207 	4943 	0.052496
35.65 	0.065723 	4945 	0.064894
35.67 	0.058883 	4942 	0.057797
35.69 	0.058027 	4946 	0.056961
35.71 	0.058538 	4937 	0.057707
35.73 	0.051864 	4936 	0.051389
35.75 	0.055770 	4931 	0.054582
35.77 	0.061200 	4951 	0.060963
35.79 	0.058394 	4932 	0.057563
35.81 	0.057774 	4933 	0.056468
35.83 	0.059240 	4946 	0.058292
35.85 	0.053698 	4935 	0.052867
35.87 	0.062360 	4923 	0.061408
35.89 	0.063032 	4934 	0.061964
35.91 	0.058656 	4927 	0.057586
35.93 	0.061904 	4927 	0.060715
35.95 	0.057555 	4917 	0.056721
35.97 	0.060057 	4912 	0.059322
35.99 	0.063778 	4939 	0.062454
36.01 	0.063083 	4930 	0.061737
36.03 	0.061703 	4943 	0.060755
36.05 	0.058038 	4945 	0.057209
36.07 	0.061753 	4939 	0.060429
36.09 	0.055870 	4940 	0.055396
36.11 	0.059241 	4929 	0.058053
36.13 	0.061716 	4942 	0.060768
36.15 	0.066410 	4939 	0.064987
36.17 	0.058071 	4925 	0.057120
36.19 	0.053441 	4940 	0.052848
36.21 	0.058024 	4929 	0.056835
36.23 	0.059574 	4935 	0.058269
36.25 	0.056466 	4941 	0.055874
36.27 	0.063756 	4925 	0.062805
36.29 	0.057392 	4931 	0.056066
36.31 	0.059050 	4928 	0.058099
36.33 	0.059801 	4933 	0.059089
36.35 	0.064110 	4929 	0.063397
36.37 	0.062360 	4923 	0.061032
36.39 	0.067466 	4921 	0.066752
36.41 	0.055351 	4896 	0.054274
36.43 	0.064732 	4928 	0.064138
36.45 	0.065517 	4930 	0.064329
36.47 	0.058752 	4936 	0.056972
36.49 	0.061514 	4942 	0.060091
36.51 	0.060612 	4933 	0.059405
36.53 	0.061501 	4943 	0.060909
36.55 	0.053176 	4927 	0.052344
36.57 	0.052493 	4934 	0.051662
36.59 	0.060336 	4939 	0.059269
36.61 	0.059014 	4931 	0.058420
36.63 	0.057595 	4931 	0.057001
36.65 	0.063869 	4932 	0.062800
36.67 	0.060243 	4930 	0.059055
36.69 	0.059038 	4929 	0.058444
36.71 	0.061370 	4921 	0.059941
36.73 	0.060102 	4925 	0.059269
36.75 	0.058050 	4944 	0.057576
36.77 	0.057329 	4919 	0.056138
36.79 	0.062386 	4921 	0.061076
36.81 	0.056957 	4916 	0.056242
36.83 	0.065107 	4915 	0.063796
36.85 	0.067579 	4898 	0.066024
36.87 	0.058657 	4944 	0.058183
36.89 	0.058584 	4916 	0.057393
36.91 	0.066181 	4941 	0.065232
36.93 	0.065517 	4930 	0.064567
36.95 	0.059801 	4933 	0.058970
36.97 	0.057560 	4934 	0.056491
36.99 	0.055522 	4935 	0.054572
37.01 	0.053720 	4933 	0.053245
37.03 	0.056458 	4924 	0.055269
37.05 	0.062716 	4927 	0.061883
37.07 	0.057953 	4935 	0.056628
37.09 	0.065544 	4928 	0.064236
37.11 	0.062614 	4935 	0.061190
37.13 	0.059708 	4924 	0.058974
37.15 	0.054390 	4909 	0.053674
37.17 	0.059384 	4934 	0.058909
37.19 	0.056447 	4925 	0.055257
37.21 	0.065080 	4917 	0.064127
37.23 	0.055917 	4918 	0.054726
37.25 	0.064956 	4911 	0.063386
37.27 	0.058643 	4894 	0.057566
37.29 	0.060852 	4930 	0.059545
37.31 	0.061803 	4935 	0.060735
37.33 	0.057642 	4927 	0.056690
37.35 	0.053868 	4938 	0.053156
37.37 	0.058250 	4927 	0.057537
37.39 	0.058406 	4931 	0.057337
37.41 	0.063476 	4931 	0.061932
37.43 	0.060624 	4932 	0.059080
37.45 	0.056661 	4924 	0.055710
37.47 	0.048286 	4929 	0.048048
37.49 	0.062360 	4923 	0.061508
37.51 	0.061423 	4933 	0.060473
37.53 	0.055092 	4919 	0.054259
37.55 	0.063286 	4930 	0.062811
37.57 	0.053198 	4925 	0.052603
37.59 	0.056765 	4915 	0.055931
37.61 	0.061154 	4922 	0.060202
37.63 	0.057125 	4919 	0.056173
37.65 	0.055917 	4918 	0.055202
37.67 	0.063010 	4904 	0.061935
37.69 	0.052266 	4898 	0.051668
37.71 	0.058227 	4929 	0.056306
37.73 	0.055792 	4929 	0.055079
37.75 	0.060931 	4940 	0.059844
37.77 	0.057927 	4920 	0.056736
37.79 	0.058621 	4930 	0.058027
37.81 	0.051490 	4933 	0.051252
37.83 	0.063821 	4920 	0.061639
37.85 	0.057903 	4922 	0.057308
37.87 	0.063576 	4939 	0.062983
37.89 	0.051980 	4925 	0.051623
37.91 	0.052535 	4930 	0.051466
37.93 	0.056109 	4919 	0.055156
37.95 	0.061166 	4921 	0.060095
37.97 	0.048489 	4929 	0.047637
37.99 	0.052524 	4912 	0.051809
38.01 	0.053977 	4928 	0.053145
38.03 	0.060094 	4909 	0.059378
38.05 	0.054010 	4925 	0.053534
38.07 	0.057649 	4909 	0.056695
38.09 	0.053301 	4878 	0.052700
38.11 	0.058156 	4935 	0.056732
38.13 	0.055904 	4937 	0.054599
38.15 	0.058357 	4918 	0.057523
38.17 	0.056389 	4930 	0.055558
38.19 	0.061866 	4930 	0.060916
38.21 	0.056876 	4923 	0.056281
38.23 	0.063994 	4938 	0.062807
38.25 	0.053488 	4917 	0.051920
38.27 	0.060649 	4930 	0.059342
38.29 	0.057067 	4924 	0.056235
38.31 	0.052365 	4927 	0.051889
38.33 	0.056052 	4924 	0.054981
38.35 	0.065138 	4928 	0.064187
38.37 	0.065800 	4924 	0.064848
38.39 	0.060501 	4909 	0.059785
38.41 	0.056876 	4923 	0.056281
38.43 	0.062653 	4916 	0.061223
38.45 	0.055510 	4918 	0.055034
38.47 	0.070308 	4907 	0.069114
38.49 	0.071765 	4877 	0.071165
38.51 	0.069140 	4932 	0.068071
38.53 	0.074863 	4929 	0.072209
38.55 	0.069692 	4936 	0.068387
38.57 	0.065814 	4923 	0.064267
38.59 	0.075548 	4924 	0.074002
38.61 	0.071921 	4936 	0.069152
38.63 	0.078595 	4924 	0.076929
38.65 	0.088044 	4918 	0.085543
38.67 	0.085274 	4937 	0.083337
38.69 	0.078220 	4922 	0.075840
38.71 	0.086109 	4924 	0.084205
38.73 	0.089874 	4918 	0.087254
38.75 	0.079562 	4927 	0.077422
38.77 	0.086939 	4923 	0.085392
38.79 	0.081678 	4934 	0.078691
38.81 	0.076140 	4912 	0.074709
38.83 	0.070543 	4919 	0.068698
38.85 	0.073086 	4912 	0.071655
38.87 	0.082061 	4911 	0.079636
38.89 	0.074331 	4897 	0.072637
38.91 	0.068326 	4903 	0.066892
38.93 	0.071689 	4938 	0.070147
38.95 	0.065677 	4918 	0.064129
38.97 	0.061448 	4931 	0.060616
38.99 	0.059753 	4937 	0.058922
39.01 	0.062627 	4918 	0.061297
39.03 	0.055128 	4934 	0.054534
39.05 	0.053807 	4925 	0.052856
39.07 	0.054021 	4924 	0.052950
39.09 	0.052407 	4923 	0.051217
39.11 	0.051511 	4931 	0.050422
39.13 	0.056267 	4923 	0.055315
39.15 	0.045982 	4915 	0.045267
39.17 	0.054284 	4937 	0.053671
39.19 	0.047590 	4917 	0.046379
39.21 	0.053157 	4910 	0.052322
39.23 	0.051574 	4925 	0.050741
39.25 	0.048151 	4922 	0.047556
39.27 	0.046843 	4910 	0.046127
39.29 	0.047541 	4901 	0.047063
39.31 	0.049345 	4884 	0.048505
39.33 	0.052119 	4931 	0.051288
39.35 	0.051266 	4935 	0.050554
39.37 	0.049300 	4929 	0.048349
39.39 	0.045648 	4929 	0.045054
39.41 	0.046644 	4931 	0.045812
39.43 	0.047436 	4933 	0.046842
39.45 	0.044264 	4925 	0.044026
39.47 	0.041844 	4923 	0.041606
39.49 	0.040543 	4933 	0.039831
39.51 	0.048132 	4924 	0.047041
39.53 	0.047329 	4923 	0.046972
39.55 	0.042488 	4919 	0.042131
39.57 	0.046017 	4933 	0.045423
39.59 	0.041735 	4912 	0.041258
39.61 	0.045501 	4923 	0.045144
39.63 	0.044494 	4922 	0.043780
39.65 	0.048924 	4926 	0.048211
39.67 	0.043151 	4913 	0.042793
39.69 	0.047193 	4916 	0.046955
39.71 	0.046782 	4895 	0.045945
39.73 	0.046455 	4908 	0.045739
39.75 	0.047484 	4928 	0.046414
39.77 	0.048430 	4935 	0.048073
39.79 	0.046285 	4926 	0.045314
39.81 	0.046479 	4927 	0.045884
39.83 	0.045602 	4934 	0.045364
39.85 	0.052162 	4927 	0.050973
39.87 	0.038985 	4925 	0.038628
39.89 	0.044791 	4934 	0.043960
39.91 	0.043478 	4922 	0.042883
39.93 	0.045574 	4937 	0.044744
39.95 	0.041302 	4915 	0.040587
39.97 	0.045049 	4928 	0.044454
39.99 	0.042985 	4932 	0.042252
40.01 	0.041684 	4918 	0.041445
40.03 	0.043425 	4928 	0.042831
40.05 	0.047183 	4917 	0.046826
40.07 	0.044891 	4923 	0.044296
40.09 	0.044752 	4916 	0.043918
40.11 	0.044345 	4916 	0.044107
40.13 	0.048203 	4896 	0.047604
40.15 	0.043558 	4913 	0.042962
40.17 	0.046672 	4928 	0.046434
40.19 	0.044634 	4929 	0.044277
40.21 	0.041135 	4935 	0.040423
40.23 	0.043187 	4932 	0.042950
40.25 	0.047358 	4920 	0.046881
40.27 	0.040916 	4937 	0.040560
40.29 	0.039578 	4927 	0.038746
40.31 	0.043329 	4939 	0.042973
40.33 	0.045215 	4932 	0.044621
40.35 	0.046351 	4919 	0.045398
40.37 	0.040170 	4929 	0.039814
40.39 	0.049888 	4931 	0.048819
40.41 	0.041015 	4925 	0.040064
40.43 	0.039415 	4922 	0.039058
40.45 	0.044598 	4933 	0.044360
40.47 	0.041887 	4918 	0.041411
40.49 	0.044661 	4926 	0.044066
40.51 	0.041853 	4922 	0.041615
40.53 	0.040887 	4916 	0.040649
40.55 	0.039120 	4908 	0.039120
40.57 	0.036196 	4890 	0.035837
40.59 	0.046182 	4937 	0.045450
40.61 	0.046403 	4935 	0.046166
40.63 	0.043813 	4930 	0.043695
40.65 	0.043144 	4937 	0.042550
40.67 	0.044809 	4932 	0.044077
40.69 	0.041928 	4937 	0.040979
40.71 	0.041565 	4932 	0.041090
40.73 	0.042631 	4926 	0.042036
40.75 	0.043805 	4931 	0.043211
40.77 	0.048795 	4939 	0.048084
40.79 	0.042445 	4924 	0.041731
40.81 	0.039870 	4941 	0.039515
40.83 	0.044643 	4928 	0.043811
40.85 	0.043664 	4924 	0.043307
40.87 	0.042411 	4928 	0.042054
40.89 	0.041979 	4931 	0.041623
40.91 	0.048345 	4923 	0.047393
40.93 	0.047831 	4934 	0.047119
40.95 	0.045390 	4913 	0.044794
40.97 	0.046101 	4924 	0.045506
40.99 	0.044273 	4924 	0.043559
41.01 	0.039495 	4912 	0.039018
41.03 	0.043425 	4905 	0.042947
41.05 	0.040721 	4936 	0.040247
41.07 	0.047667 	4930 	0.046954
41.09 	0.045353 	4939 	0.044642
41.11 	0.038906 	4935 	0.038075
41.13 	0.041126 	4936 	0.040652
41.15 	0.042704 	4941 	0.042704
41.17 	0.038914 	4934 	0.038557
41.19 	0.038540 	4930 	0.038064
41.21 	0.046182 	4937 	0.045569
41.23 	0.041101 	4939 	0.040390
41.25 	0.038719 	4933 	0.038600
41.27 	0.041777 	4931 	0.041183
41.29 	0.042817 	4928 	0.042460
41.31 	0.036286 	4933 	0.035811
41.33 	0.042333 	4937 	0.042215
41.35 	0.041717 	4938 	0.041243
41.37 	0.035337 	4924 	0.034980
41.39 	0.043584 	4933 	0.042990
41.41 	0.042631 	4926 	0.042393
41.43 	0.043417 	4929 	0.042703
41.45 	0.043142 	4914 	0.042784
41.47 	0.041210 	4926 	0.040734
41.49 	0.042927 	4892 	0.042448
41.51 	0.044737 	4940 	0.044381
41.53 	0.045105 	4944 	0.044513
41.55 	0.041743 	4935 	0.041268
41.57 	0.044525 	4941 	0.044407
41.59 	0.033043 	4933 	0.032924
41.61 	0.040178 	4953 	0.039586
41.63 	0.043135 	4938 	0.042898
41.65 	0.037533 	4929 	0.036582
41.67 	0.041903 	4940 	0.041666
41.69 	0.042248 	4947 	0.041893
41.71 	0.044183 	4934 	0.043233
41.73 	0.036264 	4936 	0.035789
41.75 	0.044431 	4929 	0.043718
41.77 	0.042299 	4941 	0.042181
41.79 	0.040453 	4944 	0.040216
41.81 	0.039303 	4936 	0.038947
41.83 	0.037541 	4928 	0.037303
41.85 	0.042721 	4939 	0.042247
41.87 	0.042958 	4935 	0.042840
41.89 	0.044598 	4933 	0.043648
41.91 	0.042545 	4936 	0.042426
41.93 	0.044607 	4932 	0.043894
41.95 	0.038937 	4931 	0.038700
41.97 	0.038869 	4914 	0.038511
41.99 	0.044037 	4905 	0.043678
42.01 	0.040065 	4942 	0.039591
42.03 	0.041304 	4939 	0.041067
42.05 	0.042609 	4952 	0.042372
42.07 	0.043549 	4937 	0.042837
42.09 	0.036580 	4948 	0.036580
42.11 	0.034985 	4945 	0.034393
42.13 	0.040040 	4945 	0.040040
42.15 	0.039085 	4938 	0.038492
42.17 	0.039854 	4918 	0.039139
42.19 	0.040546 	4908 	0.039949
42.21 	0.042440 	4901 	0.041962
42.23 	0.039043 	4892 	0.038445
42.25 	0.036204 	4889 	0.034986
42.27 	0.040829 	4874 	0.039747
42.29 	0.044211 	4863 	0.043850
42.31 	0.043048 	4855 	0.042445
42.33 	0.039719 	4834 	0.038870
42.35 	0.037826 	4838 	0.037462
42.37 	0.032091 	4830 	0.031606
42.39 	0.039342 	4804 	0.038591
42.41 	0.036844 	4804 	0.036722
42.43 	0.040067 	4792 	0.039945
42.45 	0.037270 	4776 	0.036391
42.47 	0.040504 	4765 	0.040381
42.49 	0.039454 	4765 	0.039086
42.51 	0.038583 	4743 	0.037719
42.53 	0.035110 	4728 	0.034367
42.55 	0.045455 	4708 	0.044957
42.57 	0.039112 	4730 	0.038349
42.59 	0.039543 	4729 	0.039048
42.61 	0.040569 	4708 	0.040320
42.63 	0.039286 	4709 	0.038913
42.65 	0.040982 	4685 	0.040107
42.67 	0.037148 	4684 	0.036898
42.69 	0.038083 	4674 	0.037707
42.71 	0.038816 	4663 	0.038565
42.73 	0.040302 	4640 	0.039923
42.75 	0.031406 	4617 	0.031279
42.77 	0.037391 	4600 	0.037137
42.79 	0.035137 	4582 	0.034498
42.81 	0.035511 	4562 	0.034848
42.83 	0.039683 	4536 	0.039424
42.85 	0.039532 	4528 	0.039402
42.87 	0.040676 	4499 	0.040415
42.89 	0.038839 	4480 	0.038055
42.91 	0.034111 	4456 	0.033717
42.93 	0.047009 	4446 	0.046613
42.95 	0.038723 	4416 	0.038060
42.97 	0.037946 	4401 	0.037547
42.99 	0.038312 	4385 	0.038045
43.01 	0.036214 	4363 	0.035677
43.03 	0.036464 	4333 	0.035788
43.05 	0.037919 	4325 	0.037648
43.07 	0.039804 	4296 	0.039668
43.09 	0.036423 	4283 	0.035876
43.11 	0.041363 	4255 	0.040675
43.13 	0.041539 	4237 	0.040848
43.15 	0.039943 	4206 	0.039525
43.17 	0.042355 	4179 	0.041794
43.19 	0.036481 	4194 	0.036201
43.21 	0.036433 	4172 	0.036433
43.23 	0.039239 	4154 	0.038957
43.25 	0.036518 	4135 	0.036093
43.27 	0.038977 	4105 	0.038977
43.29 	0.039024 	4100 	0.038739
43.31 	0.033096 	4079 	0.032666
43.33 	0.040484 	4051 	0.040339
43.35 	0.039187 	4032 	0.038751
43.37 	0.043337 	4015 	0.043046
43.39 	0.035982 	4002 	0.035543
43.41 	0.038771 	3972 	0.038771
43.43 	0.038384 	3960 	0.038088
43.45 	0.039898 	3935 	0.039898
43.47 	0.039786 	3921 	0.039188
43.49 	0.032589 	3897 	0.032589
43.51 	0.042301 	3877 	0.041243
43.53 	0.041160 	3863 	0.040402
43.55 	0.035762 	2964 	0.035565
43.57 	0.037980 	2238 	0.037719
43.59 	0.031501 	1746 	0.031501
43.61 	0.042931 	1351 	0.042064
43.63 	0.034965 	1001 	0.034965
43.65 	0.032023 	687 	0.031171
43.67 	0.043825 	502 	0.043825
43.69 	0.032698 	367 	0.032698
43.71 	0.037657 	239 	0.032352
43.73 	0.033333 	120 	0.033333
43.75 	0.062500 	16 	0.062500