File: Example_Data/25SC_s1_0006.001.dat
#F C:\frames\spec\25SC_s1_0006.001
#C title =s:6 frm:1 25SC_s1
#C wavelength =0.15406

#S 1  fr_average C:\frames\spec\25SC_s1_0006.001 C:\win32app\speccom\mask.axs chi 0 180 0 360 0.02
#C 2 theta =0.000000 to 180 deg
#C   q   =0.000000 to 81.568 nm^-1
#C  chi  =0.000000 to 360 deg
#C collumns:
#C  1 position (2theta or chi in degrees)
#C  2 average intensity (sum of all counts in the region divided with number of pixels)
#C  3 Number of pixels in region)
#C  4 error (sum of sqrt(intensity) for all pixels divided by number)
#N 4
#L TTh  Int  N_pix  Err
32.99 	0.081967 	61 	0.081967
33.01 	0.058419 	873 	0.057748
33.03 	0.062545 	1391 	0.061703
33.05 	0.062607 	1757 	0.061940
33.07 	0.051707 	2050 	0.050850
33.09 	0.054964 	2347 	0.053675
33.11 	0.057387 	2579 	0.056705
33.13 	0.060150 	2793 	0.059311
33.15 	0.058353 	2999 	0.057376
33.17 	0.057794 	3201 	0.056879
33.19 	0.062238 	3342 	0.061362
33.21 	0.057334 	3436 	0.055800
33.23 	0.055918 	3523 	0.055586
33.25 	0.058970 	3612 	0.057997
33.27 	0.058678 	3630 	0.057225
33.29 	0.068805 	3648 	0.067199
33.31 	0.068306 	3660 	0.066999
33.33 	0.056972 	3686 	0.056019
33.35 	0.059556 	3694 	0.058446
33.37 	0.065697 	3714 	0.064278
33.39 	0.069456 	3729 	0.068042
33.41 	0.064973 	3740 	0.063407
33.43 	0.054773 	3761 	0.053527
33.45 	0.054598 	3773 	0.053977
33.47 	0.055292 	3798 	0.054521
33.49 	0.060646 	3809 	0.059262
33.51 	0.058978 	3815 	0.057442
33.53 	0.057016 	3841 	0.056406
33.55 	0.052043 	3843 	0.051281
33.57 	0.058292 	3877 	0.057990
33.59 	0.062887 	3880 	0.061075
33.61 	0.063955 	3909 	0.062456
33.63 	0.055626 	3919 	0.055029
33.65 	0.053167 	3931 	0.051826
33.67 	0.052352 	3954 	0.051463
33.69 	0.056919 	3953 	0.055733
33.71 	0.061635 	3975 	0.061046
33.73 	0.063686 	4004 	0.062662
33.75 	0.064016 	3999 	0.063430
33.77 	0.065093 	4025 	0.063783
33.79 	0.058401 	4041 	0.057822
33.81 	0.061664 	4038 	0.060214
33.83 	0.054815 	4050 	0.054092
33.85 	0.063186 	4099 	0.062615
33.87 	0.062029 	4111 	0.060461
33.89 	0.065033 	4121 	0.063327
33.91 	0.060497 	4149 	0.059932
33.93 	0.060708 	4151 	0.059579
33.95 	0.056924 	4181 	0.055780
33.97 	0.061337 	4190 	0.060498
33.99 	0.065714 	4200 	0.064459
34.01 	0.053643 	4213 	0.053226
34.03 	0.055372 	4244 	0.054544
34.05 	0.060913 	4252 	0.060086
34.07 	0.061856 	4268 	0.060895
34.09 	0.053430 	4286 	0.053293
34.11 	0.055091 	4302 	0.054115
34.13 	0.055478 	4308 	0.054526
34.15 	0.056338 	4331 	0.055797
34.17 	0.058621 	4350 	0.057409
34.19 	0.063503 	4362 	0.061757
34.21 	0.054907 	4371 	0.054237
34.23 	0.054632 	4393 	0.053966
34.25 	0.060400 	4404 	0.059070
34.27 	0.057214 	4422 	0.056287
34.29 	0.055919 	4435 	0.054048
34.31 	0.053611 	4458 	0.052954
34.33 	0.056140 	4471 	0.055091
34.35 	0.056200 	4484 	0.055677
34.37 	0.054999 	4491 	0.054216
34.39 	0.059085 	4502 	0.058174
34.41 	0.053027 	4526 	0.052380
34.43 	0.051774 	4539 	0.051128
34.45 	0.053583 	4535 	0.052679
34.47 	0.059233 	4592 	0.058340
34.49 	0.052861 	4597 	0.052096
34.51 	0.053191 	4606 	0.052556
34.53 	0.059444 	4643 	0.058561
34.55 	0.056214 	4643 	0.055457
34.57 	0.056223 	4660 	0.055469
34.59 	0.056898 	4675 	0.056147
34.61 	0.057909 	4697 	0.057410
34.63 	0.058599 	4710 	0.057604
34.65 	0.052955 	4721 	0.052459
34.67 	0.055895 	4741 	0.055154
34.69 	0.055953 	4754 	0.054844
34.71 	0.050776 	4766 	0.050285
34.73 	0.060372 	4787 	0.060005
34.75 	0.070299 	4808 	0.069081
34.77 	0.060606 	4818 	0.060241
34.79 	0.056385 	4824 	0.055170
34.81 	0.060268 	4845 	0.059422
34.83 	0.060880 	4862 	0.060278
34.85 	0.051961 	4869 	0.051240
34.87 	0.055053 	4868 	0.053349
34.89 	0.052642 	4882 	0.051922
34.91 	0.057968 	4882 	0.057248
34.93 	0.061237 	4899 	0.059683
34.95 	0.054806 	4890 	0.053488
34.97 	0.062016 	4902 	0.061179
34.99 	0.053298 	4897 	0.052700
35.01 	0.059110 	4923 	0.058277
35.03 	0.058264 	4943 	0.057553
35.05 	0.060239 	4947 	0.059646
35.07 	0.055870 	4940 	0.055040
35.09 	0.061377 	4953 	0.060431
35.11 	0.060239 	4947 	0.059291
35.13 	0.059500 	4958 	0.059027
35.15 	0.059955 	4937 	0.059125
35.17 	0.056409 	4946 	0.055817
35.19 	0.059895 	4942 	0.058571
35.21 	0.057432 	4945 	0.056247
35.23 	0.057230 	4945 	0.056519
35.25 	0.053813 	4943 	0.053221
35.27 	0.059822 	4948 	0.058856
35.29 	0.055005 	4945 	0.054294
35.31 	0.056355 	4933 	0.054811
35.33 	0.070605 	4943 	0.068689
35.35 	0.053622 	4942 	0.052674
35.37 	0.057097 	4939 	0.056385
35.39 	0.055814 	4945 	0.055103
35.41 	0.065164 	4926 	0.063975
35.43 	0.055950 	4933 	0.054881
35.45 	0.056715 	4937 	0.055884
35.47 	0.058203 	4931 	0.057134
35.49 	0.059674 	4910 	0.058461
35.51 	0.060292 	4926 	0.059698
35.53 	0.059608 	4949 	0.058642
35.55 	0.063701 	4945 	0.062516
35.57 	0.062234 	4933 	0.061046
35.59 	0.057027 	4945 	0.055961
35.61 	0.060299 	4942 	0.059707
35.63 	0.056848 	4943 	0.056256
35.65 	0.059454 	4945 	0.058506
35.67 	0.059895 	4942 	0.059302
35.69 	0.052770 	4946 	0.051822
35.71 	0.057120 	4937 	0.056270
35.73 	0.060778 	4936 	0.059591
35.75 	0.060028 	4931 	0.058603
35.77 	0.057968 	4951 	0.056667
35.79 	0.059002 	4932 	0.058409
35.81 	0.057977 	4933 	0.057027
35.83 	0.057825 	4946 	0.056640
35.85 	0.056738 	4935 	0.056263
35.87 	0.060735 	4923 	0.060021
35.89 	0.058168 	4934 	0.057218
35.91 	0.061701 	4927 	0.060750
35.93 	0.057033 	4927 	0.056200
35.95 	0.055522 	4917 	0.054926
35.97 	0.061889 	4912 	0.060697
35.99 	0.060944 	4939 	0.059757
36.01 	0.064503 	4930 	0.062483
36.03 	0.060692 	4943 	0.059132
36.05 	0.059252 	4945 	0.058423
36.07 	0.061753 	4939 	0.060686
36.09 	0.055061 	4940 	0.053638
36.11 	0.060864 	4929 	0.059914
36.13 	0.055848 	4942 	0.054663
36.15 	0.062158 	4939 	0.061209
36.17 	0.059695 	4925 	0.058744
36.19 	0.058502 	4940 	0.057435
36.21 	0.061473 	4929 	0.060166
36.23 	0.060385 	4935 	0.059317
36.25 	0.060716 	4941 	0.059531
36.27 	0.058071 	4925 	0.057100
36.29 	0.063070 	4931 	0.062001
36.31 	0.059659 	4928 	0.058708
36.33 	0.062031 	4933 	0.060369
36.35 	0.055792 	4929 	0.055060
36.37 	0.062767 	4923 	0.061815
36.39 	0.058525 	4921 	0.057810
36.41 	0.059028 	4896 	0.058171
36.43 	0.059456 	4928 	0.058743
36.45 	0.056187 	4930 	0.055474
36.47 	0.060981 	4936 	0.060268
36.49 	0.064953 	4942 	0.064242
36.51 	0.055950 	4933 	0.055000
36.53 	0.060692 	4943 	0.059250
36.55 	0.064136 	4927 	0.063185
36.57 	0.063437 	4934 	0.062013
36.59 	0.056084 	4939 	0.055491
36.61 	0.060028 	4931 	0.059078
36.63 	0.057189 	4931 	0.056476
36.65 	0.062247 	4932 	0.061296
36.67 	0.053347 	4930 	0.052753
36.69 	0.065733 	4929 	0.064783
36.71 	0.063605 	4921 	0.062891
36.73 	0.061726 	4925 	0.060279
36.75 	0.055623 	4944 	0.055268
36.77 	0.055092 	4919 	0.053743
36.79 	0.061166 	4921 	0.060314
36.81 	0.058177 	4916 	0.057105
36.83 	0.063072 	4915 	0.061404
36.85 	0.061862 	4898 	0.061384
36.87 	0.054612 	4944 	0.053664
36.89 	0.058991 	4916 	0.058157
36.91 	0.054442 	4941 	0.053494
36.93 	0.055781 	4930 	0.054949
36.95 	0.051895 	4933 	0.051183
36.97 	0.064248 	4934 	0.062823
36.99 	0.060993 	4935 	0.060281
37.01 	0.062234 	4933 	0.060928
37.03 	0.063160 	4924 	0.061613
37.05 	0.058453 	4927 	0.057264
37.07 	0.062817 	4935 	0.061867
37.09 	0.059862 	4928 	0.058673
37.11 	0.056332 	4935 	0.055620
37.13 	0.057271 	4924 	0.056081
37.15 	0.058464 	4909 	0.057867
37.17 	0.064451 	4934 	0.063264
37.19 	0.061320 	4925 	0.060230
37.21 	0.065487 	4917 	0.064534
37.23 	0.056324 	4918 	0.055728
37.25 	0.060069 	4911 	0.058757
37.27 	0.061708 	4894 	0.060372
37.29 	0.061663 	4930 	0.060832
37.31 	0.053901 	4935 	0.052476
37.33 	0.062513 	4927 	0.061562
37.35 	0.057513 	4938 	0.056801
37.37 	0.062513 	4927 	0.061205
37.39 	0.054958 	4931 	0.054008
37.41 	0.059014 	4931 	0.057926
37.43 	0.060827 	4932 	0.059758
37.45 	0.059708 	4924 	0.058498
37.47 	0.055589 	4929 	0.054876
37.49 	0.055048 	4923 	0.054215
37.51 	0.059599 	4933 	0.058273
37.53 	0.060988 	4919 	0.059916
37.55 	0.054970 	4930 	0.054613
37.57 	0.057056 	4925 	0.055866
37.59 	0.053306 	4915 	0.052949
37.61 	0.056684 	4922 	0.055018
37.63 	0.052856 	4919 	0.052003
37.65 	0.058967 	4918 	0.057895
37.67 	0.057912 	4904 	0.056956
37.69 	0.057166 	4898 	0.056449
37.71 	0.059241 	4929 	0.058528
37.73 	0.058633 	4929 	0.057563
37.75 	0.053644 	4940 	0.052577
37.77 	0.054675 	4920 	0.054079
37.79 	0.055172 	4930 	0.054578
37.81 	0.056558 	4933 	0.055608
37.83 	0.051829 	4920 	0.051353
37.85 	0.053637 	4922 	0.053161
37.87 	0.051022 	4939 	0.050074
37.89 	0.052792 	4925 	0.051940
37.91 	0.051724 	4930 	0.050635
37.93 	0.054076 	4919 	0.053600
37.95 	0.048364 	4921 	0.047769
37.97 	0.059444 	4929 	0.057899
37.99 	0.054967 	4912 	0.054729
38.01 	0.060471 	4928 	0.059639
38.03 	0.058260 	4909 	0.057067
38.05 	0.056244 	4925 	0.055887
38.07 	0.051945 	4909 	0.051229
38.09 	0.056786 	4878 	0.056305
38.11 	0.046809 	4935 	0.046334
38.13 	0.060766 	4937 	0.059797
38.15 	0.057137 	4918 	0.056661
38.17 	0.055578 	4930 	0.054865
38.19 	0.055172 	4930 	0.054816
38.21 	0.054438 	4923 	0.053367
38.23 	0.055488 	4938 	0.054658
38.25 	0.056945 	4917 	0.056230
38.27 	0.055984 	4930 	0.054796
38.29 	0.055849 	4924 	0.055135
38.31 	0.056830 	4927 	0.055522
38.33 	0.058895 	4924 	0.057349
38.35 	0.058442 	4928 	0.057372
38.37 	0.057474 	4924 	0.056284
38.39 	0.063149 	4909 	0.061837
38.41 	0.065610 	4923 	0.064302
38.43 	0.065094 	4916 	0.064140
38.45 	0.073810 	4918 	0.072262
38.47 	0.072957 	4907 	0.071286
38.49 	0.068075 	4877 	0.066393
38.51 	0.066302 	4932 	0.064639
38.53 	0.076283 	4929 	0.074956
38.55 	0.076985 	4936 	0.075561
38.57 	0.077189 	4923 	0.075503
38.59 	0.077173 	4924 	0.074675
38.61 	0.074959 	4936 	0.072942
38.63 	0.081032 	4924 	0.078890
38.65 	0.074420 	4918 	0.073348
38.67 	0.077983 	4937 	0.076084
38.69 	0.074157 	4922 	0.072729
38.71 	0.068643 	4924 	0.066978
38.73 	0.070964 	4918 	0.068820
38.75 	0.073879 	4927 	0.072333
38.77 	0.068251 	4923 	0.066823
38.79 	0.063235 	4934 	0.062285
38.81 	0.062704 	4912 	0.061750
38.83 	0.061191 	4919 	0.060358
38.85 	0.061279 	4912 	0.060086
38.87 	0.053553 	4911 	0.053195
38.89 	0.058199 	4897 	0.057242
38.91 	0.052213 	4903 	0.051257
38.93 	0.053868 	4938 	0.053038
38.95 	0.059170 	4918 	0.058932
38.97 	0.050497 	4931 	0.050140
38.99 	0.051246 	4937 	0.049822
39.01 	0.051647 	4918 	0.051051
39.03 	0.048439 	4934 	0.047965
39.05 	0.049949 	4925 	0.049592
39.07 	0.050975 	4924 	0.050142
39.09 	0.051595 	4923 	0.050405
39.11 	0.050902 	4931 	0.050427
39.13 	0.047532 	4923 	0.047294
39.15 	0.049847 	4915 	0.049132
39.17 	0.050233 	4937 	0.049284
39.19 	0.044946 	4917 	0.044231
39.21 	0.042566 	4910 	0.041731
39.23 	0.048325 	4925 	0.047254
39.25 	0.049777 	4922 	0.049300
39.27 	0.041344 	4910 	0.041344
39.29 	0.046725 	4901 	0.045530
39.31 	0.044431 	4884 	0.043811
39.33 	0.049686 	4931 	0.048577
39.35 	0.047416 	4935 	0.047298
39.37 	0.048691 	4929 	0.048691
39.39 	0.041185 	4929 	0.040591
39.41 	0.044413 	4931 	0.043819
39.43 	0.048449 	4933 	0.047737
39.45 	0.042437 	4925 	0.041961
39.47 	0.045298 	4923 	0.044703
39.49 	0.045408 	4933 	0.044815
39.51 	0.041227 	4924 	0.040394
39.53 	0.045704 	4923 	0.044871
39.55 	0.044521 	4919 	0.043926
39.57 	0.046017 	4933 	0.045522
39.59 	0.044992 	4912 	0.044396
39.61 	0.043876 	4923 	0.043638
39.63 	0.042056 	4922 	0.041461
39.65 	0.044458 	4926 	0.043982
39.67 	0.044576 	4913 	0.043979
39.69 	0.045972 	4916 	0.045476
39.71 	0.042697 	4895 	0.042218
39.73 	0.045029 	4908 	0.044531
39.75 	0.041396 	4928 	0.040802
39.77 	0.043161 	4935 	0.042330
39.79 	0.045270 	4926 	0.044081
39.81 	0.043637 	4927 	0.042548
39.83 	0.047426 	4934 	0.046951
39.85 	0.048711 	4927 	0.048117
39.87 	0.045685 	4925 	0.044972
39.89 	0.053101 	4934 	0.052745
39.91 	0.040634 	4922 	0.040158
39.93 	0.048613 	4937 	0.047663
39.95 	0.050865 	4915 	0.050030
39.97 	0.047281 	4928 	0.046805
39.99 	0.045012 	4932 	0.044300
40.01 	0.045140 	4918 	0.044664
40.03 	0.049107 	4928 	0.048156
40.05 	0.045353 	4917 	0.045234
40.07 	0.043673 	4923 	0.042959
40.09 	0.046379 	4916 	0.045664
40.11 	0.044345 	4916 	0.043849
40.13 	0.049020 	4896 	0.048541
40.15 	0.046204 	4913 	0.045489
40.17 	0.047484 	4928 	0.046414
40.19 	0.042402 	4929 	0.042283
40.21 	0.043972 	4935 	0.043853
40.23 	0.042579 	4932 	0.042342
40.25 	0.039431 	4920 	0.038717
40.27 	0.040916 	4937 	0.040797
40.29 	0.044246 	4927 	0.043770
40.31 	0.043126 	4939 	0.042533
40.33 	0.042985 	4932 	0.042628
40.35 	0.035780 	4919 	0.035184
40.37 	0.047677 	4929 	0.046607
40.39 	0.046441 	4931 	0.045728
40.41 	0.043046 	4925 	0.042570
40.43 	0.042666 	4922 	0.042190
40.45 	0.046017 	4933 	0.044948
40.47 	0.041684 	4918 	0.040969
40.49 	0.042428 	4926 	0.042190
40.51 	0.039618 	4922 	0.039380
40.53 	0.044752 	4916 	0.043918
40.55 	0.045232 	4908 	0.044636
40.57 	0.045194 	4890 	0.044955
40.59 	0.036864 	4937 	0.036153
40.61 	0.050051 	4935 	0.049457
40.63 	0.047059 	4930 	0.046465
40.65 	0.039700 	4937 	0.038870
40.67 	0.040957 	4932 	0.040719
40.69 	0.045372 	4937 	0.044778
40.71 	0.041565 	4932 	0.041189
40.73 	0.044052 	4926 	0.042625
40.75 	0.042993 	4931 	0.042756
40.77 	0.042924 	4939 	0.042449
40.79 	0.039196 	4924 	0.038601
40.81 	0.048371 	4941 	0.048015
40.83 	0.041802 	4928 	0.041208
40.85 	0.048132 	4924 	0.047418
40.87 	0.043222 	4928 	0.042509
40.89 	0.042791 	4931 	0.041959
40.91 	0.037782 	4923 	0.036830
40.93 	0.044386 	4934 	0.043555
40.95 	0.044372 	4913 	0.043776
40.97 	0.042851 	4924 	0.042356
40.99 	0.048944 	4924 	0.048111
41.01 	0.042345 	4912 	0.042107
41.03 	0.045464 	4905 	0.044986
41.05 	0.042950 	4936 	0.042119
41.07 	0.045030 	4930 	0.044436
41.09 	0.050415 	4939 	0.049822
41.11 	0.041337 	4935 	0.040744
41.13 	0.051661 	4936 	0.051305
41.15 	0.044728 	4941 	0.044372
41.17 	0.038508 	4934 	0.038033
41.19 	0.038742 	4930 	0.038742
41.21 	0.042941 	4937 	0.042229
41.23 	0.043126 	4939 	0.042889
41.25 	0.041354 	4933 	0.040760
41.27 	0.042791 	4931 	0.042177
41.29 	0.039773 	4928 	0.039178
41.31 	0.043584 	4933 	0.043228
41.33 	0.041118 	4937 	0.040169
41.35 	0.042932 	4938 	0.042458
41.37 	0.042039 	4924 	0.041682
41.39 	0.040543 	4933 	0.040068
41.41 	0.041210 	4926 	0.040734
41.43 	0.046257 	4929 	0.045663
41.45 	0.040497 	4914 	0.039901
41.47 	0.043240 	4926 	0.042526
41.49 	0.047833 	4892 	0.047115
41.51 	0.043927 	4940 	0.043334
41.53 	0.041869 	4944 	0.041395
41.55 	0.038501 	4935 	0.037907
41.57 	0.044121 	4941 	0.043291
41.59 	0.039124 	4933 	0.038649
41.61 	0.041995 	4953 	0.041049
41.63 	0.040907 	4938 	0.039840
41.65 	0.038953 	4929 	0.038478
41.67 	0.041498 	4940 	0.041379
41.69 	0.038407 	4947 	0.038052
41.71 	0.042764 	4934 	0.042171
41.73 	0.042950 	4936 	0.042712
41.75 	0.039968 	4929 	0.039254
41.77 	0.041894 	4941 	0.041657
41.79 	0.040049 	4944 	0.039456
41.81 	0.041532 	4936 	0.040820
41.83 	0.039773 	4928 	0.039178
41.85 	0.039887 	4939 	0.039531
41.87 	0.046606 	4935 	0.045894
41.89 	0.040138 	4933 	0.039544
41.91 	0.039911 	4936 	0.039436
41.93 	0.041768 	4932 	0.041293
41.95 	0.043399 	4931 	0.042567
41.97 	0.042532 	4914 	0.042174
41.99 	0.042610 	4905 	0.042012
42.01 	0.040469 	4942 	0.039758
42.03 	0.042114 	4939 	0.041877
42.05 	0.040792 	4952 	0.040082
42.07 	0.035244 	4937 	0.035125
42.09 	0.043856 	4948 	0.043027
42.11 	0.042872 	4945 	0.042161
42.13 	0.041254 	4945 	0.040661
42.15 	0.038275 	4938 	0.038275
42.17 	0.042497 	4918 	0.042021
42.19 	0.042787 	4908 	0.042429
42.21 	0.038564 	4901 	0.037966
42.23 	0.038021 	4892 	0.037423
42.25 	0.036817 	4889 	0.036458
42.27 	0.039393 	4874 	0.038912
42.29 	0.044623 	4863 	0.043900
42.31 	0.038105 	4855 	0.037622
42.33 	0.035995 	4834 	0.035874
42.35 	0.041546 	4838 	0.041062
42.37 	0.038509 	4830 	0.038267
42.39 	0.042673 	4804 	0.042043
42.41 	0.037677 	4804 	0.037189
42.43 	0.039441 	4792 	0.038952
42.45 	0.044598 	4776 	0.043862
42.47 	0.037985 	4765 	0.037739
42.49 	0.039664 	4765 	0.038927
42.51 	0.038583 	4743 	0.038336
42.53 	0.037437 	4728 	0.037313
42.55 	0.040782 	4708 	0.040015
42.57 	0.042918 	4730 	0.042422
42.59 	0.042081 	4729 	0.041709
42.61 	0.042906 	4708 	0.042657
42.63 	0.036951 	4709 	0.036453
42.65 	0.037780 	4685 	0.037030
42.67 	0.043766 	4684 	0.043016
42.69 	0.037227 	4674 	0.037102
42.71 	0.041175 	4663 	0.040673
42.73 	0.035345 	4640 	0.034714
42.75 	0.045701 	4617 	0.045320
42.77 	0.036522 	4600 	0.036267
42.79 	0.038848 	4582 	0.038464
42.81 	0.046909 	4562 	0.046396
42.83 	0.040123 	4536 	0.039736
42.85 	0.038207 	4528 	0.037819
42.87 	0.036897 	4499 	0.036767
42.89 	0.038170 	4480 	0.037647
42.91 	0.035458 	4456 	0.035195
42.93 	0.035538 	4446 	0.035274
42.95 	0.038496 	4416 	0.037568
42.97 	0.042945 	4401 	0.042679
42.99 	0.039453 	4385 	0.039052
43.01 	0.043777 	4363 	0.043374
43.03 	0.044080 	4333 	0.043404
43.05 	0.043699 	4325 	0.043022
43.07 	0.041201 	4296 	0.040792
43.09 	0.039225 	4283 	0.038404
43.11 	0.037133 	4255 	0.036995
43.13 	0.034694 	4237 	0.034418
43.15 	0.037803 	4206 	0.037246
43.17 	0.041158 	4179 	0.041158
43.19 	0.037434 	4194 	0.037015
43.21 	0.045062 	4172 	0.044641
43.23 	0.036110 	4154 	0.035405
43.25 	0.036518 	4135 	0.035809
43.27 	0.037759 	4105 	0.037331
43.29 	0.038293 	4100 	0.037578
43.31 	0.043393 	4079 	0.042819
43.33 	0.039250 	4051 	0.039105
43.35 	0.042163 	4032 	0.041582
43.37 	0.034122 	4015 	0.033684
43.39 	0.040480 	4002 	0.039455
43.41 	0.035750 	3972 	0.035455
43.43 	0.042424 	3960 	0.041833
43.45 	0.037357 	3935 	0.037059
43.47 	0.038001 	3921 	0.037851
43.49 	0.030280 	3897 	0.030129
43.51 	0.035337 	3877 	0.035034
43.53 	0.036759 	3863 	0.036304
43.55 	0.042848 	2964 	0.042255
43.57 	0.040661 	2238 	0.040138
43.59 	0.035510 	1746 	0.034839
43.61 	0.031828 	1351 	0.031828
43.63 	0.039960 	1001 	0.039375
43.65 	0.027656 	687 	0.027656
43.67 	0.049801 	502 	0.049801
43.69 	0.035422 	367 	0.035422
43.71 	0.033473 	239 	0.033473
43.73 	0.025000 	120 	0.025000
43.75 	0.062500 	16 	0.062500