File: Example_Data/25SC_s1_0025.002.dat
#F C:\frames\spec\25SC_s1_0025.002
#C title =s:25 frm:2 25SC_s1
#C wavelength =0.15406

#S 1  fr_average C:\frames\spec\25SC_s1_0025.002 C:\win32app\speccom\mask.axs chi 0 180 0 360 0.02
#C 2 theta =0.000000 to 180 deg
#C   q   =0.000000 to 81.568 nm^-1
#C  chi  =0.000000 to 360 deg
#C collumns:
#C  1 position (2theta or chi in degrees)
#C  2 average intensity (sum of all counts in the region divided with number of pixels)
#C  3 Number of pixels in region)
#C  4 error (sum of sqrt(intensity) for all pixels divided by number)
#N 4
#L TTh  Int  N_pix  Err
32.99 	0.049180 	61 	0.049180
33.01 	0.056128 	873 	0.055457
33.03 	0.062545 	1391 	0.060439
33.05 	0.064883 	1757 	0.064550
33.07 	0.065366 	2050 	0.063651
33.09 	0.057094 	2347 	0.055597
33.11 	0.062040 	2579 	0.060450
33.13 	0.058002 	2793 	0.057163
33.15 	0.055352 	2999 	0.053984
33.17 	0.054358 	3201 	0.053077
33.19 	0.056254 	3342 	0.055553
33.21 	0.054133 	3436 	0.053280
33.23 	0.056202 	3523 	0.055371
33.25 	0.058693 	3612 	0.058207
33.27 	0.056474 	3630 	0.055183
33.29 	0.064967 	3648 	0.064325
33.31 	0.060656 	3660 	0.060176
33.33 	0.057786 	3686 	0.056833
33.35 	0.053059 	3694 	0.052742
33.37 	0.063274 	3714 	0.062643
33.39 	0.063020 	3729 	0.061449
33.41 	0.064973 	3740 	0.063694
33.43 	0.062483 	3761 	0.061835
33.45 	0.059104 	3773 	0.058638
33.47 	0.059242 	3798 	0.058316
33.49 	0.059071 	3809 	0.058148
33.51 	0.060813 	3815 	0.058459
33.53 	0.055194 	3841 	0.054126
33.55 	0.060109 	3843 	0.059652
33.57 	0.058808 	3877 	0.056693
33.59 	0.053093 	3880 	0.051558
33.61 	0.060118 	3909 	0.059518
33.63 	0.062516 	3919 	0.060810
33.65 	0.063343 	3931 	0.062002
33.67 	0.063227 	3954 	0.062018
33.69 	0.053883 	3953 	0.052698
33.71 	0.056101 	3975 	0.055364
33.73 	0.055944 	4004 	0.055066
33.75 	0.062766 	3999 	0.061301
33.77 	0.059876 	4025 	0.059148
33.79 	0.063846 	4041 	0.062541
33.81 	0.059435 	4038 	0.058855
33.83 	0.063704 	4050 	0.061510
33.85 	0.059771 	4099 	0.059056
33.87 	0.057164 	4111 	0.056024
33.89 	0.058966 	4121 	0.058256
33.91 	0.055194 	4149 	0.053900
33.93 	0.055649 	4151 	0.054944
33.95 	0.058359 	4181 	0.057379
33.97 	0.056086 	4190 	0.055806
33.99 	0.056429 	4200 	0.055452
34.01 	0.059340 	4213 	0.058506
34.03 	0.058907 	4244 	0.057664
34.05 	0.059266 	4252 	0.058164
34.07 	0.050843 	4268 	0.050409
34.09 	0.058329 	4286 	0.057373
34.11 	0.057415 	4302 	0.056462
34.13 	0.061049 	4308 	0.059553
34.15 	0.054029 	4331 	0.053488
34.17 	0.050115 	4350 	0.049576
34.19 	0.048602 	4362 	0.048064
34.21 	0.063372 	4371 	0.061496
34.23 	0.059413 	4393 	0.058746
34.25 	0.059264 	4404 	0.058067
34.27 	0.060606 	4422 	0.059414
34.29 	0.059752 	4435 	0.058299
34.31 	0.062360 	4458 	0.060914
34.33 	0.054350 	4471 	0.053564
34.35 	0.056646 	4484 	0.055601
34.37 	0.053663 	4491 	0.053141
34.39 	0.053532 	4502 	0.052621
34.41 	0.057667 	4526 	0.057279
34.43 	0.055078 	4539 	0.054691
34.45 	0.057773 	4535 	0.056352
34.47 	0.058362 	4592 	0.057852
34.49 	0.062867 	4597 	0.061465
34.51 	0.055145 	4606 	0.054510
34.53 	0.054921 	4643 	0.054164
34.55 	0.058583 	4643 	0.057826
34.57 	0.056223 	4660 	0.055343
34.59 	0.062888 	4675 	0.062512
34.61 	0.058122 	4697 	0.057353
34.63 	0.056051 	4710 	0.055553
34.65 	0.053379 	4721 	0.052738
34.67 	0.058005 	4741 	0.057140
34.69 	0.054901 	4754 	0.053915
34.71 	0.059589 	4766 	0.058237
34.73 	0.058074 	4787 	0.056606
34.75 	0.051997 	4808 	0.050778
34.77 	0.058946 	4818 	0.057851
34.79 	0.058458 	4824 	0.056879
34.81 	0.060475 	4845 	0.059387
34.83 	0.053476 	4862 	0.052633
34.85 	0.052167 	4869 	0.051565
34.87 	0.056286 	4868 	0.055805
34.89 	0.054896 	4882 	0.054176
34.91 	0.056944 	4882 	0.056104
34.93 	0.065319 	4899 	0.064482
34.95 	0.064826 	4890 	0.063149
34.97 	0.059976 	4902 	0.058641
34.99 	0.054727 	4897 	0.053890
35.01 	0.056673 	4923 	0.055959
35.03 	0.057860 	4943 	0.056200
35.05 	0.057611 	4947 	0.057137
35.07 	0.054453 	4940 	0.053149
35.09 	0.054512 	4953 	0.053448
35.11 	0.052355 	4947 	0.051763
35.13 	0.058088 	4958 	0.057143
35.15 	0.064209 	4937 	0.063122
35.17 	0.054387 	4946 	0.053795
35.19 	0.058681 	4942 	0.057732
35.21 	0.054803 	4945 	0.053263
35.23 	0.054196 	4945 	0.053367
35.25 	0.055837 	4943 	0.054770
35.27 	0.058610 	4948 	0.057426
35.29 	0.056825 	4945 	0.055759
35.31 	0.058788 	4933 	0.058075
35.33 	0.060894 	4943 	0.059453
35.35 	0.052408 	4942 	0.051815
35.37 	0.060539 	4939 	0.059946
35.39 	0.052781 	4945 	0.052188
35.41 	0.055826 	4926 	0.054855
35.43 	0.053923 	4933 	0.053329
35.45 	0.054487 	4937 	0.053656
35.47 	0.063273 	4931 	0.062442
35.49 	0.051731 	4910 	0.050280
35.51 	0.058871 	4926 	0.057801
35.53 	0.057183 	4949 	0.056355
35.55 	0.052578 	4945 	0.051631
35.57 	0.059801 	4933 	0.058713
35.59 	0.055207 	4945 	0.054497
35.61 	0.052408 	4942 	0.051341
35.63 	0.057860 	4943 	0.057030
35.65 	0.056218 	4945 	0.054797
35.67 	0.055848 	4942 	0.054188
35.69 	0.057825 	4946 	0.056877
35.71 	0.058538 	4937 	0.057944
35.73 	0.058955 	4936 	0.056799
35.75 	0.058609 	4931 	0.058015
35.77 	0.056958 	4951 	0.055538
35.79 	0.053933 	4932 	0.052746
35.81 	0.056963 	4933 	0.055895
35.83 	0.062273 	4946 	0.060851
35.85 	0.058156 	4935 	0.056831
35.87 	0.053220 	4923 	0.052625
35.89 	0.054722 	4934 	0.053654
35.91 	0.058047 	4927 	0.056958
35.93 	0.056221 	4927 	0.055389
35.95 	0.057555 	4917 	0.056602
35.97 	0.057818 	4912 	0.056625
35.99 	0.060336 	4939 	0.059131
36.01 	0.060243 	4930 	0.058560
36.03 	0.053409 	4943 	0.052579
36.05 	0.056421 	4945 	0.055473
36.07 	0.057502 	4939 	0.056652
36.09 	0.054453 	4940 	0.053979
36.11 	0.053763 	4929 	0.052932
36.13 	0.054431 	4942 	0.053365
36.15 	0.063981 	4939 	0.062439
36.17 	0.060711 	4925 	0.059997
36.19 	0.054453 	4940 	0.053623
36.21 	0.057415 	4929 	0.056326
36.23 	0.054103 	4935 	0.053035
36.25 	0.059300 	4941 	0.057996
36.27 	0.059898 	4925 	0.058947
36.29 	0.056784 	4931 	0.055239
36.31 	0.062500 	4928 	0.061668
36.33 	0.054733 	4933 	0.053764
36.35 	0.051329 	4929 	0.050497
36.37 	0.058501 	4923 	0.057906
36.39 	0.059541 	4921 	0.059065
36.41 	0.058824 	4896 	0.057986
36.43 	0.051339 	4928 	0.050507
36.45 	0.058215 	4930 	0.057027
36.47 	0.057131 	4936 	0.056182
36.49 	0.053622 	4942 	0.052180
36.51 	0.055544 	4933 	0.054832
36.53 	0.059276 	4943 	0.058446
36.55 	0.059062 	4927 	0.057992
36.57 	0.053506 	4934 	0.052675
36.59 	0.057704 	4939 	0.056399
36.61 	0.054350 	4931 	0.053875
36.63 	0.051308 	4931 	0.050239
36.65 	0.055150 	4932 	0.054675
36.67 	0.053753 	4930 	0.052802
36.69 	0.058227 	4929 	0.057276
36.71 	0.059947 	4921 	0.058876
36.73 	0.056853 	4925 	0.055763
36.75 	0.051982 	4944 	0.051508
36.77 	0.055702 	4919 	0.054154
36.79 	0.054867 	4921 	0.054272
36.81 	0.057771 	4916 	0.056460
36.83 	0.046999 	4915 	0.046522
36.85 	0.054716 	4898 	0.054238
36.87 	0.055623 	4944 	0.054794
36.89 	0.057364 	4916 	0.056272
36.91 	0.055050 	4941 	0.054457
36.93 	0.055578 	4930 	0.054746
36.95 	0.053923 	4933 	0.052616
36.97 	0.054317 	4934 	0.053248
36.99 	0.056130 	4935 	0.054804
37.01 	0.049666 	4933 	0.048577
37.03 	0.055443 	4924 	0.055086
37.05 	0.052162 	4927 	0.050735
37.07 	0.056332 	4935 	0.055501
37.09 	0.057224 	4928 	0.056749
37.11 	0.057143 	4935 	0.056312
37.13 	0.050366 	4924 	0.050009
37.15 	0.060705 	4909 	0.059392
37.17 	0.049858 	4934 	0.049027
37.19 	0.052792 	4925 	0.052078
37.21 	0.054505 	4917 	0.052698
37.23 	0.052054 	4918 	0.051577
37.25 	0.050703 	4911 	0.050345
37.27 	0.047201 	4894 	0.046602
37.29 	0.058824 	4930 	0.057735
37.31 	0.053495 	4935 	0.051952
37.33 	0.060077 	4927 	0.058888
37.35 	0.053665 	4938 	0.052598
37.37 	0.051553 	4927 	0.050720
37.39 	0.050294 	4931 	0.049938
37.41 	0.050902 	4931 	0.050190
37.43 	0.054542 	4932 	0.053473
37.45 	0.057067 	4924 	0.056354
37.47 	0.050314 	4929 	0.049720
37.49 	0.053220 	4923 	0.052030
37.51 	0.053517 	4933 	0.052923
37.53 	0.053466 	4919 	0.052871
37.55 	0.052738 	4930 	0.051788
37.57 	0.053604 	4925 	0.053009
37.59 	0.053510 	4915 	0.051941
37.61 	0.056684 	4922 	0.055851
37.63 	0.052653 	4919 	0.052296
37.65 	0.047580 	4918 	0.046866
37.67 	0.054649 	4904 	0.053813
37.69 	0.054920 	4898 	0.053724
37.71 	0.052343 	4929 	0.051155
37.73 	0.051532 	4929 	0.051056
37.75 	0.050405 	4940 	0.049575
37.77 	0.051829 	4920 	0.050857
37.79 	0.052333 	4930 	0.051620
37.81 	0.044395 	4933 	0.043682
37.83 	0.046545 	4920 	0.046068
37.85 	0.049980 	4922 	0.049147
37.87 	0.050213 	4939 	0.049501
37.89 	0.050558 	4925 	0.049488
37.91 	0.051724 	4930 	0.051011
37.93 	0.050620 	4919 	0.049548
37.95 	0.052632 	4921 	0.051560
37.97 	0.052749 	4929 	0.052274
37.99 	0.055782 	4912 	0.055066
38.01 	0.051136 	4928 	0.050423
38.03 	0.048075 	4909 	0.047240
38.05 	0.054822 	4925 	0.053752
38.07 	0.049908 	4909 	0.049073
38.09 	0.049405 	4878 	0.048325
38.11 	0.051064 	4935 	0.050114
38.13 	0.054081 	4937 	0.052895
38.15 	0.052257 	4918 	0.051285
38.17 	0.061460 	4930 	0.060748
38.19 	0.055172 	4930 	0.053865
38.21 	0.051595 	4923 	0.050980
38.23 	0.050425 	4938 	0.049714
38.25 	0.051251 	4917 	0.050298
38.27 	0.060243 	4930 	0.058818
38.29 	0.056052 	4924 	0.055100
38.31 	0.053379 	4927 	0.052309
38.33 	0.058692 	4924 	0.057740
38.35 	0.060471 	4928 	0.058807
38.37 	0.064582 	4924 	0.063253
38.39 	0.059483 	4909 	0.057573
38.41 	0.058907 	4923 	0.057817
38.43 	0.056347 	4916 	0.056108
38.45 	0.065677 	4918 	0.064109
38.47 	0.065621 	4907 	0.064666
38.49 	0.062743 	4877 	0.061662
38.51 	0.070762 	4932 	0.069456
38.53 	0.062893 	4929 	0.061348
38.55 	0.059968 	4936 	0.058662
38.57 	0.070689 	4923 	0.069003
38.59 	0.058489 	4924 	0.057637
38.61 	0.063614 	4936 	0.062309
38.63 	0.055646 	4924 	0.054932
38.65 	0.056527 	4918 	0.055674
38.67 	0.061373 	4937 	0.060068
38.69 	0.063389 	4922 	0.061723
38.71 	0.056661 	4924 	0.055828
38.73 	0.061000 	4918 	0.060048
38.75 	0.053176 	4927 	0.052206
38.77 	0.060735 	4923 	0.060378
38.79 	0.050061 	4934 	0.049467
38.81 	0.052728 	4912 	0.052251
38.83 	0.050010 	4919 	0.049177
38.85 	0.044992 	4912 	0.044396
38.87 	0.052535 	4911 	0.051700
38.89 	0.051052 	4897 	0.050454
38.91 	0.048950 	4903 	0.048352
38.93 	0.048400 	4938 	0.047688
38.95 	0.048800 	4918 	0.047967
38.97 	0.049888 	4931 	0.049176
38.99 	0.049018 	4937 	0.048306
39.01 	0.046157 	4918 	0.045800
39.03 	0.047223 	4934 	0.046630
39.05 	0.047716 	4925 	0.047478
39.07 	0.043258 	4924 	0.043139
39.09 	0.044688 	4923 	0.044331
39.11 	0.055364 	4931 	0.053938
39.13 	0.045704 	4923 	0.044990
39.15 	0.051068 	4915 	0.050234
39.17 	0.046182 	4937 	0.045589
39.19 	0.049827 	4917 	0.049351
39.21 	0.044603 	4910 	0.044006
39.23 	0.048325 	4925 	0.047730
39.25 	0.046932 	4922 	0.046337
39.27 	0.047658 	4910 	0.046703
39.29 	0.048766 	4901 	0.048168
39.31 	0.045250 	4884 	0.044650
39.33 	0.046644 	4931 	0.045693
39.35 	0.043364 	4935 	0.042889
39.37 	0.042402 	4929 	0.041808
39.39 	0.047677 	4929 	0.047202
39.41 	0.049888 	4931 	0.049294
39.43 	0.047638 	4933 	0.046926
39.45 	0.043249 	4925 	0.042535
39.47 	0.048141 	4923 	0.047408
39.49 	0.048449 	4933 	0.048093
39.51 	0.043664 	4924 	0.043307
39.53 	0.045094 	4923 	0.044381
39.55 	0.043708 	4919 	0.043093
39.57 	0.046422 	4933 	0.045591
39.59 	0.044788 	4912 	0.044311
39.61 	0.043876 	4923 	0.043400
39.63 	0.046526 	4922 	0.045574
39.65 	0.039586 	4926 	0.039467
39.67 	0.042337 	4913 	0.041264
39.69 	0.043124 	4916 	0.042529
39.71 	0.049030 	4895 	0.048790
39.73 	0.050937 	4908 	0.050102
39.75 	0.045252 	4928 	0.045014
39.77 	0.046403 	4935 	0.045928
39.79 	0.047300 	4926 	0.046448
39.81 	0.044855 	4927 	0.044260
39.83 	0.044994 	4934 	0.044282
39.85 	0.049320 	4927 	0.048488
39.87 	0.043046 	4925 	0.042451
39.89 	0.042562 	4934 	0.042324
39.91 	0.042666 	4922 	0.042309
39.93 	0.048815 	4937 	0.048103
39.95 	0.044354 	4915 	0.043381
39.97 	0.038149 	4928 	0.037674
39.99 	0.047040 	4932 	0.046565
40.01 	0.038634 	4918 	0.038038
40.03 	0.044440 	4928 	0.043964
40.05 	0.040675 	4917 	0.040318
40.07 	0.043266 	4923 	0.042433
40.09 	0.045769 	4916 	0.045173
40.11 	0.045566 	4916 	0.045208
40.13 	0.042484 	4896 	0.041885
40.15 	0.043761 	4913 	0.043165
40.17 	0.041396 	4928 	0.040782
40.19 	0.043417 	4929 	0.042941
40.21 	0.040527 	4935 	0.040052
40.23 	0.040146 	4932 	0.039908
40.25 	0.042276 	4920 	0.041562
40.27 	0.040510 	4937 	0.040273
40.29 	0.044043 	4927 	0.043449
40.31 	0.042924 	4939 	0.042568
40.33 	0.046634 	4932 	0.045328
40.35 	0.048181 	4919 	0.047823
40.37 	0.042605 	4929 	0.041654
40.39 	0.045021 	4931 	0.044546
40.41 	0.041218 	4925 	0.041099
40.43 	0.043681 	4922 	0.042491
40.45 	0.040746 	4933 	0.040390
40.47 	0.045344 	4918 	0.044986
40.49 	0.044052 	4926 	0.043101
40.51 	0.041447 	4922 	0.040732
40.53 	0.041090 	4916 	0.040495
40.55 	0.038101 	4908 	0.037862
40.57 	0.042536 	4890 	0.042416
40.59 	0.043144 	4937 	0.042906
40.61 	0.041540 	4935 	0.041421
40.63 	0.038945 	4930 	0.038708
40.65 	0.042333 	4937 	0.041621
40.67 	0.045823 	4932 	0.045348
40.69 	0.043346 	4937 	0.042733
40.71 	0.041971 	4932 	0.041377
40.73 	0.040398 	4926 	0.040041
40.75 	0.043399 	4931 	0.042904
40.77 	0.041101 	4939 	0.040746
40.79 	0.047929 	4924 	0.047691
40.81 	0.038251 	4941 	0.037777
40.83 	0.043831 	4928 	0.043118
40.85 	0.041024 	4924 	0.040429
40.87 	0.039773 	4928 	0.039416
40.89 	0.041777 	4931 	0.041183
40.91 	0.047735 	4923 	0.047259
40.93 	0.042359 	4934 	0.041766
40.95 	0.044372 	4913 	0.044134
40.97 	0.040617 	4924 	0.040023
40.99 	0.045695 	4924 	0.044981
41.01 	0.046417 	4912 	0.045086
41.03 	0.039959 	4905 	0.039243
41.05 	0.043760 	4936 	0.043147
41.07 	0.038742 	4930 	0.038267
41.09 	0.044341 	4939 	0.043511
41.11 	0.036677 	4935 	0.036321
41.13 	0.040519 	4936 	0.039925
41.15 	0.043311 	4941 	0.042955
41.17 	0.038914 	4934 	0.037964
41.19 	0.035903 	4930 	0.035427
41.21 	0.042739 	4937 	0.042145
41.23 	0.039482 	4939 	0.039244
41.25 	0.039530 	4933 	0.038698
41.27 	0.045427 	4931 	0.044833
41.29 	0.038149 	4928 	0.038030
41.31 	0.045408 	4933 	0.044933
41.33 	0.046790 	4937 	0.045584
41.35 	0.044147 	4938 	0.043673
41.37 	0.038180 	4924 	0.038061
41.39 	0.040746 	4933 	0.040390
41.41 	0.041210 	4926 	0.040734
41.43 	0.042402 	4929 	0.041689
41.45 	0.039072 	4914 	0.038714
41.47 	0.044458 	4926 	0.044101
41.49 	0.039861 	4892 	0.039502
41.51 	0.038866 	4940 	0.038155
41.53 	0.043083 	4944 	0.042727
41.55 	0.040932 	4935 	0.040695
41.57 	0.038251 	4941 	0.038014
41.59 	0.037705 	4933 	0.036993
41.61 	0.036745 	4953 	0.036272
41.63 	0.043337 	4938 	0.042863
41.65 	0.038344 	4929 	0.037869
41.67 	0.043522 	4940 	0.042811
41.69 	0.041439 	4947 	0.040729
41.71 	0.041143 	4934 	0.040787
41.73 	0.042950 	4936 	0.042594
41.75 	0.044634 	4929 	0.044040
41.77 	0.035216 	4941 	0.035097
41.79 	0.039037 	4944 	0.038563
41.81 	0.047609 	4936 	0.047016
41.83 	0.040179 	4928 	0.039703
41.85 	0.039279 	4939 	0.038568
41.87 	0.037082 	4935 	0.036726
41.89 	0.037503 	4933 	0.036771
41.91 	0.034238 	4936 	0.034120
41.93 	0.033658 	4932 	0.032945
41.95 	0.037721 	4931 	0.037245
41.97 	0.039276 	4914 	0.038680
41.99 	0.040979 	4905 	0.040620
42.01 	0.036220 	4942 	0.035608
42.03 	0.041101 	4939 	0.040746
42.05 	0.044225 	4952 	0.043633
42.07 	0.043751 	4937 	0.042921
42.09 	0.036783 	4948 	0.036309
42.11 	0.035592 	4945 	0.035118
42.13 	0.037614 	4945 	0.037021
42.15 	0.034427 	4938 	0.034190
42.17 	0.036397 	4918 	0.035782
42.19 	0.035860 	4908 	0.035005
42.21 	0.040400 	4901 	0.039683
42.23 	0.033320 	4892 	0.033080
42.25 	0.037226 	4889 	0.036987
42.27 	0.038982 	4874 	0.038622
42.29 	0.041538 	4863 	0.040936
42.31 	0.041401 	4855 	0.041039
42.33 	0.034961 	4834 	0.034476
42.35 	0.036585 	4838 	0.036222
42.37 	0.039130 	4830 	0.038524
42.39 	0.043505 	4804 	0.042896
42.41 	0.042256 	4804 	0.041891
42.43 	0.039858 	4792 	0.039614
42.45 	0.038317 	4776 	0.037949
42.47 	0.043652 	4765 	0.042771
42.49 	0.041973 	4765 	0.041481
42.51 	0.035421 	4743 	0.035297
42.53 	0.039552 	4728 	0.038932
42.55 	0.042056 	4708 	0.041683
42.57 	0.037209 	4730 	0.036714
42.59 	0.039966 	4729 	0.039595
42.61 	0.038870 	4708 	0.038372
42.63 	0.037800 	4709 	0.036929
42.65 	0.037780 	4685 	0.037530
42.67 	0.037148 	4684 	0.036898
42.69 	0.037655 	4674 	0.037530
42.71 	0.040103 	4663 	0.039852
42.73 	0.041810 	4640 	0.041558
42.75 	0.035521 	4617 	0.035267
42.77 	0.038043 	4600 	0.037916
42.79 	0.036447 	4582 	0.035936
42.81 	0.039018 	4562 	0.038761
42.83 	0.037919 	4536 	0.037402
42.85 	0.032244 	4528 	0.031985
42.87 	0.042009 	4499 	0.041619
42.89 	0.037500 	4480 	0.036846
42.91 	0.039273 	4456 	0.039010
42.93 	0.042060 	4446 	0.041929
42.95 	0.038949 	4416 	0.038551
42.97 	0.038173 	4401 	0.037641
42.99 	0.037400 	4385 	0.037133
43.01 	0.034609 	4363 	0.034341
43.03 	0.035080 	4333 	0.034674
43.05 	0.038382 	4325 	0.038246
43.07 	0.036313 	4296 	0.035767
43.09 	0.038057 	4283 	0.038057
43.11 	0.041363 	4255 	0.040950
43.13 	0.037999 	4237 	0.037446
43.15 	0.040656 	4206 	0.040099
43.17 	0.039722 	4179 	0.039302
43.19 	0.037911 	4194 	0.037772
43.21 	0.039549 	4172 	0.039269
43.23 	0.042850 	4154 	0.042709
43.25 	0.032164 	4135 	0.031881
43.27 	0.034348 	4105 	0.034063
43.29 	0.038780 	4100 	0.038495
43.31 	0.034812 	4079 	0.034525
43.33 	0.036781 	4051 	0.036058
43.35 	0.035714 	4032 	0.034697
43.37 	0.040100 	4015 	0.039370
43.39 	0.035482 	4002 	0.035336
43.41 	0.036254 	3972 	0.035959
43.43 	0.040152 	3960 	0.039412
43.45 	0.034816 	3935 	0.034220
43.47 	0.041316 	3921 	0.040868
43.49 	0.035925 	3897 	0.034547
43.51 	0.044880 	3877 	0.044729
43.53 	0.040383 	3863 	0.040383
43.55 	0.036775 	2964 	0.036379
43.57 	0.041555 	2238 	0.041031
43.59 	0.040092 	1746 	0.039421
43.61 	0.038490 	1351 	0.038056
43.63 	0.029970 	1001 	0.029970
43.65 	0.034934 	687 	0.034934
43.67 	0.033865 	502 	0.033865
43.69 	0.038147 	367 	0.036551
43.71 	0.058577 	239 	0.056126
43.73 	0.016667 	120 	0.016667
43.75 	0.062500 	16 	0.062500