File: Example_Data/25SC_s1_0050.004.dat
#F C:\frames\spec\25SC_s1_0050.004
#C title =s:50 frm:4 25SC_s1
#C wavelength =0.15406

#S 1  fr_average C:\frames\spec\25SC_s1_0050.004 C:\win32app\speccom\mask.axs chi 0 180 0 360 0.02
#C 2 theta =0.000000 to 180 deg
#C   q   =0.000000 to 81.568 nm^-1
#C  chi  =0.000000 to 360 deg
#C collumns:
#C  1 position (2theta or chi in degrees)
#C  2 average intensity (sum of all counts in the region divided with number of pixels)
#C  3 Number of pixels in region)
#C  4 error (sum of sqrt(intensity) for all pixels divided by number)
#N 4
#L TTh  Int  N_pix  Err
32.99 	0.032787 	61 	0.032787
33.01 	0.052692 	873 	0.052021
33.03 	0.053918 	1391 	0.053076
33.05 	0.054069 	1757 	0.053736
33.07 	0.050732 	2050 	0.049589
33.09 	0.062207 	2347 	0.060668
33.11 	0.062040 	2579 	0.061585
33.13 	0.063731 	2793 	0.062472
33.15 	0.058353 	2999 	0.056595
33.17 	0.055920 	3201 	0.055005
33.19 	0.052663 	3342 	0.052488
33.21 	0.061991 	3436 	0.060286
33.23 	0.061879 	3523 	0.061048
33.25 	0.050941 	3612 	0.050293
33.27 	0.059780 	3630 	0.058811
33.29 	0.062226 	3648 	0.060299
33.31 	0.057104 	3660 	0.055957
33.33 	0.063483 	3686 	0.062848
33.35 	0.053871 	3694 	0.053078
33.37 	0.061389 	3714 	0.060285
33.39 	0.060070 	3729 	0.059258
33.41 	0.060963 	3740 	0.060493
33.43 	0.064345 	3761 	0.063877
33.45 	0.057249 	3773 	0.056162
33.47 	0.063981 	3798 	0.063210
33.49 	0.058283 	3809 	0.057822
33.51 	0.059240 	3815 	0.058933
33.53 	0.059099 	3841 	0.058032
33.55 	0.057247 	3843 	0.056485
33.57 	0.061646 	3877 	0.060739
33.59 	0.060825 	3880 	0.060221
33.61 	0.055257 	3909 	0.053908
33.63 	0.053330 	3919 	0.052284
33.65 	0.055202 	3931 	0.054606
33.67 	0.063480 	3954 	0.062443
33.69 	0.058943 	3953 	0.057757
33.71 	0.062138 	3975 	0.061402
33.73 	0.052198 	4004 	0.051466
33.75 	0.057014 	3999 	0.056428
33.77 	0.056894 	4025 	0.055997
33.79 	0.058649 	4041 	0.057634
33.81 	0.053492 	4038 	0.052186
33.83 	0.055556 	4050 	0.055122
33.85 	0.059039 	4099 	0.058610
33.87 	0.064218 	4111 	0.063363
33.89 	0.056297 	4121 	0.055444
33.91 	0.058327 	4149 	0.057621
33.93 	0.058540 	4151 	0.057693
33.95 	0.055250 	4181 	0.054129
33.97 	0.059427 	4190 	0.058169
33.99 	0.056429 	4200 	0.055731
34.01 	0.054593 	4213 	0.053319
34.03 	0.055137 	4244 	0.054861
34.05 	0.064911 	4252 	0.063808
34.07 	0.060216 	4268 	0.059804
34.09 	0.061363 	4286 	0.059973
34.11 	0.063226 	4302 	0.062409
34.13 	0.054085 	4308 	0.053383
34.15 	0.061187 	4331 	0.060781
34.17 	0.060920 	4350 	0.059842
34.19 	0.061898 	4362 	0.060824
34.21 	0.054221 	4371 	0.053417
34.23 	0.057592 	4393 	0.056525
34.25 	0.058129 	4404 	0.057198
34.27 	0.059475 	4422 	0.058924
34.29 	0.060654 	4435 	0.059993
34.31 	0.056079 	4458 	0.055553
34.33 	0.054574 	4471 	0.054050
34.35 	0.062221 	4484 	0.060763
34.37 	0.051659 	4491 	0.050746
34.39 	0.059307 	4502 	0.058266
34.41 	0.061202 	4526 	0.059649
34.43 	0.053316 	4539 	0.052283
34.45 	0.068137 	4535 	0.066436
34.47 	0.062718 	4592 	0.061676
34.49 	0.060257 	4597 	0.059237
34.51 	0.055363 	4606 	0.054345
34.53 	0.060737 	4643 	0.059853
34.55 	0.061167 	4643 	0.059759
34.57 	0.057511 	4660 	0.056882
34.59 	0.055187 	4675 	0.054310
34.61 	0.064296 	4697 	0.063049
34.63 	0.059448 	4710 	0.058577
34.65 	0.057191 	4721 	0.055930
34.67 	0.056739 	4741 	0.055009
34.69 	0.054691 	4754 	0.054198
34.71 	0.057910 	4766 	0.057419
34.73 	0.060790 	4787 	0.060300
34.75 	0.063228 	4808 	0.062010
34.77 	0.062682 	4818 	0.061344
34.79 	0.060116 	4824 	0.059023
34.81 	0.056347 	4845 	0.055259
34.83 	0.059852 	4862 	0.059129
34.85 	0.055247 	4869 	0.054285
34.87 	0.059367 	4868 	0.058505
34.89 	0.061245 	4882 	0.060046
34.91 	0.061655 	4882 	0.060455
34.93 	0.067361 	4899 	0.066045
34.95 	0.054806 	4890 	0.053468
34.97 	0.064259 	4902 	0.063184
34.99 	0.057178 	4897 	0.055603
35.01 	0.070485 	4923 	0.069415
35.03 	0.061097 	4943 	0.060030
35.05 	0.058824 	4947 	0.057758
35.07 	0.059312 	4940 	0.058363
35.09 	0.059156 	4953 	0.057619
35.11 	0.057409 	4947 	0.056343
35.13 	0.059500 	4958 	0.058535
35.15 	0.059753 	4937 	0.058566
35.17 	0.060453 	4946 	0.059032
35.19 	0.059490 	4942 	0.058660
35.21 	0.057836 	4945 	0.056652
35.23 	0.064510 	4945 	0.062694
35.25 	0.054825 	4943 	0.053995
35.27 	0.064470 	4948 	0.063287
35.29 	0.059858 	4945 	0.057470
35.31 	0.056355 	4933 	0.055405
35.33 	0.063929 	4943 	0.061895
35.35 	0.055038 	4942 	0.053834
35.37 	0.055679 	4939 	0.054830
35.39 	0.055005 	4945 	0.054176
35.41 	0.058465 	4926 	0.057871
35.43 	0.060409 	4933 	0.058510
35.45 	0.060158 	4937 	0.059189
35.47 	0.062665 	4931 	0.061596
35.49 	0.059674 	4910 	0.058581
35.51 	0.062525 	4926 	0.061317
35.53 	0.054961 	4949 	0.054014
35.55 	0.055207 	4945 	0.054378
35.57 	0.052909 	4933 	0.051840
35.59 	0.061072 	4945 	0.059887
35.61 	0.056657 	4942 	0.055590
35.63 	0.052195 	4943 	0.051109
35.65 	0.052781 	4945 	0.052169
35.67 	0.057871 	4942 	0.057397
35.69 	0.063283 	4946 	0.062691
35.71 	0.060361 	4937 	0.059767
35.73 	0.056524 	4936 	0.055317
35.75 	0.062259 	4931 	0.061546
35.77 	0.061402 	4951 	0.059982
35.79 	0.060016 	4932 	0.058690
35.81 	0.066086 	4933 	0.065116
35.83 	0.056611 	4946 	0.055427
35.85 	0.060182 	4935 	0.059233
35.87 	0.054032 	4923 	0.052842
35.89 	0.062829 	4934 	0.061642
35.91 	0.055612 	4927 	0.054542
35.93 	0.057236 	4927 	0.056522
35.95 	0.058572 	4917 	0.057381
35.97 	0.059650 	4912 	0.058577
35.99 	0.054667 	4939 	0.053600
36.01 	0.059026 	4930 	0.058195
36.03 	0.061299 	4943 	0.060232
36.05 	0.059656 	4945 	0.058709
36.07 	0.062766 	4939 	0.062173
36.09 	0.055870 	4940 	0.054547
36.11 	0.059038 	4929 	0.058444
36.13 	0.056455 	4942 	0.054795
36.15 	0.054667 	4939 	0.054074
36.17 	0.057462 	4925 	0.055896
36.19 	0.058502 	4940 	0.057435
36.21 	0.055386 	4929 	0.054911
36.23 	0.057953 	4935 	0.056984
36.25 	0.060919 	4941 	0.059832
36.27 	0.057868 	4925 	0.057154
36.29 	0.053742 	4931 	0.053148
36.31 	0.052963 	4928 	0.052249
36.33 	0.060612 	4933 	0.059781
36.35 	0.063502 	4929 	0.062432
36.37 	0.054438 	4923 	0.053962
36.39 	0.054867 	4921 	0.054034
36.41 	0.051266 	4896 	0.050907
36.43 	0.062906 	4928 	0.062054
36.45 	0.062069 	4930 	0.061356
36.47 	0.054700 	4936 	0.054225
36.49 	0.058681 	4942 	0.057614
36.51 	0.051287 	4933 	0.050456
36.53 	0.061299 	4943 	0.060094
36.55 	0.058453 	4927 	0.056650
36.57 	0.059384 	4934 	0.058553
36.59 	0.054060 	4939 	0.052973
36.61 	0.057392 	4931 	0.056560
36.63 	0.053336 	4931 	0.052504
36.65 	0.058394 	4932 	0.057325
36.67 	0.061460 	4930 	0.060510
36.69 	0.056807 	4929 	0.055856
36.71 	0.053648 	4921 	0.053052
36.73 	0.053198 	4925 	0.052722
36.75 	0.059871 	4944 	0.058449
36.77 	0.054279 	4919 	0.053327
36.79 	0.057305 	4921 	0.055996
36.81 	0.051465 	4916 	0.050750
36.83 	0.061241 	4915 	0.060407
36.85 	0.052470 	4898 	0.051394
36.87 	0.048341 	4944 	0.047631
36.89 	0.058991 	4916 	0.057442
36.91 	0.058693 	4941 	0.057626
36.93 	0.054970 	4930 	0.054375
36.95 	0.056355 	4933 	0.054792
36.97 	0.055330 	4934 	0.054499
36.99 	0.058156 	4935 	0.056850
37.01 	0.052504 	4933 	0.051197
37.03 	0.057474 	4924 	0.056522
37.05 	0.051959 	4927 	0.051483
37.07 	0.053698 	4935 	0.052986
37.09 	0.055601 	4928 	0.054887
37.11 	0.053090 	4935 	0.052259
37.13 	0.050366 	4924 	0.050009
37.15 	0.050723 	4909 	0.049769
37.17 	0.057965 	4934 	0.056897
37.19 	0.054010 	4925 	0.053297
37.21 	0.049827 	4917 	0.048854
37.23 	0.054900 	4918 	0.054047
37.25 	0.054775 	4911 	0.053940
37.27 	0.055783 	4894 	0.055064
37.29 	0.052535 	4930 	0.051823
37.31 	0.058156 	4935 	0.057088
37.33 	0.056018 	4927 	0.054809
37.35 	0.055488 	4938 	0.054658
37.37 	0.055206 	4927 	0.054374
37.39 	0.054958 	4931 	0.054364
37.41 	0.062665 	4931 	0.061596
37.43 	0.052920 	4932 	0.052326
37.45 	0.050975 	4924 	0.050142
37.47 	0.061676 	4929 	0.060725
37.49 	0.053423 	4923 	0.052590
37.51 	0.058990 	4933 	0.057764
37.53 	0.049604 	4919 	0.048651
37.55 	0.050507 	4930 	0.049675
37.57 	0.049746 	4925 	0.049033
37.59 	0.056562 	4915 	0.055350
37.61 	0.053027 	4922 	0.052789
37.63 	0.049807 	4919 	0.048973
37.65 	0.057544 	4918 	0.056472
37.67 	0.050775 	4904 	0.050655
37.69 	0.056962 	4898 	0.056244
37.71 	0.059038 	4929 	0.058206
37.73 	0.052343 	4929 	0.051492
37.75 	0.051417 	4940 	0.050449
37.77 	0.055894 	4920 	0.054922
37.79 	0.055375 	4930 	0.054306
37.81 	0.054531 	4933 	0.053818
37.83 	0.056707 	4920 	0.056092
37.85 	0.051402 	4922 	0.049974
37.87 	0.059121 	4939 	0.058528
37.89 	0.057462 	4925 	0.056273
37.91 	0.058418 	4930 	0.057348
37.93 	0.054279 	4919 	0.053565
37.95 	0.051209 	4921 	0.050257
37.97 	0.052952 	4929 	0.052001
37.99 	0.053746 	4912 	0.052434
38.01 	0.059862 	4928 	0.059129
38.03 	0.058057 	4909 	0.057102
38.05 	0.052183 	4925 	0.051350
38.07 	0.055612 	4909 	0.054658
38.09 	0.059451 	4878 	0.058730
38.11 	0.052077 	4935 	0.051009
38.13 	0.053879 	4937 	0.052811
38.15 	0.056120 	4918 	0.055148
38.17 	0.054970 	4930 	0.054613
38.19 	0.060852 	4930 	0.059664
38.21 	0.057282 	4923 	0.056806
38.23 	0.055083 	4938 	0.053759
38.25 	0.055522 	4917 	0.055045
38.27 	0.052941 	4930 	0.052228
38.29 	0.053818 	4924 	0.053104
38.31 	0.062310 	4927 	0.061359
38.33 	0.058895 	4924 	0.057587
38.35 	0.057833 	4928 	0.056763
38.37 	0.061129 	4924 	0.060296
38.39 	0.060297 	4909 	0.059820
38.41 	0.055048 	4923 	0.053739
38.43 	0.066517 	4916 	0.064611
38.45 	0.063034 	4918 	0.061823
38.47 	0.066028 	4907 	0.064596
38.49 	0.064999 	4877 	0.063918
38.51 	0.063869 	4932 	0.062325
38.53 	0.064719 	4929 	0.064006
38.55 	0.066856 	4936 	0.065550
38.57 	0.069876 	4923 	0.068567
38.59 	0.062551 	4924 	0.061242
38.61 	0.066653 	4936 	0.065110
38.63 	0.071690 	4924 	0.070024
38.65 	0.064050 	4918 	0.062740
38.67 	0.067855 	4937 	0.066668
38.69 	0.059325 	4922 	0.058373
38.71 	0.068237 	4924 	0.066433
38.73 	0.065474 	4918 	0.064402
38.75 	0.063933 	4927 	0.062744
38.77 	0.064189 	4923 	0.062999
38.79 	0.058370 	4934 	0.057421
38.81 	0.053339 	4912 	0.052981
38.83 	0.051230 	4919 	0.050754
38.85 	0.054560 	4912 	0.053964
38.87 	0.051721 	4911 	0.050528
38.89 	0.060037 	4897 	0.059080
38.91 	0.053641 	4903 	0.053282
38.93 	0.054475 	4938 	0.054001
38.95 	0.055917 	4918 	0.055321
38.97 	0.055972 	4931 	0.055260
38.99 	0.061981 	4937 	0.060557
39.01 	0.049207 	4918 	0.048731
39.03 	0.051277 	4934 	0.050802
39.05 	0.055431 	4925 	0.053608
39.07 	0.051381 	4924 	0.050429
39.09 	0.058501 	4923 	0.058263
39.11 	0.048672 	4931 	0.048434
39.13 	0.053829 	4923 	0.052520
39.15 	0.054527 	4915 	0.054289
39.17 	0.050030 	4937 	0.049437
39.19 	0.052674 	4917 	0.051960
39.21 	0.050306 	4910 	0.049809
39.23 	0.055431 	4925 	0.054242
39.25 	0.052824 	4922 	0.051991
39.27 	0.052953 	4910 	0.051522
39.29 	0.054887 	4901 	0.053931
39.31 	0.050369 	4884 	0.049769
39.33 	0.052119 	4931 	0.051288
39.35 	0.056738 	4935 	0.055432
39.37 	0.051735 	4929 	0.051022
39.39 	0.044837 	4929 	0.044104
39.41 	0.058000 	4931 	0.057030
39.43 	0.051287 	4933 	0.050575
39.45 	0.052589 	4925 	0.052232
39.47 	0.050579 	4923 	0.050103
39.49 	0.054733 	4933 	0.053783
39.51 	0.055849 	4924 	0.054540
39.53 	0.055454 	4923 	0.054859
39.55 	0.053466 	4919 	0.052871
39.57 	0.057571 	4933 	0.055909
39.59 	0.057614 	4912 	0.056183
39.61 	0.060329 	4923 	0.059377
39.63 	0.050996 	4922 	0.050043
39.65 	0.057044 	4926 	0.056311
39.67 	0.056585 	4913 	0.055988
39.69 	0.050651 	4916 	0.050174
39.71 	0.054137 	4895 	0.052940
39.73 	0.053178 	4908 	0.052462
39.75 	0.050731 	4928 	0.050612
39.77 	0.053495 	4935 	0.053021
39.79 	0.057044 	4926 	0.055617
39.81 	0.052770 	4927 	0.052057
39.83 	0.057560 	4934 	0.056373
39.85 	0.059671 	4927 	0.058363
39.87 	0.054822 	4925 	0.054109
39.89 	0.053506 	4934 	0.052675
39.91 	0.060138 	4922 	0.059305
39.93 	0.050233 	4937 	0.049046
39.95 	0.060020 	4915 	0.058948
39.97 	0.058442 	4928 	0.057134
39.99 	0.052717 	4932 	0.052242
40.01 	0.049410 	4918 	0.048457
40.03 	0.055398 	4928 	0.055160
40.05 	0.050234 	4917 	0.049519
40.07 	0.053829 	4923 	0.052619
40.09 	0.046786 	4916 	0.046548
40.11 	0.052889 	4916 	0.051935
40.13 	0.043505 	4896 	0.042907
40.15 	0.050275 	4913 	0.049082
40.17 	0.059862 	4928 	0.058317
40.19 	0.046460 	4929 	0.045509
40.21 	0.057751 	4935 	0.056406
40.23 	0.050487 	4932 	0.049497
40.25 	0.043699 	4920 	0.043104
40.27 	0.050841 	4937 	0.050247
40.29 	0.055409 	4927 	0.054815
40.31 	0.050820 	4939 	0.049871
40.33 	0.046229 	4932 	0.045635
40.35 	0.049400 	4919 	0.048805
40.37 	0.050314 	4929 	0.049601
40.39 	0.050091 	4931 	0.049121
40.41 	0.053401 	4925 	0.052806
40.43 	0.046932 	4922 	0.046218
40.45 	0.054531 	4933 	0.053699
40.47 	0.051444 	4918 	0.050372
40.49 	0.050548 	4926 	0.050191
40.51 	0.052011 	4922 	0.051535
40.53 	0.052482 	4916 	0.051767
40.55 	0.050530 	4908 	0.049794
40.57 	0.050307 	4890 	0.049229
40.59 	0.052258 	4937 	0.051665
40.61 	0.058156 	4935 	0.056376
40.63 	0.049087 	4930 	0.048374
40.65 	0.050638 	4937 	0.049689
40.67 	0.053933 	4932 	0.052983
40.69 	0.049828 	4937 	0.049116
40.71 	0.051703 	4932 	0.050991
40.73 	0.051766 	4926 	0.050577
40.75 	0.048672 	4931 	0.048078
40.77 	0.051427 	4939 	0.050834
40.79 	0.050569 	4924 	0.049974
40.81 	0.051204 	4941 	0.050137
40.83 	0.049107 	4928 	0.048037
40.85 	0.046507 	4924 	0.045793
40.87 	0.055398 	4928 	0.054427
40.89 	0.049888 	4931 	0.049631
40.91 	0.043266 	4923 	0.043028
40.93 	0.048439 	4934 	0.047727
40.95 	0.054549 	4913 	0.053357
40.97 	0.051990 	4924 	0.051395
40.99 	0.053615 	4924 	0.052901
41.01 	0.050285 	4912 	0.049431
41.03 	0.056065 	4905 	0.055468
41.05 	0.053890 	4936 	0.052940
41.07 	0.056998 	4930 	0.055453
41.09 	0.050820 	4939 	0.049634
41.11 	0.046606 	4935 	0.046012
41.13 	0.048217 	4936 	0.047624
41.15 	0.053835 	4941 	0.053124
41.17 	0.052493 	4934 	0.052018
41.19 	0.046450 	4930 	0.046094
41.21 	0.052056 	4937 	0.050988
41.23 	0.047176 	4939 	0.046464
41.25 	0.047233 	4933 	0.046639
41.27 	0.049888 	4931 	0.049413
41.29 	0.058644 	4928 	0.058169
41.31 	0.051895 	4933 	0.051183
41.33 	0.050233 	4937 	0.049402
41.35 	0.047388 	4938 	0.047269
41.37 	0.049147 	4924 	0.047957
41.39 	0.045408 	4933 	0.044577
41.41 	0.048721 	4926 	0.048008
41.43 	0.053358 	4929 	0.052407
41.45 	0.049451 	4914 	0.048855
41.47 	0.048315 	4926 	0.047483
41.49 	0.048242 	4892 	0.047284
41.51 	0.051822 	4940 	0.051110
41.53 	0.048341 	4944 	0.047730
41.55 	0.050253 	4935 	0.049778
41.57 	0.051609 	4941 	0.050760
41.59 	0.053923 	4933 	0.052716
41.61 	0.049263 	4953 	0.048672
41.63 	0.054070 	4938 	0.052528
41.65 	0.053763 	4929 	0.053050
41.67 	0.046559 	4940 	0.046084
41.69 	0.052759 	4947 	0.052167
41.71 	0.050669 	4934 	0.050075
41.73 	0.050446 	4936 	0.050090
41.75 	0.058024 	4929 	0.057311
41.77 	0.046954 	4941 	0.045986
41.79 	0.049960 	4944 	0.049486
41.81 	0.049433 	4936 	0.048721
41.83 	0.043019 	4928 	0.042544
41.85 	0.051832 	4939 	0.050983
41.87 	0.050659 	4935 	0.049828
41.89 	0.047436 	4933 	0.047079
41.91 	0.048217 	4936 	0.047861
41.93 	0.051500 	4932 	0.051144
41.95 	0.047455 	4931 	0.046505
41.97 	0.051079 	4914 	0.050483
41.99 	0.045464 	4905 	0.045106
42.01 	0.041279 	4942 	0.041042
42.03 	0.051427 	4939 	0.050597
42.05 	0.049677 	4952 	0.049204
42.07 	0.049018 	4937 	0.048424
42.09 	0.051738 	4948 	0.051028
42.11 	0.049545 	4945 	0.048459
42.13 	0.049141 	4945 	0.047936
42.15 	0.044755 	4938 	0.044162
42.17 	0.049207 	4918 	0.048235
42.19 	0.048696 	4908 	0.047980
42.21 	0.047337 	4901 	0.046600
42.23 	0.041701 	4892 	0.041342
42.25 	0.052158 	4889 	0.051439
42.27 	0.044727 	4874 	0.044367
42.29 	0.044623 	4863 	0.044020
42.31 	0.051081 	4855 	0.050719
42.33 	0.045097 	4834 	0.044370
42.35 	0.050021 	4838 	0.048810
42.37 	0.044720 	4830 	0.043993
42.39 	0.046420 	4804 	0.045912
42.41 	0.048709 	4804 	0.048100
42.43 	0.056970 	4792 	0.055748
42.45 	0.047111 	4776 	0.046109
42.47 	0.043022 	4765 	0.042653
42.49 	0.045540 	4765 	0.044926
42.51 	0.046173 	4743 	0.045432
42.53 	0.045897 	4728 	0.045277
42.55 	0.046092 	4708 	0.045470
42.57 	0.045666 	4730 	0.045047
42.59 	0.044195 	4729 	0.043700
42.61 	0.043331 	4708 	0.042957
42.63 	0.050966 	4709 	0.050469
42.65 	0.045678 	4685 	0.045053
42.67 	0.040350 	4684 	0.039975
42.69 	0.046213 	4674 	0.046088
42.71 	0.044821 	4663 	0.043690
42.73 	0.046983 	4640 	0.046352
42.75 	0.050249 	4617 	0.049615
42.77 	0.041957 	4600 	0.041447
42.79 	0.042340 	4582 	0.041828
42.81 	0.049540 	4562 	0.048769
42.83 	0.041887 	4536 	0.041500
42.85 	0.045274 	4528 	0.044498
42.87 	0.049789 	4499 	0.049268
42.89 	0.042411 	4480 	0.041474
42.91 	0.047576 	4456 	0.047313
42.93 	0.049483 	4446 	0.048802
42.95 	0.048913 	4416 	0.048228
42.97 	0.048853 	4401 	0.048187
42.99 	0.047662 	4385 	0.046727
43.01 	0.046298 	4363 	0.046164
43.03 	0.043850 	4333 	0.043038
43.05 	0.046705 	4325 	0.046434
43.07 	0.049581 	4296 	0.048899
43.09 	0.044595 	4283 	0.044048
43.11 	0.051234 	4255 	0.050270
43.13 	0.044135 	4237 	0.043305
43.15 	0.048027 	4206 	0.047748
43.17 	0.048098 	4179 	0.047537
43.19 	0.044349 	4194 	0.043371
43.21 	0.048658 	4172 	0.048377
43.23 	0.046702 	4154 	0.045551
43.25 	0.042322 	4135 	0.041755
43.27 	0.043362 	4105 	0.042791
43.29 	0.046341 	4100 	0.045627
43.31 	0.043883 	4079 	0.043309
43.33 	0.049124 	4051 	0.048834
43.35 	0.046379 	4032 	0.045362
43.37 	0.048817 	4015 	0.047942
43.39 	0.044228 	4002 	0.043057
43.41 	0.046828 	3972 	0.046238
43.43 	0.046970 	3960 	0.046082
43.45 	0.048539 	3935 	0.048092
43.47 	0.048712 	3921 	0.047965
43.49 	0.048499 	3897 	0.047597
43.51 	0.043848 	3877 	0.043244
43.53 	0.046337 	3863 	0.045427
43.55 	0.047908 	2964 	0.047118
43.57 	0.048257 	2238 	0.047472
43.59 	0.049828 	1746 	0.049493
43.61 	0.042191 	1351 	0.042191
43.63 	0.048951 	1001 	0.048366
43.65 	0.034934 	687 	0.034934
43.67 	0.037849 	502 	0.037849
43.69 	0.029973 	367 	0.029973
43.71 	0.050209 	239 	0.047758
43.73 	0.041667 	120 	0.041667
43.75 	0.000000 	16 	0.000000