File: Example_Data/25SC_s1_0041.002.dat
#F C:\frames\spec\25SC_s1_0041.002
#C title =s:41 frm:2 25SC_s1
#C wavelength =0.15406

#S 1  fr_average C:\frames\spec\25SC_s1_0041.002 C:\win32app\speccom\mask.axs chi 0 180 0 360 0.02
#C 2 theta =0.000000 to 180 deg
#C   q   =0.000000 to 81.568 nm^-1
#C  chi  =0.000000 to 360 deg
#C collumns:
#C  1 position (2theta or chi in degrees)
#C  2 average intensity (sum of all counts in the region divided with number of pixels)
#C  3 Number of pixels in region)
#C  4 error (sum of sqrt(intensity) for all pixels divided by number)
#N 4
#L TTh  Int  N_pix  Err
32.99 	0.081967 	61 	0.081967
33.01 	0.056128 	873 	0.054786
33.03 	0.069015 	1391 	0.068173
33.05 	0.056915 	1757 	0.056248
33.07 	0.063415 	2050 	0.061700
33.09 	0.066468 	2347 	0.065969
33.11 	0.060101 	2579 	0.059192
33.13 	0.057644 	2793 	0.056176
33.15 	0.068356 	2999 	0.066794
33.17 	0.061543 	3201 	0.060445
33.19 	0.060443 	3342 	0.059041
33.21 	0.057916 	3436 	0.057234
33.23 	0.058757 	3523 	0.057067
33.25 	0.058416 	3612 	0.057930
33.27 	0.057025 	3630 	0.055895
33.29 	0.059211 	3648 	0.057926
33.31 	0.058743 	3660 	0.057303
33.33 	0.057515 	3686 	0.056720
33.35 	0.058473 	3694 	0.057363
33.37 	0.055735 	3714 	0.054473
33.39 	0.066238 	3729 	0.065295
33.41 	0.061765 	3740 	0.060042
33.43 	0.055836 	3761 	0.055369
33.45 	0.054068 	3773 	0.053447
33.47 	0.059505 	3798 	0.058734
33.49 	0.053820 	3809 	0.052743
33.51 	0.056094 	3815 	0.055941
33.53 	0.054673 	3841 	0.053606
33.55 	0.058288 	3843 	0.057526
33.57 	0.060098 	3877 	0.059040
33.59 	0.051546 	3880 	0.050942
33.61 	0.057815 	3909 	0.056766
33.63 	0.059964 	3919 	0.059516
33.65 	0.056474 	3931 	0.055580
33.67 	0.058169 	3954 	0.056836
33.69 	0.051353 	3953 	0.050909
33.71 	0.057107 	3975 	0.056517
33.73 	0.053447 	4004 	0.052569
33.75 	0.059015 	3999 	0.056793
33.77 	0.055155 	4025 	0.054573
33.79 	0.056669 	4041 	0.055364
33.81 	0.068103 	4038 	0.066507
33.83 	0.060741 	4050 	0.059728
33.85 	0.059527 	4099 	0.058669
33.87 	0.060326 	4111 	0.059471
33.89 	0.060422 	4121 	0.059854
33.91 	0.060738 	4149 	0.059749
33.93 	0.059745 	4151 	0.058898
33.95 	0.058120 	4181 	0.057700
33.97 	0.066348 	4190 	0.066069
33.99 	0.057619 	4200 	0.056922
34.01 	0.061002 	4213 	0.059611
34.03 	0.059378 	4244 	0.058136
34.05 	0.063735 	4252 	0.062885
34.07 	0.059513 	4268 	0.058689
34.09 	0.058796 	4286 	0.057976
34.11 	0.057415 	4302 	0.056167
34.13 	0.058264 	4308 	0.056768
34.15 	0.053567 	4331 	0.052891
34.17 	0.057931 	4350 	0.056719
34.19 	0.058459 	4362 	0.057497
34.21 	0.057424 	4371 	0.056620
34.23 	0.059185 	4393 	0.057852
34.25 	0.053134 	4404 	0.051803
34.27 	0.058118 	4422 	0.056772
34.29 	0.052537 	4435 	0.051744
34.31 	0.056528 	4458 	0.055061
34.33 	0.055469 	4471 	0.054027
34.35 	0.057538 	4484 	0.056754
34.37 	0.057448 	4491 	0.056535
34.39 	0.056864 	4502 	0.056083
34.41 	0.051922 	4526 	0.051383
34.43 	0.053316 	4539 	0.052541
34.45 	0.058655 	4535 	0.057751
34.47 	0.057056 	4592 	0.055121
34.49 	0.055906 	4597 	0.055141
34.51 	0.061876 	4606 	0.060477
34.53 	0.061813 	4643 	0.060804
34.55 	0.055137 	4643 	0.054380
34.57 	0.057296 	4660 	0.056416
34.59 	0.052406 	4675 	0.051905
34.61 	0.057271 	4697 	0.056023
34.63 	0.054989 	4710 	0.053352
34.65 	0.059521 	4721 	0.058156
34.67 	0.063067 	4741 	0.062078
34.69 	0.057425 	4754 	0.056932
34.71 	0.060428 	4766 	0.059425
34.73 	0.061207 	4787 	0.060228
34.75 	0.054077 	4808 	0.053102
34.77 	0.058531 	4818 	0.057416
34.79 	0.056799 	4824 	0.056071
34.81 	0.056553 	4845 	0.055586
34.83 	0.052653 	4862 	0.051930
34.85 	0.053604 	4869 	0.052762
34.87 	0.057313 	4868 	0.056471
34.89 	0.050799 	4882 	0.050319
34.91 	0.059402 	4882 	0.057942
34.93 	0.058992 	4899 	0.057776
34.95 	0.059714 	4890 	0.058256
34.97 	0.056100 	4902 	0.054407
34.99 	0.059220 	4897 	0.058143
35.01 	0.058298 	4923 	0.057941
35.03 	0.059883 	4943 	0.059053
35.05 	0.056600 	4947 	0.055416
35.07 	0.057287 	4940 	0.055864
35.09 	0.059358 	4953 	0.058175
35.11 	0.054983 	4947 	0.054272
35.13 	0.053247 	4958 	0.052184
35.15 	0.055094 	4937 	0.054501
35.17 	0.052972 	4946 	0.052261
35.19 	0.061716 	4942 	0.060412
35.21 	0.053994 	4945 	0.053520
35.23 	0.059252 	4945 	0.057949
35.25 	0.048554 	4943 	0.047842
35.27 	0.059620 	4948 	0.058555
35.29 	0.056016 	4945 	0.055424
35.31 	0.055342 	4933 	0.054253
35.33 	0.056039 	4943 	0.055209
35.35 	0.055848 	4942 	0.055117
35.37 	0.059121 	4939 	0.058172
35.39 	0.055612 	4945 	0.054072
35.41 	0.056029 	4926 	0.055316
35.43 	0.051490 	4933 	0.051015
35.45 	0.057120 	4937 	0.056289
35.47 	0.054350 	4931 	0.053637
35.49 	0.051527 	4910 	0.050414
35.51 	0.052578 	4926 	0.051865
35.53 	0.056173 	4949 	0.055344
35.55 	0.058443 	4945 	0.057614
35.57 	0.065072 	4933 	0.064241
35.59 	0.058241 	4945 	0.057056
35.61 	0.050182 	4942 	0.049708
35.63 	0.055027 	4943 	0.054316
35.65 	0.052174 	4945 	0.051700
35.67 	0.057062 	4942 	0.056706
35.69 	0.057420 	4946 	0.056591
35.71 	0.059348 	4937 	0.058142
35.73 	0.057942 	4936 	0.056992
35.75 	0.056986 	4931 	0.055917
35.77 	0.049889 	4951 	0.048923
35.79 	0.054339 	4932 	0.053508
35.81 	0.056558 	4933 	0.055588
35.83 	0.052568 	4946 	0.051739
35.85 	0.057143 	4935 	0.055956
35.87 	0.058501 	4923 	0.057291
35.89 	0.054520 	4934 	0.053907
35.91 	0.056424 	4927 	0.055116
35.93 	0.055003 	4927 	0.054409
35.95 	0.059182 	4917 	0.058229
35.97 	0.055985 	4912 	0.055389
35.99 	0.052845 	4939 	0.051521
36.01 	0.055578 	4930 	0.054984
36.03 	0.057050 	4943 	0.055865
36.05 	0.062487 	4945 	0.061303
36.07 	0.054060 	4939 	0.053704
36.09 	0.058097 	4940 	0.057030
36.11 	0.055589 	4929 	0.055114
36.13 	0.064549 	4942 	0.063107
36.15 	0.058919 	4939 	0.058326
36.17 	0.056853 	4925 	0.055544
36.19 	0.061134 	4940 	0.060304
36.21 	0.055995 	4929 	0.055401
36.23 	0.062006 	4935 	0.060582
36.25 	0.052216 	4941 	0.051860
36.27 	0.050558 	4925 	0.049964
36.29 	0.055364 	4931 	0.054770
36.31 	0.049716 	4928 	0.049003
36.33 	0.056152 	4933 	0.055321
36.35 	0.052140 	4929 	0.051546
36.37 	0.054845 	4923 	0.054131
36.39 	0.054054 	4921 	0.052983
36.41 	0.056373 	4896 	0.055415
36.43 	0.053774 	4928 	0.052942
36.45 	0.055172 	4930 	0.054103
36.47 	0.052674 	4936 	0.052081
36.49 	0.047956 	4942 	0.047719
36.51 	0.055342 	4933 	0.054629
36.53 	0.053813 	4943 	0.052747
36.55 	0.056830 	4927 	0.055572
36.57 	0.057762 	4934 	0.057050
36.59 	0.055072 	4939 	0.053767
36.61 	0.051714 	4931 	0.051120
36.63 	0.060637 	4931 	0.059786
36.65 	0.057989 	4932 	0.057514
36.67 	0.056592 	4930 	0.055879
36.69 	0.057618 	4929 	0.056648
36.71 	0.058931 	4921 	0.057622
36.73 	0.051371 	4925 	0.050776
36.75 	0.050971 	4944 	0.050260
36.77 	0.054686 	4919 	0.053475
36.79 	0.051819 	4921 	0.051343
36.81 	0.051465 	4916 	0.050630
36.83 	0.058596 	4915 	0.057523
36.85 	0.058187 	4898 	0.056871
36.87 	0.057848 	4944 	0.057255
36.89 	0.054312 	4916 	0.053597
36.91 	0.051002 	4941 	0.050290
36.93 	0.054361 	4930 	0.053292
36.95 	0.055544 	4933 	0.054713
36.97 	0.051682 	4934 	0.051089
36.99 	0.051672 	4935 	0.050347
37.01 	0.054733 	4933 	0.054258
37.03 	0.052193 	4924 	0.050984
37.05 	0.059062 	4927 	0.058230
37.07 	0.054306 	4935 	0.053475
37.09 	0.050122 	4928 	0.049171
37.11 	0.053293 	4935 	0.052343
37.13 	0.051584 	4924 	0.051108
37.15 	0.054390 	4909 	0.053913
37.17 	0.053709 	4934 	0.053234
37.19 	0.054416 	4925 	0.053207
37.21 	0.052064 	4917 	0.051230
37.23 	0.055104 	4918 	0.053774
37.25 	0.056608 	4911 	0.055653
37.27 	0.055783 	4894 	0.054945
37.29 	0.056795 	4930 	0.056082
37.31 	0.054103 	4935 	0.053391
37.33 	0.053176 	4927 	0.052106
37.35 	0.054678 	4938 	0.054441
37.37 	0.055815 	4927 	0.054983
37.39 	0.049077 	4931 	0.047771
37.41 	0.050902 	4931 	0.049833
37.43 	0.055758 	4932 	0.055283
37.45 	0.051178 	4924 	0.050107
37.47 	0.051329 	4929 	0.050616
37.49 	0.050173 	4923 	0.049697
37.51 	0.051490 	4933 	0.050777
37.53 	0.054686 	4919 	0.053019
37.55 	0.049087 	4930 	0.048612
37.57 	0.048934 	4925 	0.048577
37.59 	0.050865 	4915 	0.050269
37.61 	0.051402 	4922 	0.051045
37.63 	0.053060 	4919 	0.052107
37.65 	0.052867 	4918 	0.052271
37.67 	0.051591 	4904 	0.050635
37.69 	0.053900 	4898 	0.053302
37.71 	0.052952 	4929 	0.052477
37.73 	0.048894 	4929 	0.048300
37.75 	0.052834 	4940 	0.051767
37.77 	0.050203 	4920 	0.049489
37.79 	0.056998 	4930 	0.055810
37.81 	0.054531 	4933 	0.053462
37.83 	0.051829 	4920 	0.050996
37.85 	0.052215 	4922 	0.051738
37.87 	0.057097 	4939 	0.056504
37.89 	0.055228 	4925 	0.054277
37.91 	0.051927 	4930 	0.051452
37.93 	0.052450 	4919 	0.051259
37.95 	0.052835 	4921 	0.051882
37.97 	0.054778 	4929 	0.054540
37.99 	0.052117 	4912 	0.051382
38.01 	0.051948 	4928 	0.050759
38.03 	0.050519 	4909 	0.049565
38.05 	0.051980 	4925 	0.051623
38.07 	0.055816 	4909 	0.054623
38.09 	0.056991 	4878 	0.055910
38.11 	0.052280 	4935 	0.052161
38.13 	0.056715 	4937 	0.056240
38.15 	0.057137 	4918 	0.056184
38.17 	0.055172 	4930 	0.054697
38.19 	0.050101 	4930 	0.049270
38.21 	0.058704 	4923 	0.057752
38.23 	0.057918 	4938 	0.057444
38.25 	0.052471 	4917 	0.051875
38.27 	0.062069 	4930 	0.060762
38.29 	0.061535 	4924 	0.060207
38.31 	0.061904 	4927 	0.060715
38.33 	0.061738 	4924 	0.060529
38.35 	0.063718 	4928 	0.062291
38.37 	0.059708 	4924 	0.058994
38.39 	0.066612 	4909 	0.065419
38.41 	0.061548 	4923 	0.060358
38.43 	0.060618 	4916 	0.059427
38.45 	0.064050 	4918 	0.062978
38.47 	0.059303 	4907 	0.058826
38.49 	0.068690 	4877 	0.067489
38.51 	0.071168 	4932 	0.070099
38.53 	0.061067 	4929 	0.060473
38.55 	0.066451 	4936 	0.064433
38.57 	0.061548 	4923 	0.060338
38.59 	0.060520 	4924 	0.059449
38.61 	0.069287 	4936 	0.068100
38.63 	0.053818 	4924 	0.053104
38.65 	0.057950 	4918 	0.056521
38.67 	0.061576 	4937 	0.060745
38.69 	0.059529 	4922 	0.058200
38.71 	0.056864 	4924 	0.055417
38.73 	0.057340 	4918 	0.056507
38.75 	0.054597 	4927 	0.053508
38.77 	0.053016 	4923 	0.052184
38.79 	0.052898 	4934 	0.052305
38.81 	0.052117 	4912 	0.051640
38.83 	0.049400 	4919 	0.048924
38.85 	0.050285 	4912 	0.049450
38.87 	0.044390 	4911 	0.044152
38.89 	0.045538 	4897 	0.045179
38.91 	0.046910 	4903 	0.046671
38.93 	0.044552 	4938 	0.043959
38.95 	0.045750 	4918 	0.045512
38.97 	0.047252 	4931 	0.046539
38.99 	0.046384 	4937 	0.045910
39.01 	0.041684 	4918 	0.040711
39.03 	0.043575 	4934 	0.042982
39.05 	0.048934 	4925 	0.048339
39.07 	0.046913 	4924 	0.046199
39.09 	0.047126 	4923 	0.045579
39.11 	0.047252 	4931 	0.046777
39.13 	0.044485 	4923 	0.043752
39.15 	0.045575 	4915 	0.044740
39.17 	0.048613 	4937 	0.048138
39.19 	0.045149 	4917 	0.044554
39.21 	0.046436 	4910 	0.046078
39.23 	0.044670 	4925 	0.044313
39.25 	0.045510 	4922 	0.044776
39.27 	0.046843 	4910 	0.045769
39.29 	0.041012 	4901 	0.040275
39.31 	0.046683 	4884 	0.045843
39.33 	0.043805 	4931 	0.043211
39.35 	0.040527 	4935 	0.040289
39.37 	0.049300 	4929 	0.048825
39.39 	0.043011 	4929 	0.042417
39.41 	0.045832 	4931 	0.045357
39.43 	0.041962 	4933 	0.041012
39.45 	0.049746 	4925 	0.049627
39.47 	0.040219 	4923 	0.039386
39.49 	0.051085 	4933 	0.050135
39.51 	0.044273 	4924 	0.043559
39.53 	0.050173 	4923 	0.049935
39.55 	0.044115 	4919 	0.043500
39.57 	0.049868 	4933 	0.049512
39.59 	0.048453 	4912 	0.048095
39.61 	0.042454 	4923 	0.042097
39.63 	0.044697 	4922 	0.044459
39.65 	0.043646 	4926 	0.043170
39.67 	0.042133 	4913 	0.041775
39.69 	0.046583 	4916 	0.046225
39.71 	0.042084 	4895 	0.041725
39.73 	0.044010 	4908 	0.043174
39.75 	0.042005 	4928 	0.041886
39.77 	0.045187 	4935 	0.044357
39.79 	0.047097 	4926 	0.045869
39.81 	0.048102 	4927 	0.047746
39.83 	0.039522 	4934 	0.038928
39.85 	0.041607 	4927 	0.041489
39.87 	0.043858 	4925 	0.043501
39.89 	0.046818 	4934 	0.045987
39.91 	0.039212 	4922 	0.038260
39.93 	0.045169 	4937 	0.044695
39.95 	0.046999 	4915 	0.046284
39.97 	0.042411 	4928 	0.042054
39.99 	0.048054 	4932 	0.047103
40.01 	0.048800 	4918 	0.048086
40.03 	0.039367 	4928 	0.038773
40.05 	0.043522 	4917 	0.043284
40.07 	0.042454 	4923 	0.041859
40.09 	0.039056 	4916 	0.039056
40.11 	0.045362 	4916 	0.044370
40.13 	0.044526 	4896 	0.043689
40.15 	0.042133 	4913 	0.042014
40.17 	0.041193 	4928 	0.040460
40.19 	0.049097 	4929 	0.048216
40.21 	0.041743 	4935 	0.041505
40.23 	0.037510 	4932 	0.036679
40.25 	0.051423 	4920 	0.050589
40.27 	0.041928 	4937 	0.041454
40.29 	0.044043 	4927 	0.043567
40.31 	0.036445 	4939 	0.035496
40.33 	0.039132 	4932 	0.038776
40.35 	0.041472 	4919 	0.040996
40.37 	0.045445 	4929 	0.044732
40.39 	0.039951 	4931 	0.039714
40.41 	0.043452 	4925 	0.042976
40.43 	0.042056 	4922 	0.041818
40.45 	0.038516 	4933 	0.038397
40.47 	0.039244 	4918 	0.038648
40.49 	0.042428 	4926 	0.041457
40.51 	0.047135 	4922 	0.046283
40.53 	0.041701 	4916 	0.041105
40.55 	0.038305 	4908 	0.037450
40.57 	0.043558 	4890 	0.043199
40.59 	0.043751 	4937 	0.043633
40.61 	0.042553 	4935 	0.042197
40.63 	0.039757 	4930 	0.039162
40.65 	0.044967 	4937 	0.044017
40.67 	0.042174 	4932 	0.041817
40.69 	0.042536 	4937 	0.041705
40.71 	0.039740 	4932 	0.039147
40.73 	0.048924 	4926 	0.048329
40.75 	0.044616 	4931 	0.043784
40.77 	0.041709 	4939 	0.041590
40.79 	0.041633 	4924 	0.040919
40.81 	0.039668 	4941 	0.039075
40.83 	0.045049 	4928 	0.043979
40.85 	0.047116 	4924 	0.046521
40.87 	0.043222 	4928 	0.042747
40.89 	0.039140 	4931 	0.038665
40.91 	0.038188 	4923 	0.037712
40.93 	0.045805 	4934 	0.045073
40.95 	0.044779 	4913 	0.044302
40.97 	0.040820 	4924 	0.040702
40.99 	0.042242 	4924 	0.041171
41.01 	0.043567 	4912 	0.043209
41.03 	0.043221 	4905 	0.042505
41.05 	0.040924 	4936 	0.040568
41.07 	0.043408 	4930 	0.043051
41.09 	0.037052 	4939 	0.036815
41.11 	0.043566 	4935 	0.042973
41.13 	0.039100 	4936 	0.038626
41.15 	0.045537 	4941 	0.044945
41.17 	0.040535 	4934 	0.040298
41.19 	0.045030 	4930 	0.044912
41.21 	0.048815 	4937 	0.048340
41.23 	0.042519 	4939 	0.042163
41.25 	0.041354 	4933 	0.040998
41.27 	0.044210 	4931 	0.043497
41.29 	0.046063 	4928 	0.045231
41.31 	0.042165 	4933 	0.041928
41.33 	0.041321 	4937 	0.040727
41.35 	0.035237 	4938 	0.035000
41.37 	0.045898 	4924 	0.045184
41.39 	0.043584 	4933 	0.042872
41.41 	0.039992 	4926 	0.039754
41.43 	0.043214 	4929 	0.042619
41.45 	0.042939 	4914 	0.041746
41.47 	0.040601 	4926 	0.039154
41.49 	0.044767 	4892 	0.044029
41.51 	0.045951 	4940 	0.045596
41.53 	0.044498 	4944 	0.043669
41.55 	0.039716 	4935 	0.039004
41.57 	0.045133 	4941 	0.044540
41.59 	0.036286 	4933 	0.035692
41.61 	0.045023 	4953 	0.044432
41.63 	0.042122 	4938 	0.041529
41.65 	0.041388 	4929 	0.041031
41.67 	0.044534 	4940 	0.044179
41.69 	0.041439 	4947 	0.040847
41.71 	0.041548 	4934 	0.041192
41.73 	0.040519 	4936 	0.039569
41.75 	0.040576 	4929 	0.039844
41.77 	0.042097 	4941 	0.041504
41.79 	0.038228 	4944 	0.037991
41.81 	0.040316 	4936 	0.040079
41.83 	0.042411 	4928 	0.042054
41.85 	0.042721 	4939 	0.042010
41.87 	0.039108 	4935 	0.038752
41.89 	0.041557 	4933 	0.040469
41.91 	0.040721 	4936 	0.039890
41.93 	0.039538 	4932 	0.039181
41.95 	0.040965 	4931 	0.040134
41.97 	0.038258 	4914 	0.038020
41.99 	0.042610 	4905 	0.042251
42.01 	0.038851 	4942 	0.038732
42.03 	0.036040 	4939 	0.035921
42.05 	0.039580 	4952 	0.038752
42.07 	0.035447 	4937 	0.034853
42.09 	0.039612 	4948 	0.039138
42.11 	0.035592 	4945 	0.035355
42.13 	0.040849 	4945 	0.040494
42.15 	0.039085 	4938 	0.038729
42.17 	0.041887 	4918 	0.041053
42.19 	0.035249 	4908 	0.034652
42.21 	0.041828 	4901 	0.041111
42.23 	0.040474 	4892 	0.039636
42.25 	0.039272 	4889 	0.039152
42.27 	0.034469 	4874 	0.034108
42.29 	0.037631 	4863 	0.037149
42.31 	0.046344 	4855 	0.045982
42.33 	0.037443 	4834 	0.036837
42.35 	0.046300 	4838 	0.046058
42.37 	0.036439 	4830 	0.036075
42.39 	0.043297 	4804 	0.042322
42.41 	0.035179 	4804 	0.034813
42.43 	0.038397 	4792 	0.037664
42.45 	0.041457 	4776 	0.041089
42.47 	0.035677 	4765 	0.035308
42.49 	0.031899 	4765 	0.031776
42.51 	0.039005 	4743 	0.038881
42.53 	0.038283 	4728 	0.038035
42.55 	0.040357 	4708 	0.040108
42.57 	0.039958 	4730 	0.039462
42.59 	0.042292 	4729 	0.042044
42.61 	0.038445 	4708 	0.037823
42.63 	0.042684 	4709 	0.042187
42.65 	0.042263 	4685 	0.041762
42.67 	0.036294 	4684 	0.035794
42.69 	0.038725 	4674 	0.038474
42.71 	0.035170 	4663 	0.035045
42.73 	0.041810 	4640 	0.041179
42.75 	0.037254 	4617 	0.037000
42.77 	0.039783 	4600 	0.039401
42.79 	0.036883 	4582 	0.036500
42.81 	0.037045 	4562 	0.037045
42.83 	0.032187 	4536 	0.031800
42.85 	0.039090 	4528 	0.038443
42.87 	0.040676 	4499 	0.040415
42.89 	0.033259 	4480 	0.032867
42.91 	0.039048 	4456 	0.038917
42.93 	0.036437 	4446 	0.035778
42.95 	0.041214 	4416 	0.040948
42.97 	0.035219 	4401 	0.034953
42.99 	0.037400 	4385 	0.037133
43.01 	0.038047 	4363 	0.037913
43.03 	0.031849 	4333 	0.031713
43.05 	0.042543 	4325 	0.041731
43.07 	0.033985 	4296 	0.033712
43.09 	0.037590 	4283 	0.036907
43.11 	0.040658 	4255 	0.040107
43.13 	0.036819 	4237 	0.036542
43.15 	0.038992 	4206 	0.038435
43.17 	0.039962 	4179 	0.039261
43.19 	0.043395 	4194 	0.042837
43.21 	0.033797 	4172 	0.033095
43.23 	0.038517 	4154 	0.037671
43.25 	0.039661 	4135 	0.039095
43.27 	0.037272 	4105 	0.036986
43.29 	0.041463 	4100 	0.040463
43.31 	0.034812 	4079 	0.034382
43.33 	0.037028 	4051 	0.036594
43.35 	0.041915 	4032 	0.041479
43.37 	0.039851 	4015 	0.039413
43.39 	0.035982 	4002 	0.035836
43.41 	0.038771 	3972 	0.038329
43.43 	0.043687 	3960 	0.043243
43.45 	0.036086 	3935 	0.035640
43.47 	0.039021 	3921 	0.039021
43.49 	0.040544 	3897 	0.040093
43.51 	0.036626 	3877 	0.036626
43.53 	0.037794 	3863 	0.037036
43.55 	0.040148 	2964 	0.039951
43.57 	0.039321 	2238 	0.039059
43.59 	0.032073 	1746 	0.031738
43.61 	0.036269 	1351 	0.035836
43.63 	0.042957 	1001 	0.042957
43.65 	0.036390 	687 	0.036390
43.67 	0.031873 	502 	0.031873
43.69 	0.024523 	367 	0.024523
43.71 	0.020921 	239 	0.020921
43.73 	0.008333 	120 	0.008333
43.75 	0.000000 	16 	0.000000