File: Example_Data/25SC_s1_0051.002.dat
#F C:\frames\spec\25SC_s1_0051.002
#C title =s:51 frm:2 25SC_s1
#C wavelength =0.15406

#S 1  fr_average C:\frames\spec\25SC_s1_0051.002 C:\win32app\speccom\mask.axs chi 0 180 0 360 0.02
#C 2 theta =0.000000 to 180 deg
#C   q   =0.000000 to 81.568 nm^-1
#C  chi  =0.000000 to 360 deg
#C collumns:
#C  1 position (2theta or chi in degrees)
#C  2 average intensity (sum of all counts in the region divided with number of pixels)
#C  3 Number of pixels in region)
#C  4 error (sum of sqrt(intensity) for all pixels divided by number)
#N 4
#L TTh  Int  N_pix  Err
32.99 	0.049180 	61 	0.049180
33.01 	0.068729 	873 	0.067387
33.03 	0.070453 	1391 	0.068347
33.05 	0.060899 	1757 	0.060232
33.07 	0.064390 	2050 	0.064104
33.09 	0.050277 	2347 	0.049528
33.11 	0.056223 	2579 	0.055315
33.13 	0.056212 	2793 	0.054324
33.15 	0.050684 	2999 	0.049707
33.17 	0.053733 	3201 	0.052452
33.19 	0.059844 	3342 	0.057741
33.21 	0.059080 	3436 	0.058057
33.23 	0.052228 	3523 	0.051729
33.25 	0.053987 	3612 	0.053662
33.27 	0.060606 	3630 	0.058670
33.29 	0.051809 	3648 	0.050980
33.31 	0.052732 	3660 	0.052092
33.33 	0.057515 	3686 	0.055926
33.35 	0.054142 	3694 	0.053666
33.37 	0.054927 	3714 	0.053508
33.39 	0.051220 	3729 	0.050435
33.41 	0.054011 	3740 	0.052914
33.43 	0.060888 	3761 	0.060265
33.45 	0.052213 	3773 	0.051282
33.47 	0.057925 	3798 	0.057154
33.49 	0.058546 	3809 	0.057930
33.51 	0.056619 	3815 	0.055697
33.53 	0.059880 	3841 	0.058508
33.55 	0.057767 	3843 	0.056548
33.57 	0.056745 	3877 	0.056292
33.59 	0.059278 	3880 	0.058372
33.61 	0.059094 	3909 	0.057871
33.63 	0.052820 	3919 	0.052347
33.65 	0.050623 	3931 	0.049878
33.67 	0.049317 	3954 	0.048873
33.69 	0.056160 	3953 	0.054826
33.71 	0.055094 	3975 	0.054505
33.73 	0.055195 	4004 	0.054756
33.75 	0.056264 	3999 	0.054653
33.77 	0.056398 	4025 	0.055088
33.79 	0.065578 	4041 	0.064128
33.81 	0.060426 	4038 	0.059556
33.83 	0.054074 	4050 	0.053351
33.85 	0.057819 	4099 	0.056819
33.87 	0.050596 	4111 	0.049741
33.89 	0.055812 	4121 	0.055101
33.91 	0.056399 	4149 	0.055693
33.93 	0.046736 	4151 	0.045748
33.95 	0.059077 	4181 	0.058096
33.97 	0.055609 	4190 	0.054071
33.99 	0.062143 	4200 	0.061306
34.01 	0.059577 	4213 	0.058187
34.03 	0.047832 	4244 	0.046843
34.05 	0.056914 	4252 	0.055239
34.07 	0.063027 	4268 	0.061792
34.09 	0.058096 	4286 	0.057390
34.11 	0.053696 	4302 	0.052607
34.13 	0.053853 	4308 	0.052901
34.15 	0.055645 	4331 	0.054834
34.17 	0.056552 	4350 	0.055609
34.19 	0.058001 	4362 	0.057061
34.21 	0.061313 	4371 	0.060241
34.23 	0.054405 	4393 	0.053316
34.25 	0.057448 	4404 	0.056517
34.27 	0.056083 	4422 	0.054737
34.29 	0.055919 	4435 	0.054598
34.31 	0.058995 	4458 	0.058469
34.33 	0.052114 	4471 	0.051459
34.35 	0.055977 	4484 	0.055062
34.37 	0.051659 	4491 	0.050724
34.39 	0.063527 	4502 	0.061445
34.41 	0.059876 	4526 	0.059617
34.43 	0.059705 	4539 	0.058285
34.45 	0.057332 	4535 	0.056406
34.47 	0.057709 	4592 	0.056306
34.49 	0.048292 	4597 	0.047125
34.51 	0.050803 	4606 	0.050295
34.53 	0.049752 	4643 	0.049374
34.55 	0.061167 	4643 	0.059906
34.57 	0.052146 	4660 	0.051015
34.59 	0.054118 	4675 	0.053491
34.61 	0.052800 	4697 	0.052176
34.63 	0.051592 	4710 	0.051095
34.65 	0.055709 	4721 	0.054964
34.67 	0.049779 	4741 	0.049161
34.69 	0.054480 	4754 	0.053371
34.71 	0.057071 	4766 	0.056088
34.73 	0.053269 	4787 	0.052290
34.75 	0.051373 	4808 	0.050398
34.77 	0.054172 	4818 	0.053321
34.79 	0.053483 	4824 	0.052754
34.81 	0.053251 	4845 	0.052525
34.83 	0.052036 	4862 	0.051313
34.85 	0.052988 	4869 	0.052507
34.87 	0.057313 	4868 	0.055989
34.89 	0.053667 	4882 	0.053067
34.91 	0.056739 	4882 	0.056259
34.93 	0.051643 	4899 	0.050806
34.95 	0.050920 	4890 	0.050321
34.97 	0.048144 	4902 	0.047785
34.99 	0.046559 	4897 	0.046200
35.01 	0.056673 	4923 	0.055463
35.03 	0.052802 	4943 	0.051972
35.05 	0.050334 	4947 	0.049268
35.07 	0.054453 	4940 	0.053861
35.09 	0.054714 	4953 	0.053512
35.11 	0.050536 	4947 	0.049944
35.13 	0.057483 	4958 	0.056144
35.15 	0.053271 	4937 	0.052915
35.17 	0.057420 	4946 	0.055624
35.19 	0.056455 	4942 	0.055625
35.21 	0.050556 	4945 	0.049727
35.23 	0.056016 	4945 	0.055068
35.25 	0.056646 	4943 	0.055342
35.27 	0.054770 	4948 	0.053704
35.29 	0.048938 	4945 	0.048228
35.31 	0.053923 	4933 	0.053566
35.33 	0.057860 	4943 	0.056675
35.35 	0.052003 	4942 	0.051411
35.37 	0.047580 	4939 	0.047462
35.39 	0.052376 	4945 	0.052021
35.41 	0.054811 	4926 	0.053503
35.43 	0.056355 	4933 	0.055168
35.45 	0.059955 	4937 	0.058987
35.47 	0.055364 	4931 	0.054295
35.49 	0.050306 	4910 	0.049828
35.51 	0.047300 	4926 	0.046349
35.53 	0.051930 	4949 	0.050628
35.55 	0.050354 	4945 	0.049406
35.57 	0.059193 	4933 	0.058006
35.59 	0.060061 	4945 	0.058521
35.61 	0.054027 	4942 	0.053078
35.63 	0.060894 	4943 	0.059946
35.65 	0.047725 	4945 	0.047133
35.67 	0.059895 	4942 	0.058927
35.69 	0.053579 	4946 	0.053105
35.71 	0.052866 	4937 	0.051680
35.73 	0.051661 	4936 	0.050831
35.75 	0.060231 	4931 	0.059875
35.77 	0.056150 	4951 	0.054967
35.79 	0.049270 	4932 	0.048914
35.81 	0.052301 	4933 	0.051945
35.83 	0.054185 	4946 	0.053238
35.85 	0.054306 	4935 	0.053594
35.87 	0.051798 	4923 	0.050846
35.89 	0.056546 	4934 	0.055577
35.91 	0.053785 	4927 	0.052715
35.93 	0.058047 	4927 	0.057334
35.95 	0.050844 	4917 	0.049534
35.97 	0.057614 	4912 	0.056302
35.99 	0.055274 	4939 	0.054326
36.01 	0.051724 	4930 	0.051368
36.03 	0.053611 	4943 	0.052545
36.05 	0.052376 	4945 	0.051192
36.07 	0.054262 	4939 	0.053906
36.09 	0.055870 	4940 	0.054784
36.11 	0.048894 	4929 	0.048419
36.13 	0.050789 	4942 	0.050315
36.15 	0.056287 	4939 	0.055219
36.17 	0.051777 	4925 	0.051420
36.19 	0.054656 	4940 	0.054182
36.21 	0.058835 	4929 	0.057647
36.23 	0.048835 	4935 	0.048241
36.25 	0.057073 	4941 	0.056481
36.27 	0.057056 	4925 	0.055866
36.29 	0.058406 	4931 	0.057574
36.31 	0.049919 	4928 	0.049087
36.33 	0.058990 	4933 	0.057684
36.35 	0.052546 	4929 	0.052071
36.37 	0.054845 	4923 	0.054131
36.39 	0.053241 	4921 	0.052884
36.41 	0.056985 	4896 	0.056387
36.43 	0.056412 	4928 	0.055699
36.45 	0.060852 	4930 	0.059664
36.47 	0.056726 	4936 	0.055777
36.49 	0.053824 	4942 	0.052975
36.51 	0.046625 	4933 	0.045675
36.53 	0.053409 	4943 	0.052224
36.55 	0.052770 	4927 	0.051463
36.57 	0.053101 	4934 	0.051439
36.59 	0.054262 	4939 	0.053669
36.61 	0.055770 	4931 	0.055176
36.63 	0.048063 	4931 	0.047588
36.65 	0.053731 	4932 	0.052781
36.67 	0.057809 	4930 	0.056383
36.69 	0.050112 	4929 	0.049399
36.71 	0.055070 	4921 	0.054118
36.73 	0.053604 	4925 	0.052890
36.75 	0.044701 	4944 	0.043871
36.77 	0.054483 	4919 	0.053530
36.79 	0.052835 	4921 	0.051882
36.81 	0.049430 	4916 	0.047862
36.83 	0.054730 	4915 	0.053896
36.85 	0.049000 	4898 	0.048641
36.87 	0.054814 	4944 	0.054577
36.89 	0.053906 	4916 	0.053310
36.91 	0.054240 	4941 	0.053884
36.93 	0.055172 	4930 	0.054083
36.95 	0.054328 	4933 	0.053734
36.97 	0.053506 	4934 	0.051963
36.99 	0.050051 	4935 	0.049338
37.01 	0.046017 	4933 	0.044948
37.03 	0.047319 	4924 	0.046486
37.05 	0.050741 	4927 	0.050146
37.07 	0.051266 	4935 	0.050436
37.09 	0.057630 	4928 	0.056778
37.11 	0.046403 	4935 	0.045691
37.13 	0.056458 	4924 	0.055249
37.15 	0.048075 	4909 	0.047478
37.17 	0.055330 	4934 	0.053787
37.19 	0.055838 	4925 	0.054361
37.21 	0.053081 	4917 	0.052605
37.23 	0.057747 	4918 	0.055960
37.25 	0.050295 	4911 	0.049341
37.27 	0.052718 	4894 	0.052359
37.29 	0.055375 	4930 	0.054187
37.31 	0.053698 	4935 	0.052274
37.33 	0.055206 	4927 	0.054493
37.35 	0.051235 	4938 	0.050267
37.37 	0.048102 	4927 	0.047151
37.39 	0.049686 	4931 	0.048854
37.41 	0.051308 	4931 	0.050476
37.43 	0.049473 	4932 	0.048523
37.45 	0.051381 	4924 	0.050191
37.47 	0.053966 	4929 	0.053016
37.49 	0.052204 	4923 	0.051966
37.51 	0.052909 	4933 	0.052078
37.53 	0.049400 	4919 	0.048567
37.55 	0.049087 	4930 	0.048493
37.57 	0.048325 	4925 	0.047849
37.59 	0.050458 	4915 	0.050100
37.61 	0.052215 	4922 	0.051977
37.63 	0.049604 	4919 	0.049008
37.65 	0.046564 	4918 	0.046087
37.67 	0.054649 	4904 	0.053813
37.69 	0.052675 	4898 	0.052077
37.71 	0.052546 	4929 	0.052190
37.73 	0.048489 	4929 	0.048251
37.75 	0.051215 	4940 	0.050503
37.77 	0.048780 	4920 	0.048066
37.79 	0.048276 	4930 	0.047325
37.81 	0.057774 	4933 	0.057537
37.83 	0.050203 	4920 	0.049350
37.85 	0.049980 	4922 	0.049385
37.87 	0.055072 	4939 	0.054479
37.89 	0.056041 	4925 	0.055208
37.91 	0.052333 	4930 	0.051620
37.93 	0.051230 	4919 	0.050158
37.95 	0.049990 	4921 	0.049633
37.97 	0.051735 	4929 	0.051140
37.99 	0.054357 	4912 	0.052667
38.01 	0.048093 	4928 	0.047736
38.03 	0.046649 	4909 	0.046291
38.05 	0.052792 	4925 	0.052197
38.07 	0.051945 	4909 	0.051568
38.09 	0.047970 	4878 	0.046870
38.11 	0.052280 	4935 	0.050974
38.13 	0.051853 	4937 	0.050667
38.15 	0.052257 	4918 	0.051781
38.17 	0.047667 	4930 	0.046360
38.19 	0.045030 	4930 	0.044436
38.21 	0.050985 	4923 	0.050628
38.23 	0.047995 	4938 	0.046809
38.25 	0.051658 	4917 	0.050943
38.27 	0.054970 	4930 	0.054138
38.29 	0.055240 	4924 	0.054288
38.31 	0.053379 	4927 	0.052666
38.33 	0.049959 	4924 	0.049246
38.35 	0.059659 	4928 	0.059065
38.37 	0.063160 	4924 	0.061851
38.39 	0.058668 	4909 	0.057713
38.41 	0.060329 	4923 	0.059377
38.43 	0.056957 	4916 	0.055884
38.45 	0.066084 	4918 	0.064774
38.47 	0.062156 	4907 	0.061082
38.49 	0.060488 	4877 	0.058907
38.51 	0.063869 	4932 	0.063275
38.53 	0.066951 	4929 	0.065643
38.55 	0.062804 	4936 	0.061736
38.57 	0.052813 	4923 	0.051861
38.59 	0.054630 	4924 	0.053917
38.61 	0.059765 	4936 	0.058816
38.63 	0.049553 	4924 	0.049196
38.65 	0.057137 	4918 	0.056303
38.67 	0.058740 	4937 	0.057297
38.69 	0.054856 	4922 	0.053904
38.71 	0.049756 	4924 	0.048448
38.73 	0.051850 	4918 	0.050759
38.75 	0.047493 	4927 	0.046899
38.77 	0.054032 	4923 	0.053556
38.79 	0.046615 	4934 	0.046378
38.81 	0.048860 	4912 	0.048502
38.83 	0.043708 	4919 	0.043351
38.85 	0.044178 	4912 	0.043581
38.87 	0.046223 	4911 	0.045388
38.89 	0.053706 	4897 	0.053108
38.91 	0.048542 	4903 	0.047586
38.93 	0.049008 	4938 	0.048533
38.95 	0.047580 	4918 	0.047223
38.97 	0.053133 	4931 	0.052183
38.99 	0.046384 	4937 	0.045554
39.01 	0.051444 	4918 	0.050372
39.03 	0.043981 	4934 	0.043743
39.05 	0.049746 	4925 	0.049270
39.07 	0.054224 	4924 	0.053372
39.09 	0.045298 	4923 	0.044465
39.11 	0.043399 	4931 	0.042686
39.13 	0.043876 	4923 	0.043162
39.15 	0.047813 	4915 	0.046740
39.17 	0.046587 	4937 	0.045875
39.19 	0.038031 	4917 	0.037436
39.21 	0.043788 	4910 	0.042814
39.23 	0.042437 	4925 	0.041723
39.25 	0.044900 	4922 	0.044424
39.27 	0.041141 	4910 	0.040663
39.29 	0.041828 	4901 	0.041111
39.31 	0.039926 	4884 	0.039686
39.33 	0.040154 	4931 	0.039679
39.35 	0.044782 	4935 	0.044189
39.37 	0.037939 	4929 	0.037820
39.39 	0.046663 	4929 	0.046425
39.41 	0.042791 	4931 	0.041959
39.43 	0.039935 	4933 	0.039341
39.45 	0.042437 	4925 	0.041961
39.47 	0.046313 	4923 	0.046075
39.49 	0.043179 	4933 	0.042822
39.51 	0.037977 	4924 	0.037382
39.53 	0.042251 	4923 	0.041894
39.55 	0.047367 	4919 	0.047010
39.57 	0.046219 	4933 	0.045269
39.59 	0.048046 	4912 	0.047092
39.61 	0.043673 	4923 	0.042721
39.63 	0.043275 	4922 	0.042918
39.65 	0.037556 	4926 	0.036723
39.67 	0.040912 	4913 	0.040554
39.69 	0.043328 	4916 	0.042613
39.71 	0.041471 	4895 	0.040753
39.73 	0.044825 	4908 	0.044347
39.75 	0.043222 	4928 	0.043104
39.77 	0.041337 	4935 	0.040744
39.79 	0.047097 	4926 	0.046146
39.81 	0.045870 	4927 	0.045275
39.83 	0.042562 	4934 	0.040880
39.85 	0.039375 	4927 	0.039018
39.87 	0.042437 	4925 	0.041961
39.89 	0.038914 	4934 	0.037964
39.91 	0.041853 	4922 	0.041496
39.93 	0.050435 	4937 	0.049486
39.95 	0.049237 	4915 	0.048403
39.97 	0.038961 	4928 	0.038486
39.99 	0.041971 	4932 	0.041496
40.01 	0.040464 	4918 	0.039630
40.03 	0.039164 	4928 	0.038807
40.05 	0.047183 	4917 	0.046468
40.07 	0.043063 	4923 	0.042349
40.09 	0.046989 	4916 	0.046394
40.11 	0.044752 	4916 	0.044037
40.13 	0.042075 	4896 	0.041357
40.15 	0.042337 	4913 	0.041740
40.17 	0.037946 	4928 	0.037233
40.19 	0.040779 	4929 	0.040304
40.21 	0.046201 	4935 	0.045607
40.23 	0.043187 	4932 	0.042831
40.25 	0.035772 	4920 	0.035415
40.27 	0.040713 	4937 	0.040120
40.29 	0.040796 	4927 	0.040558
40.31 	0.037862 	4939 	0.037269
40.33 	0.039132 	4932 	0.038776
40.35 	0.041269 	4919 	0.041030
40.37 	0.040779 	4929 	0.040423
40.39 	0.041574 	4931 	0.040861
40.41 	0.042234 	4925 	0.041520
40.43 	0.044291 	4922 	0.043696
40.45 	0.041557 	4933 	0.040963
40.47 	0.044327 	4918 	0.043612
40.49 	0.044052 	4926 	0.043457
40.51 	0.035758 	4922 	0.035282
40.53 	0.041701 	4916 	0.041105
40.55 	0.044010 	4908 	0.043413
40.57 	0.048262 	4890 	0.047543
40.59 	0.037270 	4937 	0.036795
40.61 	0.037690 	4935 	0.037571
40.63 	0.045436 	4930 	0.044842
40.65 	0.039093 	4937 	0.038855
40.67 	0.040957 	4932 	0.040601
40.69 	0.039093 	4937 	0.038618
40.71 	0.041768 	4932 	0.041293
40.73 	0.034917 	4926 	0.034203
40.75 	0.030825 	4931 	0.030231
40.77 	0.039887 	4939 	0.039531
40.79 	0.040211 	4924 	0.039616
40.81 	0.038454 	4941 	0.038454
40.83 	0.042208 	4928 	0.041732
40.85 	0.038383 	4924 	0.037789
40.87 	0.042817 	4928 	0.042103
40.89 	0.040560 	4931 	0.040085
40.91 	0.039407 	4923 	0.038931
40.93 	0.037698 	4934 	0.037223
40.95 	0.040505 	4913 	0.040028
40.97 	0.034119 	4924 	0.034000
40.99 	0.042242 	4924 	0.041409
41.01 	0.041124 	4912 	0.040508
41.03 	0.040163 	4905 	0.039327
41.05 	0.041734 	4936 	0.041022
41.07 	0.043813 	4930 	0.043219
41.09 	0.040696 	4939 	0.040103
41.11 	0.040324 	4935 	0.039849
41.13 	0.036872 	4936 	0.036635
41.15 	0.040680 	4941 	0.040324
41.17 	0.038508 	4934 	0.038152
41.19 	0.044828 	4930 	0.044590
41.21 	0.046182 	4937 	0.045826
41.23 	0.038064 	4939 	0.037353
41.25 	0.038719 	4933 	0.038481
41.27 	0.041168 	4931 	0.040455
41.29 	0.040584 	4928 	0.040089
41.31 	0.043584 	4933 	0.042990
41.33 	0.037675 	4937 	0.037437
41.35 	0.041717 	4938 	0.041361
41.37 	0.040008 	4924 	0.039532
41.39 	0.038111 	4933 	0.037517
41.41 	0.039992 	4926 	0.039397
41.43 	0.039156 	4929 	0.038562
41.45 	0.040700 	4914 	0.039727
41.47 	0.042834 	4926 	0.042596
41.49 	0.042110 	4892 	0.041990
41.51 	0.044332 	4940 	0.043601
41.53 	0.041869 	4944 	0.041869
41.55 	0.039311 	4935 	0.038361
41.57 	0.042097 	4941 	0.041385
41.59 	0.040949 	4933 	0.040592
41.61 	0.037149 	4953 	0.036676
41.63 	0.036655 	4938 	0.035943
41.65 	0.035910 	4929 	0.035553
41.67 	0.039879 	4940 	0.039404
41.69 	0.036386 	4947 	0.036149
41.71 	0.043981 	4934 	0.043387
41.73 	0.039100 	4936 	0.038863
41.75 	0.038750 	4929 	0.038037
41.77 	0.033394 	4941 	0.033275
41.79 	0.036003 	4944 	0.035648
41.81 	0.038493 	4936 	0.038137
41.83 	0.032468 	4928 	0.032349
41.85 	0.037862 	4939 	0.037506
41.87 	0.043769 	4935 	0.043294
41.89 	0.039124 	4933 	0.038768
41.91 	0.038898 	4936 	0.038305
41.93 	0.035888 	4932 	0.035532
41.95 	0.037923 	4931 	0.036973
41.97 	0.038665 	4914 	0.038307
41.99 	0.040979 	4905 	0.040481
42.01 	0.038648 	4942 	0.038411
42.03 	0.039077 	4939 	0.038602
42.05 	0.034128 	4952 	0.033773
42.07 	0.036864 	4937 	0.036271
42.09 	0.043250 	4948 	0.043013
42.11 	0.041860 	4945 	0.041150
42.13 	0.034378 	4945 	0.034023
42.15 	0.039085 	4938 	0.038492
42.17 	0.034567 	4918 	0.034448
42.19 	0.035452 	4908 	0.035333
42.21 	0.039788 	4901 	0.039429
42.23 	0.037408 	4892 	0.037288
42.25 	0.034772 	4889 	0.034293
42.27 	0.039393 	4874 	0.038551
42.29 	0.039687 	4863 	0.038965
42.31 	0.033368 	4855 	0.033368
42.33 	0.040753 	4834 	0.040026
42.35 	0.042993 	4838 	0.042509
42.37 	0.038302 	4830 	0.037817
42.39 	0.033930 	4804 	0.033442
42.41 	0.037677 	4804 	0.037189
42.43 	0.034015 	4792 	0.033771
42.45 	0.034129 	4776 	0.034006
42.47 	0.038195 	4765 	0.037703
42.49 	0.030220 	4765 	0.029974
42.51 	0.038372 	4743 	0.038002
42.53 	0.037437 	4728 	0.036941
42.55 	0.037383 	4708 	0.036761
42.57 	0.035941 	4730 	0.035693
42.59 	0.031719 	4729 	0.031348
42.61 	0.033135 	4708 	0.032637
42.63 	0.034615 	4709 	0.033993
42.65 	0.033938 	4685 	0.033938
42.67 	0.038856 	4684 	0.038230
42.69 	0.033804 	4674 	0.033679
42.71 	0.037744 	4663 	0.037116
42.73 	0.042241 	4640 	0.041989
42.75 	0.033138 	4617 	0.032758
42.77 	0.038478 	4600 	0.037842
42.79 	0.035792 	4582 	0.035409
42.81 	0.038580 	4562 	0.037938
42.83 	0.041446 	4536 	0.041059
42.85 	0.040415 	4528 	0.039898
42.87 	0.033563 	4499 	0.032912
42.89 	0.033705 	4480 	0.033052
42.91 	0.038824 	4456 	0.037904
42.93 	0.032389 	4446 	0.032125
42.95 	0.039402 	4416 	0.038584
42.97 	0.035219 	4401 	0.034953
42.99 	0.038997 	4385 	0.038462
43.01 	0.040339 	4363 	0.040205
43.03 	0.033695 	4333 	0.033425
43.05 	0.033526 	4325 	0.033120
43.07 	0.032356 	4296 	0.031947
43.09 	0.036657 	4283 	0.035973
43.11 	0.035723 	4255 	0.035585
43.13 	0.034694 	4237 	0.034418
43.15 	0.037565 	4206 	0.037287
43.17 	0.040201 	4179 	0.040061
43.19 	0.038865 	4194 	0.038167
43.21 	0.033557 	4172 	0.033557
43.23 	0.036591 	4154 	0.036591
43.25 	0.040387 	4135 	0.040245
43.27 	0.039464 	4105 	0.039036
43.29 	0.030244 	4100 	0.030101
43.31 	0.036529 	4079 	0.035954
43.33 	0.035794 	4051 	0.035649
43.35 	0.036210 	4032 	0.036210
43.37 	0.038854 	4015 	0.038125
43.39 	0.038731 	4002 	0.037706
43.41 	0.040785 	3972 	0.040491
43.43 	0.033333 	3960 	0.033037
43.45 	0.035070 	3935 	0.034028
43.47 	0.029329 	3921 	0.029180
43.49 	0.032846 	3897 	0.032695
43.51 	0.031210 	3877 	0.030303
43.53 	0.033394 	3863 	0.033090
43.55 	0.032389 	2964 	0.032191
43.57 	0.040661 	2238 	0.040138
43.59 	0.032646 	1746 	0.032311
43.61 	0.041451 	1351 	0.041451
43.63 	0.032967 	1001 	0.032967
43.65 	0.033479 	687 	0.032626
43.67 	0.055777 	502 	0.053443
43.69 	0.046322 	367 	0.046322
43.71 	0.037657 	239 	0.037657
43.73 	0.050000 	120 	0.050000
43.75 	0.125000 	16 	0.125000