File: Example_Data/25SC_s1_0012.001.dat
#F C:\frames\spec\25SC_s1_0012.001
#C title =s:12 frm:1 25SC_s1
#C wavelength =0.15406

#S 1  fr_average C:\frames\spec\25SC_s1_0012.001 C:\win32app\speccom\mask.axs chi 0 180 0 360 0.02
#C 2 theta =0.000000 to 180 deg
#C   q   =0.000000 to 81.568 nm^-1
#C  chi  =0.000000 to 360 deg
#C collumns:
#C  1 position (2theta or chi in degrees)
#C  2 average intensity (sum of all counts in the region divided with number of pixels)
#C  3 Number of pixels in region)
#C  4 error (sum of sqrt(intensity) for all pixels divided by number)
#N 4
#L TTh  Int  N_pix  Err
32.99 	0.114754 	61 	0.114754
33.01 	0.059565 	873 	0.058894
33.03 	0.078361 	1391 	0.077519
33.05 	0.053500 	1757 	0.053167
33.07 	0.058049 	2050 	0.057477
33.09 	0.057094 	2347 	0.056595
33.11 	0.064366 	2579 	0.063230
33.13 	0.058718 	2793 	0.058089
33.15 	0.060020 	2999 	0.058848
33.17 	0.061231 	3201 	0.060499
33.19 	0.061341 	3342 	0.059763
33.21 	0.061700 	3436 	0.060336
33.23 	0.055351 	3523 	0.053854
33.25 	0.060078 	3612 	0.059267
33.27 	0.059504 	3630 	0.057406
33.29 	0.060855 	3648 	0.060213
33.31 	0.063115 	3660 	0.062795
33.33 	0.059414 	3686 	0.058460
33.35 	0.063887 	3694 	0.062777
33.37 	0.064620 	3714 	0.063333
33.39 	0.056852 	3729 	0.055909
33.41 	0.054813 	3740 	0.054186
33.43 	0.067003 	3761 	0.065602
33.45 	0.059369 	3773 	0.058438
33.47 	0.053449 	3798 	0.052832
33.49 	0.065109 	3809 	0.063879
33.51 	0.061861 	3815 	0.060940
33.53 	0.055715 	3841 	0.054622
33.55 	0.054905 	3843 	0.053990
33.57 	0.063193 	3877 	0.062262
33.59 	0.051031 	3880 	0.050427
33.61 	0.057304 	3909 	0.056105
33.63 	0.059709 	3919 	0.058937
33.65 	0.060544 	3931 	0.059799
33.67 	0.063986 	3954 	0.063245
33.69 	0.068809 	3953 	0.066709
33.71 	0.062642 	3975 	0.061757
33.73 	0.065435 	4004 	0.063972
33.75 	0.049762 	3999 	0.049030
33.77 	0.059379 	4025 	0.058506
33.79 	0.055432 	4041 	0.053692
33.81 	0.061664 	4038 	0.060190
33.83 	0.060000 	4050 	0.059566
33.85 	0.053672 	4099 	0.052671
33.87 	0.056434 	4111 	0.055864
33.89 	0.062364 	4121 	0.061226
33.91 	0.056158 	4149 	0.055170
33.93 	0.061913 	4151 	0.060643
33.95 	0.055250 	4181 	0.054409
33.97 	0.058473 	4190 	0.056935
33.99 	0.053095 	4200 	0.052258
34.01 	0.061714 	4213 	0.060255
34.03 	0.058907 	4244 	0.058217
34.05 	0.059972 	4252 	0.059283
34.07 	0.054358 	4268 	0.053123
34.09 	0.055763 	4286 	0.054670
34.11 	0.055788 	4302 	0.054971
34.13 	0.051996 	4308 	0.050206
34.15 	0.054260 	4331 	0.053178
34.17 	0.053333 	4350 	0.052369
34.19 	0.056625 	4362 	0.055417
34.21 	0.056509 	4371 	0.054767
34.23 	0.056226 	4393 	0.055004
34.25 	0.054950 	4404 	0.054285
34.27 	0.056536 	4422 	0.055608
34.29 	0.054566 	4435 	0.053641
34.31 	0.059444 	4458 	0.058392
34.33 	0.056811 	4471 	0.055762
34.35 	0.058430 	4484 	0.057254
34.37 	0.058562 	4491 	0.056323
34.39 	0.052865 	4502 	0.052215
34.41 	0.061644 	4526 	0.060479
34.43 	0.058824 	4539 	0.057662
34.45 	0.060860 	4535 	0.059827
34.47 	0.052047 	4592 	0.051133
34.49 	0.055253 	4597 	0.054107
34.51 	0.054711 	4606 	0.054075
34.53 	0.054921 	4643 	0.053660
34.55 	0.060090 	4643 	0.058703
34.57 	0.057511 	4660 	0.056233
34.59 	0.057112 	4675 	0.055859
34.61 	0.059613 	4697 	0.058241
34.63 	0.055626 	4710 	0.054487
34.65 	0.055073 	4721 	0.054205
34.67 	0.056528 	4741 	0.055910
34.69 	0.051956 	4754 	0.051094
34.71 	0.056441 	4766 	0.055212
34.73 	0.048673 	4787 	0.048062
34.75 	0.052829 	4808 	0.052098
34.77 	0.053757 	4818 	0.052784
34.79 	0.057629 	4824 	0.056779
34.81 	0.056140 	4845 	0.055294
34.83 	0.052448 	4862 	0.051725
34.85 	0.050729 	4869 	0.050368
34.87 	0.060805 	4868 	0.059000
34.89 	0.052847 	4882 	0.051767
34.91 	0.051413 	4882 	0.050573
34.93 	0.056950 	4899 	0.055994
34.95 	0.052352 	4890 	0.051613
34.97 	0.058956 	4902 	0.058000
34.99 	0.051664 	4897 	0.051066
35.01 	0.055860 	4923 	0.054551
35.03 	0.057253 	4943 	0.056186
35.05 	0.059632 	4947 	0.058922
35.07 	0.064575 	4940 	0.063132
35.09 	0.062790 	4953 	0.061096
35.11 	0.053972 	4947 	0.053124
35.13 	0.057685 	4958 	0.056621
35.15 	0.049018 	4937 	0.048424
35.17 	0.056409 	4946 	0.055580
35.19 	0.058478 	4942 	0.057530
35.21 	0.055005 	4945 	0.054038
35.23 	0.059454 	4945 	0.058487
35.25 	0.069593 	4943 	0.068389
35.27 	0.056184 	4948 	0.055237
35.29 	0.058847 	4945 	0.058137
35.31 	0.059193 	4933 	0.058481
35.33 	0.064738 	4943 	0.064027
35.35 	0.055645 	4942 	0.054816
35.37 	0.061348 	4939 	0.060755
35.39 	0.056623 	4945 	0.055912
35.41 	0.059886 	4926 	0.058935
35.43 	0.062031 	4933 	0.061200
35.45 	0.053271 	4937 	0.052441
35.47 	0.065707 	4931 	0.064024
35.49 	0.057434 	4910 	0.056837
35.51 	0.062525 	4926 	0.061198
35.53 	0.060820 	4949 	0.059755
35.55 	0.059454 	4945 	0.058250
35.57 	0.056963 	4933 	0.055776
35.59 	0.055005 	4945 	0.053939
35.61 	0.058681 	4942 	0.057970
35.63 	0.059680 	4943 	0.058732
35.65 	0.057027 	4945 	0.056198
35.67 	0.055038 	4942 	0.053735
35.69 	0.060857 	4946 	0.059673
35.71 	0.061778 	4937 	0.060473
35.73 	0.055308 	4936 	0.054952
35.75 	0.058000 	4931 	0.057169
35.77 	0.055544 	4951 	0.054716
35.79 	0.057583 	4932 	0.056039
35.81 	0.061423 	4933 	0.060236
35.83 	0.054387 	4946 	0.053085
35.85 	0.061398 	4935 	0.060330
35.87 	0.065407 	4923 	0.063603
35.89 	0.059789 	4934 	0.059077
35.91 	0.057642 	4927 	0.056809
35.93 	0.059671 	4927 	0.058958
35.95 	0.051658 	4917 	0.050685
35.97 	0.054764 	4912 	0.054168
35.99 	0.055679 	4939 	0.054730
36.01 	0.060649 	4930 	0.059679
36.03 	0.058871 	4943 	0.058279
36.05 	0.062083 	4945 	0.060879
36.07 	0.055072 	4939 	0.054479
36.09 	0.054453 	4940 	0.053623
36.11 	0.056807 	4929 	0.055361
36.13 	0.055848 	4942 	0.054781
36.15 	0.066410 	4939 	0.064987
36.17 	0.065381 	4925 	0.063716
36.19 	0.058704 	4940 	0.057519
36.21 	0.060864 	4929 	0.060013
36.23 	0.060588 	4935 	0.059163
36.25 	0.054645 	4941 	0.054052
36.27 	0.062741 	4925 	0.061552
36.29 	0.062462 	4931 	0.061274
36.31 	0.053774 	4928 	0.052823
36.33 	0.059396 	4933 	0.058446
36.35 	0.059850 	4929 	0.058523
36.37 	0.061548 	4923 	0.060477
36.39 	0.061979 	4921 	0.059817
36.41 	0.059845 	4896 	0.058768
36.43 	0.060674 	4928 	0.059842
36.45 	0.059229 	4930 	0.058397
36.47 	0.055511 	4936 	0.054917
36.49 	0.059085 	4942 	0.057900
36.51 	0.060815 	4933 	0.059627
36.53 	0.066963 	4943 	0.065304
36.55 	0.061701 	4927 	0.060631
36.57 	0.059384 	4934 	0.057840
36.59 	0.057097 	4939 	0.056148
36.61 	0.057189 	4931 	0.055882
36.63 	0.053944 	4931 	0.052756
36.65 	0.061030 	4932 	0.060080
36.67 	0.058621 	4930 	0.057908
36.69 	0.065125 	4929 	0.064154
36.71 	0.061370 	4921 	0.060536
36.73 	0.054619 	4925 	0.053291
36.75 	0.056230 	4944 	0.055400
36.77 	0.053669 	4919 	0.053074
36.79 	0.059541 	4921 	0.058946
36.81 	0.056957 	4916 	0.056123
36.83 	0.065107 	4915 	0.064015
36.85 	0.062474 	4898 	0.061398
36.87 	0.063714 	4944 	0.063003
36.89 	0.058584 	4916 	0.057750
36.91 	0.062538 	4941 	0.061471
36.93 	0.065720 	4930 	0.064631
36.95 	0.058585 	4933 	0.057991
36.97 	0.058776 	4934 	0.058063
36.99 	0.060182 	4935 	0.059589
37.01 	0.056963 	4933 	0.055281
37.03 	0.066613 	4924 	0.065304
37.05 	0.062310 	4927 	0.061002
37.07 	0.060790 	4935 	0.059247
37.09 	0.062297 	4928 	0.061208
37.11 	0.059372 	4935 	0.058185
37.13 	0.061738 	4924 	0.060430
37.15 	0.056631 	4909 	0.055676
37.17 	0.054722 	4934 	0.054010
37.19 	0.055635 	4925 	0.054326
37.21 	0.055318 	4917 	0.054723
37.23 	0.056120 	4918 	0.055287
37.25 	0.064142 	4911 	0.063068
37.27 	0.058848 	4894 	0.057531
37.29 	0.056795 	4930 	0.055845
37.31 	0.066059 	4935 	0.065228
37.33 	0.060483 	4927 	0.060007
37.35 	0.062576 	4938 	0.061746
37.37 	0.060280 	4927 	0.058596
37.39 	0.056784 	4931 	0.055952
37.41 	0.053944 	4931 	0.052400
37.43 	0.063058 	4932 	0.061613
37.45 	0.057067 	4924 	0.055878
37.47 	0.061067 	4929 	0.059641
37.49 	0.054641 	4923 	0.053551
37.51 	0.051085 	4933 	0.050253
37.53 	0.055702 	4919 	0.054631
37.55 	0.059432 	4930 	0.058719
37.57 	0.054010 	4925 	0.052464
37.59 	0.053103 	4915 	0.052507
37.61 	0.052215 	4922 	0.051977
37.63 	0.056516 	4919 	0.055563
37.65 	0.052257 	4918 	0.051661
37.67 	0.060767 	4904 	0.060408
37.69 	0.054920 	4898 	0.053466
37.71 	0.057821 	4929 	0.056950
37.73 	0.053966 	4929 	0.052659
37.75 	0.058907 	4940 	0.058433
37.77 	0.054268 	4920 	0.053197
37.79 	0.054361 	4930 	0.053272
37.81 	0.056761 	4933 	0.056048
37.83 	0.060772 	4920 	0.059939
37.85 	0.053840 	4922 	0.052888
37.87 	0.050415 	4939 	0.049703
37.89 	0.060914 	4925 	0.059843
37.91 	0.056187 	4930 	0.055474
37.93 	0.053060 	4919 	0.051968
37.95 	0.053648 	4921 	0.053052
37.97 	0.055386 	4929 	0.054792
37.99 	0.060261 	4912 	0.059784
38.01 	0.053166 	4928 	0.052334
38.03 	0.052353 	4909 	0.051756
38.05 	0.059492 	4925 	0.058541
38.07 	0.054390 	4909 	0.053674
38.09 	0.052276 	4878 	0.051555
38.11 	0.053293 	4935 	0.052225
38.13 	0.057322 	4937 	0.056017
38.15 	0.055714 	4918 	0.054265
38.17 	0.052941 	4930 	0.052109
38.19 	0.051927 	4930 	0.050620
38.21 	0.049766 	4923 	0.048557
38.23 	0.059741 	4938 	0.058910
38.25 	0.056132 	4917 	0.055060
38.27 	0.055578 	4930 	0.054628
38.29 	0.059911 	4924 	0.058602
38.31 	0.055612 	4927 	0.055255
38.33 	0.056864 	4924 	0.056032
38.35 	0.059862 	4928 	0.059030
38.37 	0.056458 	4924 	0.055487
38.39 	0.058464 	4909 	0.057509
38.41 	0.062767 	4923 	0.061815
38.43 	0.062856 	4916 	0.061784
38.45 	0.063034 	4918 	0.062557
38.47 	0.065213 	4907 	0.064139
38.49 	0.063154 	4877 	0.062433
38.51 	0.063666 	4932 	0.062953
38.53 	0.069588 	4929 	0.068232
38.55 	0.073136 	4936 	0.071475
38.57 	0.069673 	4923 	0.068602
38.59 	0.068846 	4924 	0.067399
38.61 	0.069895 	4936 	0.068945
38.63 	0.070268 	4924 	0.068840
38.65 	0.072794 	4918 	0.070650
38.67 	0.073729 	4937 	0.072305
38.69 	0.075782 	4922 	0.074334
38.71 	0.075548 	4924 	0.074002
38.73 	0.077064 	4918 	0.074920
38.75 	0.078547 	4927 	0.077338
38.77 	0.075361 	4923 	0.073913
38.79 	0.074179 	4934 	0.072379
38.81 	0.071458 	4912 	0.069530
38.83 	0.061395 	4919 	0.060442
38.85 	0.067590 	4912 	0.066636
38.87 	0.067196 	4911 	0.065526
38.89 	0.060854 	4897 	0.059398
38.91 	0.065062 	4903 	0.064465
38.93 	0.062373 	4938 	0.060930
38.95 	0.062017 	4918 	0.060707
38.97 	0.055972 	4931 	0.054784
38.99 	0.054487 	4937 	0.053518
39.01 	0.059170 	4918 	0.058694
39.03 	0.053506 	4934 	0.052675
39.05 	0.056244 	4925 	0.055154
39.07 	0.049959 	4924 	0.049008
39.09 	0.057892 	4923 	0.057178
39.11 	0.057392 	4931 	0.056323
39.13 	0.052204 	4923 	0.051490
39.15 	0.052289 	4915 	0.051693
39.17 	0.048410 	4937 	0.047698
39.19 	0.045963 	4917 	0.045010
39.21 	0.051935 	4910 	0.051100
39.23 	0.047310 	4925 	0.046953
39.25 	0.043681 	4922 	0.043086
39.27 	0.047047 	4910 	0.046331
39.29 	0.047541 	4901 	0.046705
39.31 	0.042793 	4884 	0.041953
39.33 	0.044616 	4931 	0.044022
39.35 	0.049443 	4935 	0.048968
39.37 	0.046663 	4929 	0.046544
39.39 	0.037127 	4929 	0.036771
39.41 	0.048469 	4931 	0.047162
39.43 	0.042165 	4933 	0.041928
39.45 	0.042030 	4925 	0.041793
39.47 	0.050579 	4923 	0.050103
39.49 	0.047233 	4933 	0.046639
39.51 	0.044476 	4924 	0.044238
39.53 	0.045298 	4923 	0.044822
39.55 	0.044115 	4919 	0.043757
39.57 	0.050476 	4933 	0.049764
39.59 	0.044788 	4912 	0.044669
39.61 	0.050985 	4923 	0.049795
39.63 	0.043681 	4922 	0.042829
39.65 	0.049533 	4926 	0.048582
39.67 	0.042337 	4913 	0.041979
39.69 	0.049430 	4916 	0.048835
39.71 	0.047191 	4895 	0.046214
39.73 	0.040954 	4908 	0.040595
39.75 	0.047078 	4928 	0.046484
39.77 	0.040729 	4935 	0.040373
39.79 	0.045270 	4926 	0.044794
39.81 	0.047899 	4927 	0.046592
39.83 	0.048439 	4934 	0.047440
39.85 	0.045870 	4927 	0.045037
39.87 	0.046701 	4925 	0.045848
39.89 	0.047021 	4934 	0.046664
39.91 	0.043072 	4922 	0.042358
39.93 	0.044156 	4937 	0.043563
39.95 	0.040081 	4915 	0.039466
39.97 	0.046266 	4928 	0.045910
39.99 	0.043796 	4932 	0.043083
40.01 	0.040667 	4918 	0.040190
40.03 	0.043222 	4928 	0.042509
40.05 	0.044539 	4917 	0.043825
40.07 	0.040016 	4923 	0.039778
40.09 	0.037225 	4916 	0.036510
40.11 	0.045769 	4916 	0.045411
40.13 	0.046773 	4896 	0.046534
40.15 	0.044169 	4913 	0.043572
40.17 	0.042817 	4928 	0.042341
40.19 	0.042199 	4929 	0.041724
40.21 	0.043566 	4935 	0.043092
40.23 	0.042985 	4932 	0.042628
40.25 	0.050407 	4920 	0.050287
40.27 	0.043751 	4937 	0.043277
40.29 	0.047696 	4927 	0.047340
40.31 	0.042316 	4939 	0.041605
40.33 	0.042782 	4932 	0.042069
40.35 	0.041472 	4919 	0.040876
40.37 	0.047271 	4929 	0.046439
40.39 	0.044210 	4931 	0.043260
40.41 	0.044467 	4925 	0.043991
40.43 	0.044697 	4922 	0.044221
40.45 	0.040543 	4933 	0.039831
40.47 	0.045750 	4918 	0.045512
40.49 	0.041616 	4926 	0.041021
40.51 	0.043885 	4922 	0.043409
40.53 	0.044142 	4916 	0.043784
40.55 	0.039731 	4908 	0.039015
40.57 	0.044376 	4890 	0.044137
40.59 	0.042739 	4937 	0.042383
40.61 	0.037893 	4935 	0.037774
40.63 	0.040365 	4930 	0.040009
40.65 	0.038485 	4937 	0.037654
40.67 	0.046634 	4932 	0.045783
40.69 	0.044359 	4937 	0.043766
40.71 	0.040754 	4932 	0.040398
40.73 	0.039789 	4926 	0.039551
40.75 	0.047049 	4931 	0.046099
40.77 	0.042924 	4939 	0.042686
40.79 	0.040414 	4924 	0.040176
40.81 	0.042704 	4941 	0.041993
40.83 	0.046672 	4928 	0.045840
40.85 	0.035946 	4924 	0.035471
40.87 	0.038758 	4928 	0.038164
40.89 	0.042385 	4931 	0.042147
40.91 	0.039813 	4923 	0.039218
40.93 	0.042156 	4934 	0.041682
40.95 	0.042133 	4913 	0.041656
40.97 	0.040211 	4924 	0.039973
40.99 	0.041227 	4924 	0.040870
41.01 	0.039902 	4912 	0.039902
41.03 	0.041794 	4905 	0.041316
41.05 	0.042950 	4936 	0.042356
41.07 	0.043611 	4930 	0.043135
41.09 	0.048593 	4939 	0.047644
41.11 	0.047416 	4935 	0.046447
41.13 	0.040721 	4936 	0.040365
41.15 	0.040073 	4941 	0.039362
41.17 	0.043373 	4934 	0.042423
41.19 	0.040974 	4930 	0.040498
41.21 	0.047195 	4937 	0.046839
41.23 	0.038874 	4939 	0.038518
41.25 	0.042570 	4933 	0.041858
41.27 	0.039749 	4931 	0.039511
41.29 	0.045455 	4928 	0.044979
41.31 	0.043179 	4933 	0.042704
41.33 	0.041118 	4937 	0.040999
41.35 	0.043945 	4938 	0.043708
41.37 	0.044273 	4924 	0.042964
41.39 	0.037705 	4933 	0.037112
41.41 	0.038571 	4926 	0.038214
41.43 	0.043417 	4929 	0.043179
41.45 	0.038055 	4914 	0.037816
41.47 	0.043849 	4926 	0.042660
41.49 	0.043949 	4892 	0.043590
41.51 	0.041903 	4940 	0.041547
41.53 	0.041869 	4944 	0.041395
41.55 	0.043161 	4935 	0.042805
41.57 	0.042299 	4941 	0.041706
41.59 	0.043179 	4933 	0.042347
41.61 	0.043812 	4953 	0.043220
41.63 	0.040502 	4938 	0.039553
41.65 	0.039968 	4929 	0.039136
41.67 	0.043117 	4940 	0.042643
41.69 	0.039620 	4947 	0.039502
41.71 	0.040332 	4934 	0.039976
41.73 	0.043760 	4936 	0.042929
41.75 	0.047474 	4929 	0.046761
41.77 	0.038656 	4941 	0.038162
41.79 	0.039442 	4944 	0.039086
41.81 	0.037682 	4936 	0.036852
41.83 	0.042614 	4928 	0.041544
41.85 	0.037255 	4939 	0.037017
41.87 	0.042553 	4935 	0.041722
41.89 	0.041151 	4933 	0.041033
41.91 	0.047609 	4936 	0.047135
41.93 	0.041363 	4932 	0.040887
41.95 	0.039140 	4931 	0.039021
41.97 	0.039683 	4914 	0.039206
41.99 	0.038532 	4905 	0.038293
42.01 	0.041279 	4942 	0.041160
42.03 	0.037659 	4939 	0.037185
42.05 	0.042811 	4952 	0.042338
42.07 	0.039093 	4937 	0.038143
42.09 	0.039814 	4948 	0.038867
42.11 	0.038827 	4945 	0.038590
42.13 	0.041254 	4945 	0.040543
42.15 	0.038882 	4938 	0.038526
42.17 	0.040464 	4918 	0.040106
42.19 	0.038101 	4908 	0.037624
42.21 	0.038360 	4901 	0.038120
42.23 	0.037204 	4892 	0.036844
42.25 	0.041726 	4889 	0.041007
42.27 	0.039803 	4874 	0.038842
42.29 	0.039071 	4863 	0.038830
42.31 	0.039753 	4855 	0.039029
42.33 	0.041994 	4834 	0.041631
42.35 	0.039479 	4838 	0.039237
42.37 	0.038923 	4830 	0.038317
42.39 	0.042048 	4804 	0.041804
42.41 	0.039342 	4804 	0.039220
42.43 	0.038815 	4792 	0.037959
42.45 	0.037898 	4776 	0.037653
42.47 	0.043022 	4765 	0.042530
42.49 	0.041133 	4765 	0.041133
42.51 	0.040692 	4743 	0.040445
42.53 	0.038283 	4728 	0.037787
42.55 	0.042906 	4708 	0.042408
42.57 	0.043129 	4730 	0.042489
42.59 	0.038697 	4729 	0.038450
42.61 	0.037596 	4708 	0.037098
42.63 	0.034190 	4709 	0.034065
42.65 	0.041409 	4685 	0.041159
42.67 	0.035867 	4684 	0.035492
42.69 	0.034874 	4674 	0.034498
42.71 	0.042462 	4663 	0.041708
42.73 	0.034914 	4640 	0.034535
42.75 	0.041152 	4617 	0.040772
42.77 	0.041087 	4600 	0.040450
42.79 	0.041248 	4582 	0.040353
42.81 	0.048444 	4562 	0.047802
42.83 	0.039683 	4536 	0.039295
42.85 	0.043065 	4528 	0.042419
42.87 	0.039120 	4499 	0.038339
42.89 	0.042857 	4480 	0.041942
42.91 	0.040395 	4456 	0.039869
42.93 	0.033963 	4446 	0.033700
42.95 	0.041667 	4416 	0.040297
42.97 	0.029993 	4401 	0.029727
42.99 	0.046522 	4385 	0.046121
43.01 	0.035297 	4363 	0.034760
43.03 	0.037849 	4333 	0.037308
43.05 	0.032139 	4325 	0.031868
43.07 	0.039339 	4296 	0.039066
43.09 	0.037357 	4283 	0.037220
43.11 	0.037368 	4255 	0.036817
43.13 	0.034694 	4237 	0.034141
43.15 	0.043272 	4206 	0.042575
43.17 	0.038526 	4179 	0.038246
43.19 	0.042680 	4194 	0.041959
43.21 	0.040988 	4172 	0.040566
43.23 	0.037073 	4154 	0.036932
43.25 	0.039420 	4135 	0.038711
43.27 	0.038733 	4105 	0.038162
43.29 	0.035366 	4100 	0.035223
43.31 	0.040696 	4079 	0.040122
43.33 	0.038509 	4051 	0.038364
43.35 	0.040427 	4032 	0.039991
43.37 	0.035616 	4015 	0.035325
43.39 	0.039980 	4002 	0.039687
43.41 	0.036506 	3972 	0.036063
43.43 	0.041667 	3960 	0.041667
43.45 	0.034053 	3935 	0.033607
43.47 	0.041061 	3921 	0.040762
43.49 	0.038235 	3897 	0.038235
43.51 	0.042043 	3877 	0.041590
43.53 	0.035206 	3863 	0.034751
43.55 	0.033738 	2964 	0.033541
43.57 	0.041108 	2238 	0.040585
43.59 	0.043528 	1746 	0.043193
43.61 	0.040711 	1351 	0.040711
43.63 	0.030969 	1001 	0.029799
43.65 	0.033479 	687 	0.033479
43.67 	0.029880 	502 	0.029880
43.69 	0.043597 	367 	0.038808
43.71 	0.041841 	239 	0.041841
43.73 	0.033333 	120 	0.033333
43.75 	0.062500 	16 	0.062500