File: Example_Data/25SC_s1_0013.003.dat
#F C:\frames\spec\25SC_s1_0013.003
#C title =s:13 frm:3 25SC_s1
#C wavelength =0.15406

#S 1  fr_average C:\frames\spec\25SC_s1_0013.003 C:\win32app\speccom\mask.axs chi 0 180 0 360 0.02
#C 2 theta =0.000000 to 180 deg
#C   q   =0.000000 to 81.568 nm^-1
#C  chi  =0.000000 to 360 deg
#C collumns:
#C  1 position (2theta or chi in degrees)
#C  2 average intensity (sum of all counts in the region divided with number of pixels)
#C  3 Number of pixels in region)
#C  4 error (sum of sqrt(intensity) for all pixels divided by number)
#N 4
#L TTh  Int  N_pix  Err
32.99 	0.049180 	61 	0.049180
33.01 	0.063001 	873 	0.062330
33.03 	0.061107 	1391 	0.060265
33.05 	0.067160 	1757 	0.065826
33.07 	0.053659 	2050 	0.052230
33.09 	0.056668 	2347 	0.055670
33.11 	0.064754 	2579 	0.063391
33.13 	0.063731 	2793 	0.062472
33.15 	0.059020 	2999 	0.058043
33.17 	0.052796 	3201 	0.051881
33.19 	0.057151 	3342 	0.055223
33.21 	0.059371 	3436 	0.058007
33.23 	0.059892 	3523 	0.059227
33.25 	0.058693 	3612 	0.057396
33.27 	0.060055 	3630 	0.058764
33.29 	0.063048 	3648 	0.061898
33.31 	0.057923 	3660 	0.057763
33.33 	0.053174 	3686 	0.052221
33.35 	0.061992 	3694 	0.060724
33.37 	0.058697 	3714 	0.058066
33.39 	0.059802 	3729 	0.058859
33.41 	0.056684 	3740 	0.055876
33.43 	0.057697 	3761 	0.057542
33.45 	0.059369 	3773 	0.058438
33.47 	0.059242 	3798 	0.058008
33.49 	0.061696 	3809 	0.060619
33.51 	0.066055 	3815 	0.065134
33.53 	0.064306 	3841 	0.062476
33.55 	0.058028 	3843 	0.056961
33.57 	0.058292 	3877 	0.056606
33.59 	0.059794 	3880 	0.057982
33.61 	0.064211 	3909 	0.062862
33.63 	0.059964 	3919 	0.059366
33.65 	0.064360 	3931 	0.062274
33.67 	0.062215 	3954 	0.061623
33.69 	0.058437 	3953 	0.057523
33.71 	0.057107 	3975 	0.056370
33.73 	0.066683 	4004 	0.065074
33.75 	0.065266 	3999 	0.064534
33.77 	0.055155 	4025 	0.054282
33.79 	0.064093 	4041 	0.063078
33.81 	0.060178 	4038 	0.058873
33.83 	0.059506 	4050 	0.058494
33.85 	0.062942 	4099 	0.061942
33.87 	0.058623 	4111 	0.057341
33.89 	0.061636 	4121 	0.060925
33.91 	0.064353 	4149 	0.062612
33.93 	0.059504 	4151 	0.057951
33.95 	0.057881 	4181 	0.057601
33.97 	0.057279 	4190 	0.056440
33.99 	0.062857 	4200 	0.062578
34.01 	0.056254 	4213 	0.055420
34.03 	0.060792 	4244 	0.059135
34.05 	0.069379 	4252 	0.068392
34.07 	0.061387 	4268 	0.060564
34.09 	0.058096 	4286 	0.057276
34.11 	0.056950 	4302 	0.055997
34.13 	0.056871 	4308 	0.055919
34.15 	0.063496 	4331 	0.062278
34.17 	0.057471 	4350 	0.057067
34.19 	0.059376 	4362 	0.058705
34.21 	0.055822 	4371 	0.054862
34.23 	0.061917 	4393 	0.060317
34.25 	0.059718 	4404 	0.058654
34.27 	0.060380 	4422 	0.059718
34.29 	0.060203 	4435 	0.058750
34.31 	0.057649 	4458 	0.056598
34.33 	0.058824 	4471 	0.058299
34.35 	0.054416 	4484 	0.053763
34.37 	0.062792 	4491 	0.061879
34.39 	0.062195 	4502 	0.061414
34.41 	0.061423 	4526 	0.060387
34.43 	0.056180 	4539 	0.055405
34.45 	0.056229 	4535 	0.055713
34.47 	0.061411 	4592 	0.060008
34.49 	0.060692 	4597 	0.059035
34.51 	0.055145 	4606 	0.053746
34.53 	0.059875 	4643 	0.059244
34.55 	0.054275 	4643 	0.053644
34.57 	0.057511 	4660 	0.055877
34.59 	0.058824 	4675 	0.058197
34.61 	0.056632 	4697 	0.055884
34.63 	0.061783 	4710 	0.060788
34.65 	0.061428 	4721 	0.059070
34.67 	0.062856 	4741 	0.061744
34.69 	0.067522 	4754 	0.066536
34.71 	0.059379 	4766 	0.058764
34.73 	0.063923 	4787 	0.062699
34.75 	0.063852 	4808 	0.062979
34.77 	0.058531 	4818 	0.057052
34.79 	0.064262 	4824 	0.063169
34.81 	0.056760 	4845 	0.056034
34.83 	0.060469 	4862 	0.059626
34.85 	0.056480 	4869 	0.055156
34.87 	0.065735 	4868 	0.064532
34.89 	0.058992 	4882 	0.057792
34.91 	0.059607 	4882 	0.059247
34.93 	0.051235 	4899 	0.050398
34.95 	0.062372 	4890 	0.061274
34.97 	0.064055 	4902 	0.062621
34.99 	0.062487 	4897 	0.061411
35.01 	0.053423 	4923 	0.052828
35.03 	0.058467 	4943 	0.057755
35.05 	0.066909 	4947 	0.065725
35.07 	0.061943 	4940 	0.060639
35.09 	0.056733 	4953 	0.055905
35.11 	0.059834 	4947 	0.058275
35.13 	0.060710 	4958 	0.059410
35.15 	0.060563 	4937 	0.059357
35.17 	0.058229 	4946 	0.057518
35.19 	0.059895 	4942 	0.058828
35.21 	0.058038 	4945 	0.056854
35.23 	0.059050 	4945 	0.057964
35.25 	0.060894 	4943 	0.059709
35.27 	0.060024 	4948 	0.058959
35.29 	0.053185 	4945 	0.052336
35.31 	0.067099 	4933 	0.065437
35.33 	0.060490 	4943 	0.059542
35.35 	0.064144 	4942 	0.062939
35.37 	0.058716 	4939 	0.057649
35.39 	0.062083 	4945 	0.060898
35.41 	0.053796 	4926 	0.053202
35.43 	0.058180 	4933 	0.057467
35.45 	0.054081 	4937 	0.052895
35.47 	0.062462 	4931 	0.061749
35.49 	0.058452 	4910 	0.057617
35.51 	0.059074 	4926 	0.058242
35.53 	0.067690 	4949 	0.065777
35.55 	0.064307 	4945 	0.063715
35.57 	0.058585 	4933 	0.058110
35.59 	0.057836 	4945 	0.057125
35.61 	0.061514 	4942 	0.060447
35.63 	0.053207 	4943 	0.052614
35.65 	0.058241 	4945 	0.056701
35.67 	0.062728 	4942 	0.061424
35.69 	0.064497 	4946 	0.063194
35.71 	0.061171 	4937 	0.059965
35.73 	0.062601 	4936 	0.061296
35.75 	0.060840 	4931 	0.060008
35.77 	0.060594 	4951 	0.059529
35.79 	0.061638 	4932 	0.060094
35.81 	0.058382 	4933 	0.056482
35.83 	0.056814 	4946 	0.056103
35.85 	0.058156 	4935 	0.057444
35.87 	0.058907 	4923 	0.057479
35.89 	0.064248 	4934 	0.063180
35.91 	0.055409 	4927 	0.054933
35.93 	0.063933 	4927 	0.062626
35.95 	0.059793 	4917 	0.058959
35.97 	0.062500 	4912 	0.061188
35.99 	0.060539 	4939 	0.059708
36.01 	0.056998 	4930 	0.056404
36.03 	0.059680 	4943 	0.058495
36.05 	0.060667 	4945 	0.059246
36.07 	0.052845 	4939 	0.052370
36.09 	0.054453 	4940 	0.053623
36.11 	0.058633 	4929 	0.057920
36.13 	0.053015 	4942 	0.052067
36.15 	0.056489 	4939 	0.055896
36.17 	0.058477 	4925 	0.057526
36.19 	0.052024 	4940 	0.050700
36.21 	0.062690 	4929 	0.061858
36.23 	0.060182 	4935 	0.059589
36.25 	0.059705 	4941 	0.058400
36.27 	0.063147 	4925 	0.061700
36.29 	0.059826 	4931 	0.058756
36.31 	0.052151 	4928 	0.051319
36.33 	0.065477 	4933 	0.064389
36.35 	0.058024 	4929 	0.057291
36.37 	0.057688 	4923 	0.057093
36.39 	0.066653 	4921 	0.064629
36.41 	0.060458 	4896 	0.059500
36.43 	0.059456 	4928 	0.058267
36.45 	0.058215 	4930 	0.057264
36.47 	0.061791 	4936 	0.059892
36.49 	0.053420 	4942 	0.053301
36.51 	0.053112 	4933 	0.052399
36.53 	0.056848 	4943 	0.055544
36.55 	0.065354 	4927 	0.064284
36.57 	0.061005 	4934 	0.060055
36.59 	0.053250 	4939 	0.052538
36.61 	0.057798 	4931 	0.056966
36.63 	0.061448 	4931 	0.060260
36.65 	0.054947 	4932 	0.053878
36.67 	0.056187 	4930 	0.055474
36.69 	0.058024 	4929 	0.057549
36.71 	0.061370 	4921 	0.060536
36.73 	0.056041 	4925 	0.055545
36.75 	0.052589 	4944 	0.052352
36.77 	0.057532 	4919 	0.056341
36.79 	0.060963 	4921 	0.060011
36.81 	0.058788 	4916 	0.057934
36.83 	0.057172 	4915 	0.056218
36.85 	0.056554 	4898 	0.055597
36.87 	0.056432 	4944 	0.055366
36.89 	0.053906 	4916 	0.053072
36.91 	0.053835 	4941 	0.053480
36.93 	0.057606 	4930 	0.057012
36.95 	0.052909 	4933 	0.052315
36.97 	0.052088 	4934 	0.051256
36.99 	0.060385 	4935 	0.058842
37.01 	0.059396 	4933 	0.058683
37.03 	0.059098 	4924 	0.057909
37.05 	0.058859 	4927 	0.058265
37.07 	0.057345 	4935 	0.056396
37.09 	0.053166 	4928 	0.052452
37.11 	0.056940 	4935 	0.056347
37.13 	0.057880 	4924 	0.056333
37.15 	0.060705 	4909 	0.059750
37.17 	0.059181 	4934 	0.058469
37.19 	0.059086 	4925 	0.058254
37.21 	0.057149 	4917 	0.056196
37.23 	0.049004 	4918 	0.048150
37.25 	0.054164 	4911 	0.052952
37.27 	0.053535 	4894 	0.052817
37.29 	0.053347 	4930 	0.052515
37.31 	0.058561 	4935 	0.057730
37.33 	0.058250 	4927 	0.057299
37.35 	0.055893 	4938 	0.055181
37.37 	0.053785 	4927 	0.053052
37.39 	0.050902 	4931 	0.050190
37.41 	0.058000 	4931 	0.056337
37.43 	0.045418 	4932 	0.045180
37.45 	0.055443 	4924 	0.054491
37.47 	0.047474 	4929 	0.046999
37.49 	0.052001 	4923 	0.051168
37.51 	0.051287 	4933 	0.050694
37.53 	0.056516 	4919 	0.055801
37.55 	0.051927 	4930 	0.050858
37.57 	0.054213 	4925 	0.053262
37.59 	0.053917 	4915 	0.053082
37.61 	0.054653 	4922 	0.053938
37.63 	0.054686 	4919 	0.053733
37.65 	0.053680 	4918 	0.052847
37.67 	0.054241 	4904 	0.053286
37.69 	0.056554 	4898 	0.055477
37.71 	0.054981 	4929 	0.054129
37.73 	0.049097 	4929 	0.048622
37.75 	0.054049 	4940 	0.053080
37.77 	0.051423 	4920 	0.050351
37.79 	0.056998 	4930 	0.056166
37.81 	0.053314 	4933 	0.052602
37.83 	0.058943 	4920 	0.058586
37.85 	0.053637 	4922 	0.053518
37.87 	0.057502 	4939 	0.056790
37.89 	0.048325 	4925 	0.047849
37.91 	0.052535 	4930 	0.051466
37.93 	0.054686 	4919 	0.053595
37.95 	0.062386 	4921 	0.060957
37.97 	0.051329 	4929 	0.050735
37.99 	0.052117 	4912 	0.051163
38.01 	0.051339 	4928 	0.050507
38.03 	0.051945 	4909 	0.051229
38.05 	0.057665 	4925 	0.056238
38.07 	0.051742 	4909 	0.050668
38.09 	0.049405 	4878 	0.048665
38.11 	0.054509 	4935 	0.053322
38.13 	0.049625 	4937 	0.048557
38.15 	0.053884 	4918 	0.052812
38.17 	0.050913 	4930 	0.049843
38.19 	0.056795 	4930 	0.055607
38.21 	0.058095 	4923 	0.057500
38.23 	0.055488 	4938 	0.054895
38.25 	0.052674 	4917 	0.051840
38.27 	0.050507 	4930 	0.049913
38.29 	0.052600 	4924 	0.051767
38.31 	0.055612 	4927 	0.055374
38.33 	0.050772 	4924 	0.050058
38.35 	0.058239 	4928 	0.057525
38.37 	0.059301 	4924 	0.058112
38.39 	0.060705 	4909 	0.060108
38.41 	0.055251 	4923 	0.054418
38.43 	0.058584 	4916 	0.057512
38.45 	0.056730 	4918 	0.055658
38.47 	0.057061 	4907 	0.055868
38.49 	0.063359 	4877 	0.062158
38.51 	0.056569 	4932 	0.055481
38.53 	0.061676 	4929 	0.060606
38.55 	0.063006 	4936 	0.062057
38.57 	0.059720 	4923 	0.058530
38.59 	0.058286 	4924 	0.056977
38.61 	0.055511 	4936 	0.054917
38.63 	0.057880 	4924 	0.056690
38.65 	0.057950 	4918 	0.057117
38.67 	0.064006 	4937 	0.062563
38.69 	0.058513 	4922 	0.057442
38.71 	0.060926 	4924 	0.060212
38.73 	0.058560 	4918 	0.057588
38.75 	0.052162 	4927 	0.051448
38.77 	0.054438 	4923 	0.053724
38.79 	0.053101 	4934 	0.052389
38.81 	0.052321 	4912 	0.052082
38.83 	0.048181 	4919 	0.047585
38.85 	0.054357 	4912 	0.053641
38.87 	0.054775 	4911 	0.053582
38.89 	0.055544 	4897 	0.054946
38.91 	0.050377 	4903 	0.049183
38.93 	0.050425 	4938 	0.049595
38.95 	0.047580 	4918 	0.047342
38.97 	0.053742 	4931 	0.053148
38.99 	0.046587 	4937 	0.045994
39.01 	0.047987 	4918 	0.047391
39.03 	0.046615 	4934 	0.045784
39.05 	0.052183 	4925 	0.051707
39.07 	0.054427 	4924 	0.053832
39.09 	0.045907 	4923 	0.045788
39.11 	0.049077 	4931 	0.048246
39.13 	0.050985 	4923 	0.050014
39.15 	0.049847 	4915 	0.049132
39.17 	0.048005 	4937 	0.047768
39.19 	0.051454 	4917 	0.050839
39.21 	0.049084 	4910 	0.047752
39.23 	0.054010 	4925 	0.053158
39.25 	0.052418 	4922 	0.051823
39.27 	0.049084 	4910 	0.048487
39.29 	0.048766 	4901 	0.048287
39.31 	0.046888 	4884 	0.046508
39.33 	0.048266 	4931 	0.047316
39.35 	0.052482 	4935 	0.051770
39.37 	0.049300 	4929 	0.048468
39.39 	0.047677 	4929 	0.046607
39.41 	0.043805 	4931 	0.043329
39.43 	0.049057 	4933 	0.048701
39.45 	0.048122 	4925 	0.047884
39.47 	0.047735 	4923 	0.047021
39.49 	0.043584 	4933 	0.042634
39.51 	0.042851 	4924 	0.042375
39.53 	0.053423 	4923 	0.052828
39.55 	0.045944 	4919 	0.045349
39.57 	0.048449 	4933 	0.047499
39.59 	0.051914 	4912 	0.051198
39.61 	0.041844 	4923 	0.041487
39.63 	0.049573 	4922 	0.048978
39.65 	0.049939 	4926 	0.049701
39.67 	0.049461 	4913 	0.048268
39.69 	0.046379 	4916 	0.045783
39.71 	0.047600 	4895 	0.047360
39.73 	0.051956 	4908 	0.050882
39.75 	0.049107 	4928 	0.048394
39.77 	0.050861 	4935 	0.050149
39.79 	0.049939 	4926 	0.049226
39.81 	0.044246 	4927 	0.043632
39.83 	0.047426 	4934 	0.046951
39.85 	0.049726 	4927 	0.048488
39.87 	0.049949 	4925 	0.049236
39.89 	0.052696 	4934 	0.051865
39.91 	0.051605 	4922 	0.050415
39.93 	0.049828 	4937 	0.048879
39.95 	0.051475 	4915 	0.051118
39.97 	0.053571 	4928 	0.052264
39.99 	0.051500 	4932 	0.051144
40.01 	0.049004 	4918 	0.048289
40.03 	0.048093 	4928 	0.047617
40.05 	0.047183 	4917 	0.046826
40.07 	0.048141 	4923 	0.047427
40.09 	0.046583 	4916 	0.045748
40.11 	0.048413 	4916 	0.047579
40.13 	0.044730 	4896 	0.044132
40.15 	0.052310 	4913 	0.051356
40.17 	0.047890 	4928 	0.047058
40.19 	0.047677 	4929 	0.046964
40.21 	0.044985 	4935 	0.044154
40.23 	0.046026 	4932 	0.045551
40.25 	0.046138 	4920 	0.045662
40.27 	0.045574 	4937 	0.044506
40.29 	0.048508 	4927 	0.047200
40.31 	0.044746 	4939 	0.044153
40.33 	0.046229 	4932 	0.045635
40.35 	0.049197 	4919 	0.048840
40.37 	0.045648 	4929 	0.045292
40.39 	0.043805 	4931 	0.043092
40.41 	0.046904 	4925 	0.046071
40.43 	0.048151 	4922 	0.047199
40.45 	0.046827 	4933 	0.045640
40.47 	0.044530 	4918 	0.044054
40.49 	0.049330 	4926 	0.048854
40.51 	0.045307 	4922 	0.044593
40.53 	0.044548 	4916 	0.043953
40.55 	0.044825 	4908 	0.043989
40.57 	0.041718 	4890 	0.041239
40.59 	0.041321 	4937 	0.040846
40.61 	0.050456 	4935 	0.049862
40.63 	0.046856 	4930 	0.046024
40.65 	0.044967 	4937 	0.044255
40.67 	0.044201 	4932 	0.043013
40.69 	0.046992 	4937 	0.046755
40.71 	0.046229 	4932 	0.045635
40.73 	0.042631 	4926 	0.041799
40.75 	0.040560 	4931 	0.039966
40.77 	0.044341 	4939 	0.043511
40.79 	0.045898 	4924 	0.045422
40.81 	0.042299 	4941 	0.041943
40.83 	0.049107 	4928 	0.048632
40.85 	0.050772 	4924 	0.049463
40.87 	0.048093 	4928 	0.047260
40.89 	0.045021 	4931 	0.044309
40.91 	0.044282 	4923 	0.043687
40.93 	0.046007 	4934 	0.044701
40.95 	0.043354 	4913 	0.042520
40.97 	0.048741 	4924 	0.048146
40.99 	0.052193 	4924 	0.050885
41.01 	0.049064 	4912 	0.047990
41.03 	0.046891 	4905 	0.046055
41.05 	0.042139 	4936 	0.041783
41.07 	0.039148 	4930 	0.039148
41.09 	0.046366 	4939 	0.046010
41.11 	0.043364 	4935 	0.042177
41.13 	0.051256 	4936 	0.050544
41.15 	0.041894 	4941 	0.041539
41.17 	0.045805 	4934 	0.045330
41.19 	0.041785 	4930 	0.041191
41.21 	0.043751 	4937 	0.043039
41.23 	0.040696 	4939 	0.040222
41.25 	0.043989 	4933 	0.043396
41.27 	0.042993 	4931 	0.042518
41.29 	0.045252 	4928 	0.044657
41.31 	0.044598 	4933 	0.044004
41.33 	0.043954 	4937 	0.043479
41.35 	0.045970 	4938 	0.045614
41.37 	0.041227 	4924 	0.041108
41.39 	0.047030 	4933 	0.046199
41.41 	0.044661 	4926 	0.044185
41.43 	0.042199 	4929 	0.042080
41.45 	0.046805 	4914 	0.045851
41.47 	0.045473 	4926 	0.045235
41.49 	0.044154 	4892 	0.043196
41.51 	0.052834 	4940 	0.051767
41.53 	0.047532 	4944 	0.047177
41.55 	0.047619 	4935 	0.047144
41.57 	0.051407 	4941 	0.050458
41.59 	0.049868 	4933 	0.049631
41.61 	0.044216 	4953 	0.043624
41.63 	0.044350 	4938 	0.043757
41.65 	0.043822 	4929 	0.042971
41.67 	0.045344 	4940 	0.045107
41.69 	0.040833 	4947 	0.040478
41.71 	0.043778 	4934 	0.042947
41.73 	0.048015 	4936 	0.047540
41.75 	0.039968 	4929 	0.039611
41.77 	0.039263 	4941 	0.038789
41.79 	0.044296 	4944 	0.043585
41.81 	0.042139 	4936 	0.042021
41.83 	0.043425 	4928 	0.042831
41.85 	0.043126 	4939 	0.042770
41.87 	0.046809 	4935 	0.046571
41.89 	0.042368 	4933 	0.042011
41.91 	0.045989 	4936 	0.045395
41.93 	0.047242 	4932 	0.046886
41.95 	0.042791 	4931 	0.042672
41.97 	0.041718 	4914 	0.041479
41.99 	0.043017 	4905 	0.042301
42.01 	0.040672 	4942 	0.040435
42.03 	0.041709 	4939 	0.041116
42.05 	0.044830 	4952 	0.044475
42.07 	0.039498 	4937 	0.039498
42.09 	0.049111 	4948 	0.048400
42.11 	0.039434 	4945 	0.038960
42.13 	0.042063 	4945 	0.041589
42.15 	0.046375 	4938 	0.045782
42.17 	0.045750 	4918 	0.045393
42.19 	0.037082 	4908 	0.036724
42.21 	0.043052 	4901 	0.042574
42.23 	0.042110 	4892 	0.041631
42.25 	0.046635 	4889 	0.046396
42.27 	0.037957 	4874 	0.037095
42.29 	0.046885 	4863 	0.046162
42.31 	0.040577 	4855 	0.040094
42.33 	0.040753 	4834 	0.040026
42.35 	0.041546 	4838 	0.041062
42.37 	0.042443 	4830 	0.042079
42.39 	0.042048 	4804 	0.041682
42.41 	0.044754 	4804 	0.044023
42.43 	0.039858 	4792 	0.039491
42.45 	0.040201 	4776 	0.039710
42.47 	0.044491 	4765 	0.044368
42.49 	0.040714 	4765 	0.039853
42.51 	0.046173 	4743 	0.045926
42.53 	0.042513 	4728 	0.042389
42.55 	0.050552 	4708 	0.050055
42.57 	0.037421 	4730 	0.036925
42.59 	0.041869 	4729 	0.041374
42.61 	0.038658 	4708 	0.038284
42.63 	0.042897 	4709 	0.042523
42.65 	0.042049 	4685 	0.041424
42.67 	0.043339 	4684 	0.042213
42.69 	0.043218 	4674 	0.042716
42.71 	0.042462 	4663 	0.041834
42.73 	0.042888 	4640 	0.042509
42.75 	0.041802 	4617 	0.041295
42.77 	0.041957 	4600 	0.041192
42.79 	0.037320 	4582 	0.036809
42.81 	0.046690 	4562 	0.046176
42.83 	0.039683 	4536 	0.039166
42.85 	0.042624 	4528 	0.042106
42.87 	0.038675 	4499 	0.038154
42.89 	0.038616 	4480 	0.038355
42.91 	0.041966 	4456 	0.040914
42.93 	0.042285 	4446 	0.041890
42.95 	0.045743 	4416 	0.044814
42.97 	0.044081 	4401 	0.043815
42.99 	0.039909 	4385 	0.039642
43.01 	0.038047 	4363 	0.037779
43.03 	0.039695 	4333 	0.039695
43.05 	0.042543 	4325 	0.042137
43.07 	0.040968 	4296 	0.040423
43.09 	0.048798 	4283 	0.048250
43.11 	0.040893 	4255 	0.039929
43.13 	0.047203 	4237 	0.046788
43.15 	0.042083 	4206 	0.041386
43.17 	0.039483 	4179 	0.038642
43.19 	0.041011 	4194 	0.041011
43.21 	0.045302 	4172 	0.045162
43.23 	0.043572 	4154 	0.042726
43.25 	0.045224 	4135 	0.044090
43.27 	0.040926 	4105 	0.040498
43.29 	0.040244 	4100 	0.039958
43.31 	0.043883 	4079 	0.043740
43.33 	0.039496 	4051 	0.039352
43.35 	0.040675 	4032 	0.040093
43.37 	0.043337 	4015 	0.042608
43.39 	0.037481 	4002 	0.036896
43.41 	0.038771 	3972 	0.038476
43.43 	0.035354 	3960 	0.035206
43.45 	0.044981 	3935 	0.044534
43.47 	0.044887 	3921 	0.044737
43.49 	0.042340 	3897 	0.041438
43.51 	0.044880 	3877 	0.044125
43.53 	0.042713 	3863 	0.042561
43.55 	0.044197 	2964 	0.043604
43.57 	0.038427 	2238 	0.037642
43.59 	0.034364 	1746 	0.034364
43.61 	0.041451 	1351 	0.041017
43.63 	0.027972 	1001 	0.027972
43.65 	0.033479 	687 	0.033479
43.67 	0.033865 	502 	0.033865
43.69 	0.038147 	367 	0.038147
43.71 	0.050209 	239 	0.050209
43.73 	0.000000 	120 	0.000000
43.75 	0.000000 	16 	0.000000