File: Example_Data/25SC_s1_0013.002.dat
#F C:\frames\spec\25SC_s1_0013.002
#C title =s:13 frm:2 25SC_s1
#C wavelength =0.15406

#S 1  fr_average C:\frames\spec\25SC_s1_0013.002 C:\win32app\speccom\mask.axs chi 0 180 0 360 0.02
#C 2 theta =0.000000 to 180 deg
#C   q   =0.000000 to 81.568 nm^-1
#C  chi  =0.000000 to 360 deg
#C collumns:
#C  1 position (2theta or chi in degrees)
#C  2 average intensity (sum of all counts in the region divided with number of pixels)
#C  3 Number of pixels in region)
#C  4 error (sum of sqrt(intensity) for all pixels divided by number)
#N 4
#L TTh  Int  N_pix  Err
32.99 	0.098361 	61 	0.098361
33.01 	0.071019 	873 	0.067664
33.03 	0.055356 	1391 	0.054935
33.05 	0.054639 	1757 	0.053305
33.07 	0.060000 	2050 	0.058857
33.09 	0.060077 	2347 	0.059328
33.11 	0.062040 	2579 	0.060412
33.13 	0.056570 	2793 	0.055731
33.15 	0.060020 	2999 	0.059239
33.17 	0.060294 	3201 	0.059379
33.19 	0.055955 	3342 	0.055429
33.21 	0.057043 	3436 	0.056361
33.23 	0.053080 	3523 	0.052415
33.25 	0.056478 	3612 	0.054532
33.27 	0.055096 	3630 	0.054128
33.29 	0.064145 	3648 	0.062700
33.31 	0.056011 	3660 	0.055051
33.33 	0.063755 	3686 	0.061663
33.35 	0.054683 	3694 	0.054049
33.37 	0.056543 	3714 	0.055912
33.39 	0.055779 	3729 	0.054994
33.41 	0.059091 	3740 	0.057525
33.43 	0.060356 	3761 	0.058748
33.45 	0.049563 	3773 	0.048942
33.47 	0.056082 	3798 	0.055311
33.49 	0.061433 	3809 	0.060511
33.51 	0.055046 	3815 	0.054432
33.53 	0.058839 	3841 	0.057771
33.55 	0.069997 	3843 	0.067533
33.57 	0.061904 	3877 	0.060544
33.59 	0.055928 	3880 	0.054569
33.61 	0.058583 	3909 	0.057384
33.63 	0.058433 	3919 	0.056914
33.65 	0.064106 	3931 	0.063212
33.67 	0.058422 	3954 	0.057089
33.69 	0.052618 	3953 	0.051705
33.71 	0.062138 	3975 	0.060665
33.73 	0.058691 	4004 	0.057814
33.75 	0.061015 	3999 	0.059990
33.77 	0.059627 	4025 	0.058754
33.79 	0.058649 	4041 	0.057924
33.81 	0.056216 	4038 	0.055200
33.83 	0.062222 	4050 	0.060631
33.85 	0.062698 	4099 	0.061269
33.87 	0.064218 	4111 	0.062200
33.89 	0.059209 	4121 	0.057906
33.91 	0.061461 	4149 	0.060755
33.93 	0.055408 	4151 	0.055126
33.95 	0.063860 	4181 	0.062739
33.97 	0.057757 	4190 	0.057337
33.99 	0.054524 	4200 	0.053826
34.01 	0.055542 	4213 	0.054986
34.03 	0.060320 	4244 	0.059492
34.05 	0.063970 	4252 	0.062730
34.07 	0.068182 	4268 	0.066672
34.09 	0.047830 	4286 	0.046851
34.11 	0.056020 	4302 	0.055067
34.13 	0.061746 	4308 	0.059842
34.15 	0.062110 	4331 	0.061164
34.17 	0.053333 	4350 	0.052525
34.19 	0.063503 	4362 	0.062138
34.21 	0.058797 	4371 	0.057724
34.23 	0.057364 	4393 	0.055897
34.25 	0.061535 	4404 	0.060072
34.27 	0.052917 	4422 	0.051990
34.29 	0.059301 	4435 	0.058487
34.31 	0.060117 	4458 	0.059460
34.33 	0.063520 	4471 	0.061796
34.35 	0.057092 	4484 	0.056439
34.37 	0.055667 	4491 	0.054754
34.39 	0.051755 	4502 	0.050584
34.41 	0.060097 	4526 	0.058803
34.43 	0.060366 	4539 	0.059333
34.45 	0.059316 	4535 	0.058412
34.47 	0.052047 	4592 	0.051027
34.49 	0.058516 	4597 	0.057879
34.51 	0.058402 	4606 	0.057512
34.53 	0.052552 	4643 	0.051669
34.55 	0.050183 	4643 	0.048543
34.57 	0.055365 	4660 	0.054988
34.59 	0.056471 	4675 	0.055593
34.61 	0.060464 	4697 	0.059841
34.63 	0.059448 	4710 	0.058329
34.65 	0.056556 	4721 	0.055935
34.67 	0.057794 	4741 	0.057299
34.69 	0.057425 	4754 	0.056686
34.71 	0.053084 	4766 	0.052224
34.73 	0.056821 	4787 	0.056086
34.75 	0.058236 	4808 	0.057505
34.77 	0.059568 	4818 	0.058474
34.79 	0.054104 	4824 	0.053740
34.81 	0.059030 	4845 	0.058184
34.83 	0.056972 	4862 	0.056370
34.85 	0.058328 	4869 	0.057606
34.87 	0.060394 	4868 	0.059311
34.89 	0.061450 	4882 	0.060490
34.91 	0.059812 	4882 	0.058442
34.93 	0.055317 	4899 	0.054241
34.95 	0.056237 	4890 	0.055039
34.97 	0.051204 	4902 	0.050467
34.99 	0.062079 	4897 	0.061002
35.01 	0.053423 	4923 	0.052451
35.03 	0.057657 	4943 	0.056453
35.05 	0.054376 	4947 	0.053548
35.07 	0.050000 	4940 	0.048577
35.09 	0.055926 	4953 	0.054605
35.11 	0.057004 	4947 	0.055465
35.13 	0.063130 	4958 	0.061910
35.15 	0.056917 	4937 	0.055731
35.17 	0.057825 	4946 	0.056877
35.19 	0.064549 	4942 	0.063245
35.21 	0.058847 	4945 	0.057781
35.23 	0.063498 	4945 	0.062906
35.25 	0.061299 	4943 	0.059995
35.27 	0.059822 	4948 	0.059112
35.29 	0.058847 	4945 	0.058255
35.31 	0.049666 	4933 	0.049309
35.33 	0.056039 	4943 	0.054735
35.35 	0.060299 	4942 	0.058996
35.37 	0.053047 	4939 	0.051980
35.39 	0.060870 	4945 	0.058955
35.41 	0.055217 	4926 	0.054504
35.43 	0.058180 	4933 	0.056992
35.45 	0.060563 	4937 	0.059970
35.47 	0.053133 	4931 	0.052401
35.49 	0.056008 	4910 	0.055770
35.51 	0.063743 	4926 	0.062792
35.53 	0.061629 	4949 	0.059853
35.55 	0.053792 	4945 	0.053318
35.57 	0.057774 	4933 	0.057299
35.59 	0.055005 	4945 	0.054057
35.61 	0.058276 	4942 	0.057190
35.63 	0.057253 	4943 	0.056068
35.65 	0.058645 	4945 	0.057579
35.67 	0.055241 	4942 	0.054767
35.69 	0.059240 	4946 	0.058174
35.71 	0.056309 	4937 	0.055242
35.73 	0.061994 	4936 	0.060213
35.75 	0.064490 	4931 	0.062926
35.77 	0.057362 	4951 	0.055923
35.79 	0.053528 	4932 	0.052459
35.81 	0.058180 	4933 	0.056992
35.83 	0.059644 	4946 	0.058559
35.85 	0.055319 	4935 	0.054488
35.87 	0.057079 	4923 	0.055413
35.89 	0.064856 	4934 	0.063293
35.91 	0.055815 	4927 	0.054864
35.93 	0.058859 	4927 	0.057770
35.95 	0.053895 	4917 	0.052822
35.97 	0.050896 	4912 	0.049564
35.99 	0.060336 	4939 	0.059387
36.01 	0.059026 	4930 	0.058076
36.03 	0.055230 	4943 	0.054144
36.05 	0.053185 	4945 	0.051843
36.07 	0.056692 	4939 	0.055980
36.09 	0.058097 	4940 	0.056911
36.11 	0.063502 	4929 	0.062056
36.13 	0.056657 	4942 	0.055946
36.15 	0.052845 	4939 	0.052014
36.17 	0.058477 	4925 	0.057169
36.19 	0.056680 	4940 	0.054526
36.21 	0.054778 	4929 	0.053946
36.23 	0.062411 	4935 	0.060987
36.25 	0.055657 	4941 	0.054827
36.27 	0.061523 	4925 	0.060452
36.29 	0.060231 	4931 	0.058924
36.31 	0.055601 	4928 	0.055125
36.33 	0.057977 	4933 	0.057027
36.35 	0.057415 	4929 	0.056227
36.37 	0.060126 	4923 	0.058817
36.39 	0.070514 	4921 	0.069086
36.41 	0.056781 	4896 	0.055944
36.43 	0.056818 	4928 	0.055392
36.45 	0.059026 	4930 	0.058313
36.47 	0.053485 	4936 	0.052891
36.49 	0.050789 	4942 	0.049485
36.51 	0.055950 	4933 	0.054980
36.53 	0.051183 	4943 	0.050591
36.55 	0.060280 	4927 	0.058972
36.57 	0.060397 	4934 	0.059447
36.59 	0.066208 	4939 	0.064666
36.61 	0.059420 	4931 	0.058450
36.63 	0.053539 	4931 	0.052945
36.65 	0.062247 	4932 	0.060782
36.67 	0.056998 	4930 	0.056404
36.69 	0.053358 	4929 	0.052645
36.71 	0.054867 	4921 	0.053776
36.73 	0.055838 	4925 	0.054629
36.75 	0.054814 	4944 	0.054221
36.77 	0.051230 	4919 	0.050754
36.79 	0.052022 	4921 	0.051427
36.81 	0.055736 	4916 	0.054287
36.83 	0.055137 	4915 	0.054422
36.85 	0.049612 	4898 	0.048895
36.87 	0.055421 	4944 	0.054591
36.89 	0.051465 	4916 	0.050750
36.91 	0.057478 	4941 	0.056648
36.93 	0.057809 	4930 	0.056859
36.95 	0.054125 	4933 	0.053769
36.97 	0.062424 	4934 	0.060524
36.99 	0.054306 	4935 	0.053337
37.01 	0.058990 	4933 	0.058159
37.03 	0.058083 	4924 	0.057607
37.05 	0.055003 	4927 	0.053933
37.07 	0.058967 	4935 	0.057760
37.09 	0.057224 	4928 	0.056254
37.11 	0.062006 	4935 	0.061175
37.13 	0.064175 	4924 	0.063224
37.15 	0.058464 	4909 	0.057271
37.17 	0.052696 	4934 	0.051983
37.19 	0.057868 	4925 	0.057035
37.21 	0.060403 	4917 	0.058953
37.23 	0.053884 	4918 	0.053526
37.25 	0.058237 	4911 	0.057402
37.27 	0.055987 	4894 	0.055029
37.29 	0.057809 	4930 	0.056978
37.31 	0.056940 	4935 	0.056465
37.33 	0.062107 	4927 	0.060561
37.35 	0.055488 	4938 	0.054401
37.37 	0.054191 	4927 	0.053002
37.39 	0.056986 	4931 	0.056036
37.41 	0.055770 	4931 	0.055294
37.43 	0.056367 	4932 	0.055535
37.45 	0.051990 	4924 	0.051157
37.47 	0.053561 	4929 	0.052828
37.49 	0.052001 	4923 	0.051049
37.51 	0.052706 	4933 	0.052588
37.53 	0.058548 	4919 	0.057596
37.55 	0.053347 	4930 	0.052753
37.57 	0.053198 	4925 	0.052246
37.59 	0.050865 	4915 	0.049792
37.61 	0.053840 	4922 	0.053126
37.63 	0.056719 	4919 	0.055647
37.65 	0.050630 	4918 	0.049181
37.67 	0.055057 	4904 	0.054460
37.69 	0.052470 	4898 	0.052112
37.71 	0.053358 	4929 	0.052645
37.73 	0.055995 	4929 	0.055401
37.75 	0.055870 	4940 	0.055752
37.77 	0.052439 	4920 	0.051844
37.79 	0.056592 	4930 	0.055761
37.81 	0.055544 	4933 	0.054357
37.83 	0.054878 	4920 	0.053806
37.85 	0.052215 	4922 	0.051143
37.87 	0.058109 	4939 	0.056310
37.89 	0.049137 	4925 	0.048304
37.91 	0.050304 	4930 	0.049829
37.93 	0.047774 	4919 	0.047179
37.95 	0.049583 	4921 	0.048592
37.97 	0.056807 	4929 	0.055262
37.99 	0.054764 	4912 	0.054048
38.01 	0.047890 	4928 	0.047176
38.03 	0.046242 	4909 	0.046003
38.05 	0.056041 	4925 	0.054851
38.07 	0.053779 	4909 	0.052585
38.09 	0.049200 	4878 	0.048600
38.11 	0.052482 	4935 	0.051651
38.13 	0.054081 	4937 	0.053607
38.15 	0.052054 	4918 	0.051815
38.17 	0.053347 	4930 	0.052614
38.19 	0.049493 	4930 	0.049018
38.21 	0.047938 	4923 	0.047700
38.23 	0.059336 	4938 	0.058149
38.25 	0.058369 	4917 	0.057535
38.27 	0.051724 	4930 	0.051368
38.29 	0.060317 	4924 	0.059227
38.31 	0.052567 	4927 	0.051616
38.33 	0.052600 	4924 	0.052124
38.35 	0.056209 	4928 	0.055734
38.37 	0.054224 	4924 	0.053748
38.39 	0.053168 	4909 	0.052332
38.41 	0.061548 	4923 	0.060358
38.43 	0.058584 	4916 	0.057273
38.45 	0.055307 	4918 	0.053997
38.47 	0.057877 	4907 	0.056086
38.49 	0.060078 	4877 	0.059117
38.51 	0.059611 	4932 	0.058185
38.53 	0.063502 	4929 	0.062551
38.55 	0.065640 	4936 	0.064790
38.57 	0.066220 	4923 	0.064515
38.59 	0.064175 	4924 	0.063700
38.61 	0.064830 	4936 	0.063643
38.63 	0.064988 	4924 	0.063422
38.65 	0.056324 	4918 	0.055490
38.67 	0.060968 	4937 	0.059900
38.69 	0.071312 	4922 	0.070103
38.71 	0.055240 	4924 	0.054268
38.73 	0.053680 	4918 	0.052589
38.75 	0.052162 	4927 	0.051310
38.77 	0.064798 	4923 	0.063251
38.79 	0.054114 	4934 	0.053639
38.81 	0.061075 	4912 	0.060240
38.83 	0.057532 	4919 	0.056560
38.85 	0.058225 	4912 	0.057390
38.87 	0.056200 	4911 	0.055604
38.89 	0.053911 	4897 	0.053073
38.91 	0.055272 	4903 	0.053958
38.93 	0.048400 	4938 	0.047570
38.95 	0.045954 	4918 	0.045358
38.97 	0.052525 	4931 	0.051812
38.99 	0.048410 	4937 	0.047935
39.01 	0.052664 	4918 	0.051929
39.03 	0.043778 	4934 	0.043540
39.05 	0.048122 	4925 	0.047408
39.07 	0.049553 	4924 	0.048701
39.09 	0.049157 	4923 	0.048443
39.11 	0.051308 	4931 	0.050120
39.13 	0.047126 	4923 	0.046531
39.15 	0.049034 	4915 	0.048438
39.17 	0.048815 	4937 	0.047866
39.19 	0.048607 	4917 	0.047892
39.21 	0.053360 	4910 	0.052525
39.23 	0.048934 	4925 	0.048101
39.25 	0.050792 	4922 	0.050078
39.27 	0.043788 	4910 	0.043192
39.29 	0.042236 	4901 	0.041878
39.31 	0.047093 	4884 	0.046373
39.33 	0.045832 	4931 	0.045338
39.35 	0.044174 	4935 	0.043106
39.37 	0.049097 	4929 	0.048146
39.39 	0.048894 	4929 	0.048300
39.41 	0.043805 	4931 	0.043329
39.43 	0.050882 	4933 	0.050288
39.45 	0.046294 	4925 	0.045581
39.47 	0.043673 	4923 	0.043078
39.49 	0.047841 	4933 	0.047366
39.51 	0.045898 	4924 	0.045422
39.53 	0.044079 	4923 	0.043226
39.55 	0.047571 	4919 	0.046380
39.57 	0.046219 	4933 	0.045626
39.59 	0.050692 	4912 	0.049977
39.61 	0.047532 	4923 	0.046699
39.63 	0.042462 	4922 	0.042105
39.65 	0.047909 	4926 	0.047552
39.67 	0.041726 	4913 	0.041130
39.69 	0.045769 	4916 	0.044935
39.71 	0.047600 	4895 	0.046762
39.73 	0.050530 	4908 	0.049575
39.75 	0.045657 	4928 	0.045063
39.77 	0.045187 	4935 	0.044594
39.79 	0.044864 	4926 	0.044269
39.81 	0.049320 	4927 	0.048963
39.83 	0.050872 	4934 	0.050397
39.85 	0.042622 	4927 	0.042385
39.87 	0.046091 	4925 	0.045735
39.89 	0.049250 	4934 	0.048400
39.91 	0.048354 	4922 	0.047621
39.93 	0.051246 	4937 	0.050178
39.95 	0.039674 	4915 	0.039555
39.97 	0.047890 	4928 	0.047176
39.99 	0.048459 	4932 	0.047509
40.01 	0.047174 	4918 	0.046816
40.03 	0.045455 	4928 	0.045098
40.05 	0.048607 	4917 	0.047892
40.07 	0.042657 	4923 	0.042300
40.09 	0.039666 	4916 	0.039309
40.11 	0.045972 	4916 	0.045138
40.13 	0.046977 	4896 	0.046499
40.15 	0.041930 	4913 	0.041691
40.17 	0.037946 	4928 	0.037590
40.19 	0.043214 	4929 	0.042501
40.21 	0.045390 	4935 	0.044559
40.23 	0.043593 	4932 	0.043118
40.25 	0.044512 	4920 	0.044036
40.27 	0.047195 	4937 	0.046245
40.29 	0.051553 	4927 	0.050602
40.31 	0.046568 	4939 	0.045857
40.33 	0.042782 	4932 	0.042168
40.35 	0.043911 	4919 	0.043078
40.37 	0.044228 	4929 	0.043753
40.39 	0.042993 	4931 	0.042399
40.41 	0.039391 	4925 	0.038796
40.43 	0.043885 	4922 	0.043647
40.45 	0.048247 	4933 	0.048009
40.47 	0.045750 	4918 	0.044797
40.49 	0.043037 	4926 	0.042423
40.51 	0.044088 	4922 	0.043969
40.53 	0.045362 	4916 	0.044766
40.55 	0.043602 	4908 	0.043244
40.57 	0.042536 	4890 	0.041458
40.59 	0.040105 	4937 	0.039393
40.61 	0.037285 	4935 	0.037047
40.63 	0.047465 	4930 	0.046870
40.65 	0.035649 	4937 	0.035531
40.67 	0.047040 	4932 	0.046565
40.69 	0.045169 	4937 	0.044576
40.71 	0.042376 	4932 	0.041664
40.73 	0.046488 	4926 	0.045893
40.75 	0.038329 	4931 	0.038329
40.77 	0.045758 	4939 	0.045284
40.79 	0.041024 	4924 	0.040667
40.81 	0.041287 	4941 	0.041050
40.83 	0.039367 	4928 	0.038773
40.85 	0.039196 	4924 	0.038958
40.87 	0.041599 	4928 	0.041124
40.89 	0.042182 	4931 	0.041707
40.91 	0.043063 	4923 	0.042825
40.93 	0.036887 	4934 	0.036531
40.95 	0.040912 	4913 	0.040196
40.97 	0.042242 	4924 	0.041885
40.99 	0.045898 	4924 	0.045422
41.01 	0.038070 	4912 	0.037096
41.03 	0.045056 	4905 	0.044340
41.05 	0.040113 	4936 	0.039283
41.07 	0.041988 	4930 	0.041275
41.09 	0.036850 	4939 	0.036612
41.11 	0.039919 	4935 	0.039800
41.13 	0.041734 	4936 	0.041378
41.15 	0.038859 	4941 	0.038503
41.17 	0.041954 	4934 	0.041479
41.19 	0.046653 	4930 	0.046059
41.21 	0.039295 	4937 	0.038939
41.23 	0.039482 	4939 	0.038889
41.25 	0.041962 	4933 	0.041369
41.27 	0.038937 	4931 	0.038462
41.29 	0.041396 	4928 	0.041039
41.31 	0.043381 	4933 	0.042906
41.33 	0.040510 	4937 	0.040154
41.35 	0.043742 	4938 	0.043268
41.37 	0.042039 	4924 	0.041801
41.39 	0.040341 	4933 	0.040341
41.41 	0.044458 	4926 	0.044220
41.43 	0.038953 	4929 	0.038121
41.45 	0.041514 	4914 	0.040799
41.47 	0.036135 	4926 	0.035540
41.49 	0.043132 	4892 	0.042653
41.51 	0.042713 	4940 	0.042475
41.53 	0.044296 	4944 	0.043585
41.55 	0.041945 	4935 	0.041589
41.57 	0.042502 	4941 	0.042027
41.59 	0.041760 	4933 	0.041403
41.61 	0.039168 	4953 	0.038439
41.63 	0.044552 	4938 	0.044078
41.65 	0.041185 	4929 	0.040828
41.67 	0.043522 	4940 	0.042692
41.69 	0.040429 	4947 	0.039836
41.71 	0.046210 	4934 	0.045854
41.73 	0.035656 	4936 	0.035419
41.75 	0.041591 	4929 	0.041234
41.77 	0.036430 	4941 	0.035719
41.79 	0.043689 	4944 	0.043334
41.81 	0.036264 	4936 	0.035789
41.83 	0.039773 	4928 	0.039178
41.85 	0.045353 	4939 	0.044760
41.87 	0.042351 	4935 	0.041757
41.89 	0.043179 	4933 	0.042704
41.91 	0.045178 	4936 	0.044941
41.93 	0.045012 	4932 	0.044893
41.95 	0.041168 	4931 	0.040812
41.97 	0.043346 	4914 	0.042750
41.99 	0.040367 	4905 	0.039889
42.01 	0.040874 	4942 	0.040163
42.03 	0.040696 	4939 	0.040321
42.05 	0.041599 	4952 	0.040752
42.07 	0.038080 	4937 	0.037368
42.09 	0.035772 	4948 	0.035417
42.11 	0.039838 	4945 	0.039246
42.13 	0.035187 	4945 	0.034595
42.15 	0.040502 	4938 	0.039672
42.17 	0.045547 	4918 	0.044951
42.19 	0.042176 	4908 	0.041579
42.21 	0.037951 	4901 	0.037473
42.23 	0.042723 	4892 	0.042483
42.25 	0.040090 	4889 	0.039491
42.27 	0.038777 	4874 	0.038176
42.29 	0.038659 	4863 	0.038298
42.31 	0.043872 	4855 	0.043752
42.33 	0.042201 	4834 	0.041595
42.35 	0.043200 	4838 	0.042715
42.37 	0.039337 	4830 	0.038974
42.39 	0.036428 	4804 	0.035940
42.41 	0.040799 	4804 	0.040312
42.43 	0.041110 	4792 	0.040621
42.45 	0.037060 	4776 	0.036692
42.47 	0.039035 	4765 	0.038666
42.49 	0.035677 	4765 	0.035431
42.51 	0.037318 	4743 	0.037071
42.53 	0.041244 	4728 	0.040129
42.55 	0.038870 	4708 	0.038497
42.57 	0.039112 	4730 	0.038493
42.59 	0.043138 	4729 	0.042766
42.61 	0.034834 	4708 	0.034834
42.63 	0.039924 	4709 	0.039675
42.65 	0.043116 	4685 	0.042866
42.67 	0.039496 	4684 	0.038871
42.69 	0.039795 	4674 	0.039419
42.71 	0.037529 	4663 	0.036776
42.73 	0.039655 	4640 	0.039024
42.75 	0.040069 	4617 	0.039562
42.77 	0.042609 	4600 	0.042099
42.79 	0.036229 	4582 	0.035717
42.81 	0.035949 	4562 	0.035821
42.83 	0.041005 	4536 	0.040747
42.85 	0.038428 	4528 	0.037651
42.87 	0.041787 	4499 	0.041266
42.89 	0.039286 	4480 	0.038893
42.91 	0.037478 	4456 	0.036952
42.93 	0.034863 	4446 	0.034468
42.95 	0.040308 	4416 	0.039910
42.97 	0.041127 	4401 	0.040195
42.99 	0.037400 	4385 	0.037133
43.01 	0.040339 	4363 	0.039802
43.03 	0.033003 	4333 	0.032732
43.05 	0.039306 	4325 	0.038900
43.07 	0.040503 	4296 	0.039799
43.09 	0.041793 	4283 	0.041087
43.11 	0.039483 	4255 	0.039208
43.13 	0.034222 	4237 	0.033808
43.15 	0.038041 	4206 	0.037762
43.17 	0.036612 	4179 	0.035771
43.19 	0.043872 	4194 	0.043733
43.21 	0.034756 	4172 	0.034615
43.23 	0.039239 	4154 	0.039098
43.25 	0.034341 	4135 	0.034058
43.27 	0.044580 	4105 	0.044009
43.29 	0.035854 	4100 	0.035282
43.31 	0.038490 	4079 	0.037748
43.33 	0.035794 	4051 	0.035794
43.35 	0.039187 	4032 	0.038896
43.37 	0.037609 	4015 	0.037463
43.39 	0.033983 	4002 	0.033837
43.41 	0.043303 	3972 	0.042418
43.43 	0.035859 	3960 	0.035563
43.45 	0.037103 	3935 	0.036507
43.47 	0.039276 	3921 	0.039126
43.49 	0.039261 	3897 	0.038635
43.51 	0.034563 	3877 	0.034110
43.53 	0.036500 	3863 	0.036348
43.55 	0.037449 	2964 	0.037054
43.57 	0.037534 	2238 	0.036748
43.59 	0.033219 	1746 	0.033219
43.61 	0.028868 	1351 	0.028434
43.63 	0.030969 	1001 	0.030969
43.65 	0.026201 	687 	0.026201
43.67 	0.039841 	502 	0.038674
43.69 	0.054496 	367 	0.054496
43.71 	0.062762 	239 	0.062762
43.73 	0.033333 	120 	0.033333
43.75 	0.000000 	16 	0.000000