File: Example_Data/25SC_s1_0018.003.dat
#F C:\frames\spec\25SC_s1_0018.003
#C title =s:18 frm:3 25SC_s1
#C wavelength =0.15406

#S 1  fr_average C:\frames\spec\25SC_s1_0018.003 C:\win32app\speccom\mask.axs chi 0 180 0 360 0.02
#C 2 theta =0.000000 to 180 deg
#C   q   =0.000000 to 81.568 nm^-1
#C  chi  =0.000000 to 360 deg
#C collumns:
#C  1 position (2theta or chi in degrees)
#C  2 average intensity (sum of all counts in the region divided with number of pixels)
#C  3 Number of pixels in region)
#C  4 error (sum of sqrt(intensity) for all pixels divided by number)
#N 4
#L TTh  Int  N_pix  Err
32.99 	0.049180 	61 	0.049180
33.01 	0.057274 	873 	0.056603
33.03 	0.063264 	1391 	0.061158
33.05 	0.061468 	1757 	0.060468
33.07 	0.066829 	2050 	0.065354
33.09 	0.068172 	2347 	0.066675
33.11 	0.055060 	2579 	0.053470
33.13 	0.059434 	2793 	0.058595
33.15 	0.051350 	2999 	0.050764
33.17 	0.056232 	3201 	0.054951
33.19 	0.054159 	3342 	0.053458
33.21 	0.054424 	3436 	0.053571
33.23 	0.062731 	3523 	0.061041
33.25 	0.057863 	3612 	0.057187
33.27 	0.066116 	3630 	0.064960
33.29 	0.059759 	3648 	0.058635
33.31 	0.059016 	3660 	0.058056
33.33 	0.060499 	3686 	0.059069
33.35 	0.063887 	3694 	0.062434
33.37 	0.062466 	3714 	0.061362
33.39 	0.061947 	3729 	0.059565
33.41 	0.059358 	3740 	0.058262
33.43 	0.066738 	3761 	0.065803
33.45 	0.057779 	3773 	0.057158
33.47 	0.058452 	3798 	0.057526
33.49 	0.055658 	3809 	0.054735
33.51 	0.065007 	3815 	0.063778
33.53 	0.052330 	3841 	0.051110
33.55 	0.062451 	3843 	0.061079
33.57 	0.062419 	3877 	0.061664
33.59 	0.057474 	3880 	0.056870
33.61 	0.073932 	3909 	0.072708
33.63 	0.062771 	3919 	0.061874
33.65 	0.054185 	3931 	0.053738
33.67 	0.061457 	3954 	0.060568
33.69 	0.064761 	3953 	0.063575
33.71 	0.063145 	3975 	0.061499
33.73 	0.058941 	4004 	0.057624
33.75 	0.057014 	3999 	0.056428
33.77 	0.057888 	4025 	0.057015
33.79 	0.061618 	4041 	0.060894
33.81 	0.062655 	4038 	0.060890
33.83 	0.049877 	4050 	0.049732
33.85 	0.050988 	4099 	0.050131
33.87 	0.058866 	4111 	0.057727
33.89 	0.057996 	4121 	0.057285
33.91 	0.057845 	4149 	0.057139
33.93 	0.055408 	4151 	0.055267
33.95 	0.064099 	4181 	0.062815
33.97 	0.065155 	4190 	0.064316
33.99 	0.064286 	4200 	0.063588
34.01 	0.062663 	4213 	0.061690
34.03 	0.061970 	4244 	0.061004
34.05 	0.057620 	4252 	0.056656
34.07 	0.056935 	4268 	0.055151
34.09 	0.063462 	4286 	0.062642
34.11 	0.056718 	4302 	0.055628
34.13 	0.061746 	4308 	0.060930
34.15 	0.057031 	4331 	0.056625
34.17 	0.060460 	4350 	0.059630
34.19 	0.061440 	4362 	0.061037
34.21 	0.062228 	4371 	0.061156
34.23 	0.063282 	4393 	0.062082
34.25 	0.064033 	4404 	0.062969
34.27 	0.063772 	4422 	0.062447
34.29 	0.056595 	4435 	0.056199
34.31 	0.058995 	4458 	0.057506
34.33 	0.057034 	4471 	0.056117
34.35 	0.057984 	4484 	0.056808
34.37 	0.059675 	4491 	0.058240
34.39 	0.055531 	4502 	0.054469
34.41 	0.065400 	4526 	0.064365
34.43 	0.060366 	4539 	0.059333
34.45 	0.061080 	4535 	0.059401
34.47 	0.056838 	4592 	0.056073
34.49 	0.065042 	4597 	0.063513
34.51 	0.057534 	4606 	0.056516
34.53 	0.055568 	4643 	0.054432
34.55 	0.057291 	4643 	0.055777
34.57 	0.057082 	4660 	0.056453
34.59 	0.062674 	4675 	0.061295
34.61 	0.061103 	4697 	0.059980
34.63 	0.056900 	4710 	0.055532
34.65 	0.058886 	4721 	0.057893
34.67 	0.065809 	4741 	0.064697
34.69 	0.058056 	4754 	0.057317
34.71 	0.063785 	4766 	0.062802
34.73 	0.058910 	4787 	0.058175
34.75 	0.060316 	4808 	0.058834
34.77 	0.055832 	4818 	0.054475
34.79 	0.064055 	4824 	0.062962
34.81 	0.065222 	4845 	0.063529
34.83 	0.062937 	4862 	0.062576
34.85 	0.056685 	4869 	0.055602
34.87 	0.057108 	4868 	0.055904
34.89 	0.059197 	4882 	0.058117
34.91 	0.062270 	4882 	0.060670
34.93 	0.062258 	4899 	0.061301
34.95 	0.059509 	4890 	0.058052
34.97 	0.058344 	4902 	0.057507
34.99 	0.058403 	4897 	0.057087
35.01 	0.064798 	4923 	0.063251
35.03 	0.063929 	4943 	0.062606
35.05 	0.057206 	4947 	0.055904
35.07 	0.052227 	4940 	0.051160
35.09 	0.063194 	4953 	0.062603
35.11 	0.058621 	4947 	0.057674
35.13 	0.059701 	4958 	0.059465
35.15 	0.065019 	4937 	0.063477
35.17 	0.058835 	4946 	0.057888
35.19 	0.060704 	4942 	0.059756
35.21 	0.064307 	4945 	0.062748
35.23 	0.058847 	4945 	0.058255
35.25 	0.062108 	4943 	0.061160
35.27 	0.056993 	4948 	0.055809
35.29 	0.059454 	4945 	0.057559
35.31 	0.058180 	4933 	0.056992
35.33 	0.060894 	4943 	0.059946
35.35 	0.066572 	4942 	0.065861
35.37 	0.056692 	4939 	0.055624
35.39 	0.060465 	4945 	0.058807
35.41 	0.055014 	4926 	0.054400
35.43 	0.060815 	4933 	0.059014
35.45 	0.058538 	4937 	0.057569
35.47 	0.059420 	4931 	0.058826
35.49 	0.060285 	4910 	0.058853
35.51 	0.057450 	4926 	0.056737
35.53 	0.057992 	4949 	0.056690
35.55 	0.063701 	4945 	0.062753
35.57 	0.056152 	4933 	0.054371
35.59 	0.057432 	4945 	0.056346
35.61 	0.054431 	4942 	0.054076
35.63 	0.058264 	4943 	0.057553
35.65 	0.056421 	4945 	0.055828
35.67 	0.055038 	4942 	0.053735
35.69 	0.058229 	4946 	0.057874
35.71 	0.062386 	4937 	0.059974
35.73 	0.052877 	4936 	0.051571
35.75 	0.059014 	4931 	0.057945
35.77 	0.065845 	4951 	0.065017
35.79 	0.057380 	4932 	0.056668
35.81 	0.055544 	4933 	0.054713
35.83 	0.055398 	4946 	0.054076
35.85 	0.066059 	4935 	0.064872
35.87 	0.054235 	4923 	0.053402
35.89 	0.062221 	4934 	0.060440
35.91 	0.062513 	4927 	0.061027
35.93 	0.062513 	4927 	0.061324
35.95 	0.060199 	4917 	0.059365
35.97 	0.051303 	4912 	0.050707
35.99 	0.055477 	4939 	0.054647
36.01 	0.058215 	4930 	0.057027
36.03 	0.053813 	4943 	0.053221
36.05 	0.058443 	4945 	0.056903
36.07 	0.050618 	4939 	0.050143
36.09 	0.060729 	4940 	0.059899
36.11 	0.057010 	4929 	0.056059
36.13 	0.059692 	4942 	0.058606
36.15 	0.058109 	4939 	0.057041
36.17 	0.057868 	4925 	0.056560
36.19 	0.061741 	4940 	0.060555
36.21 	0.062690 	4929 	0.061858
36.23 	0.061803 	4935 	0.060854
36.25 	0.065169 	4941 	0.064339
36.27 	0.055431 	4925 	0.054718
36.29 	0.054553 	4931 	0.053721
36.31 	0.061485 	4928 	0.059683
36.33 	0.063450 	4933 	0.062025
36.35 	0.059241 	4929 	0.058647
36.37 	0.059720 	4923 	0.058887
36.39 	0.063199 	4921 	0.062365
36.41 	0.057394 	4896 	0.056197
36.43 	0.056615 	4928 	0.056021
36.45 	0.050710 	4930 	0.050116
36.47 	0.052269 	4936 	0.051676
36.49 	0.056455 	4942 	0.055388
36.51 	0.049463 	4933 	0.048750
36.53 	0.052397 	4943 	0.051667
36.55 	0.056830 	4927 	0.055997
36.57 	0.057965 	4934 	0.057134
36.59 	0.052035 	4939 	0.051442
36.61 	0.053336 	4931 	0.052861
36.63 	0.056784 	4931 	0.055952
36.65 	0.053731 	4932 	0.052781
36.67 	0.048682 	4930 	0.048087
36.69 	0.053763 	4929 	0.051981
36.71 	0.054460 	4921 	0.053984
36.73 	0.051371 	4925 	0.050419
36.75 	0.051578 	4944 	0.050373
36.77 	0.060988 	4919 	0.059678
36.79 	0.054460 	4921 	0.053984
36.81 	0.054516 	4916 	0.053682
36.83 	0.057172 	4915 	0.056576
36.85 	0.060024 	4898 	0.059187
36.87 	0.056837 	4944 	0.056126
36.89 	0.056143 	4916 	0.055547
36.91 	0.056871 	4941 	0.056160
36.93 	0.056795 	4930 	0.055963
36.95 	0.051693 	4933 	0.050624
36.97 	0.055533 	4934 	0.054939
36.99 	0.057751 	4935 	0.057039
37.01 	0.053314 	4933 	0.052008
37.03 	0.054630 	4924 	0.054155
37.05 	0.054191 	4927 	0.053359
37.07 	0.056940 	4935 	0.055753
37.09 	0.050122 	4928 	0.049884
37.11 	0.055522 	4935 	0.054335
37.13 	0.051787 	4924 	0.050835
37.15 	0.051538 	4909 	0.051180
37.17 	0.054722 	4934 	0.054247
37.19 	0.057056 	4925 	0.056699
37.21 	0.055522 	4917 	0.054807
37.23 	0.056934 	4918 	0.055623
37.25 	0.062309 	4911 	0.061116
37.27 	0.061913 	4894 	0.060457
37.29 	0.045030 	4930 	0.044318
37.31 	0.057548 	4935 	0.056935
37.33 	0.055206 	4927 	0.054374
37.35 	0.057311 	4938 	0.056599
37.37 	0.057033 	4927 	0.056557
37.39 	0.049280 	4931 	0.049042
37.41 	0.057595 	4931 	0.056526
37.43 	0.056367 	4932 	0.055416
37.45 	0.055240 	4924 	0.054645
37.47 	0.051126 	4929 	0.050413
37.49 	0.054032 	4923 	0.052961
37.51 	0.052504 	4933 	0.051791
37.53 	0.050620 	4919 	0.050263
37.55 	0.055984 	4930 	0.054914
37.57 	0.054619 	4925 	0.053549
37.59 	0.051679 	4915 	0.050844
37.61 	0.048354 	4922 	0.047640
37.63 	0.057939 	4919 	0.057343
37.65 	0.050020 	4918 	0.048591
37.67 	0.054445 	4904 	0.054087
37.69 	0.050429 	4898 	0.049831
37.71 	0.060053 	4929 	0.058389
37.73 	0.053155 	4929 	0.052561
37.75 	0.054453 	4940 	0.053960
37.77 	0.054878 	4920 	0.053787
37.79 	0.055375 	4930 	0.054781
37.81 	0.050476 	4933 	0.050001
37.83 	0.054878 	4920 	0.054402
37.85 	0.048761 	4922 	0.047690
37.87 	0.051630 	4939 	0.050918
37.89 	0.049340 	4925 	0.048270
37.91 	0.044219 	4930 	0.043625
37.93 	0.050010 	4919 	0.049177
37.95 	0.054460 	4921 	0.053984
37.97 	0.052343 	4929 	0.051511
37.99 	0.053746 	4912 	0.052633
38.01 	0.053369 	4928 	0.052536
38.03 	0.050316 	4909 	0.049580
38.05 	0.055635 	4925 	0.054802
38.07 	0.054186 	4909 	0.053709
38.09 	0.049200 	4878 	0.048720
38.11 	0.057548 	4935 	0.055629
38.13 	0.059348 	4937 	0.058280
38.15 	0.054494 	4918 	0.053422
38.17 	0.052130 	4930 	0.051160
38.19 	0.051318 	4930 	0.050724
38.21 	0.055048 	4923 	0.054314
38.23 	0.060753 	4938 	0.059686
38.25 	0.051047 	4917 	0.050452
38.27 	0.048073 	4930 	0.047360
38.29 	0.056255 	4924 	0.055660
38.31 	0.057642 	4927 	0.057285
38.33 	0.061535 	4924 	0.060227
38.35 	0.058644 	4928 	0.057555
38.37 	0.053209 	4924 	0.052376
38.39 	0.061927 	4909 	0.061450
38.41 	0.063173 	4923 	0.061864
38.43 	0.061229 	4916 	0.060633
38.45 	0.064050 	4918 	0.063098
38.47 	0.064602 	4907 	0.063358
38.49 	0.060693 	4877 	0.059612
38.51 	0.065085 	4932 	0.064491
38.53 	0.060053 	4929 	0.058864
38.55 	0.058144 	4936 	0.056819
38.57 	0.061548 	4923 	0.060319
38.59 	0.056255 	4924 	0.054451
38.61 	0.059360 	4936 	0.057817
38.63 	0.053615 	4924 	0.053139
38.65 	0.062220 	4918 	0.061148
38.67 	0.057525 	4937 	0.056694
38.69 	0.058716 	4922 	0.057764
38.71 	0.055037 	4924 	0.054442
38.73 	0.059374 	4918 	0.058540
38.75 	0.053379 	4927 	0.052032
38.77 	0.052204 	4923 	0.051252
38.79 	0.058979 	4934 	0.058029
38.81 	0.053746 	4912 	0.053269
38.83 	0.051027 	4919 	0.049717
38.85 	0.048656 	4912 	0.047086
38.87 	0.054571 	4911 	0.052901
38.89 	0.051664 	4897 	0.050827
38.91 	0.055272 	4903 	0.054436
38.93 	0.052450 	4938 	0.052095
38.95 	0.049410 	4918 	0.047981
38.97 	0.053742 	4931 	0.052554
38.99 	0.050435 	4937 	0.049724
39.01 	0.049614 	4918 	0.049018
39.03 	0.050872 	4934 	0.049922
39.05 	0.048731 	4925 	0.047779
39.07 	0.048538 	4924 	0.047705
39.09 	0.047532 	4923 	0.047056
39.11 	0.053133 	4931 	0.052302
39.13 	0.046313 	4923 	0.045837
39.15 	0.050458 	4915 	0.049981
39.17 	0.051448 	4937 	0.050736
39.19 	0.049217 	4917 	0.048264
39.21 	0.044196 	4910 	0.043599
39.23 	0.049137 	4925 	0.048304
39.25 	0.042869 	4922 	0.042512
39.27 	0.044807 	4910 	0.044329
39.29 	0.055295 	4901 	0.054578
39.31 	0.049959 	4884 	0.049599
39.33 	0.045427 	4931 	0.044714
39.35 	0.044985 	4935 	0.044490
39.37 	0.052140 	4929 	0.051190
39.39 	0.046460 	4929 	0.045152
39.41 	0.046846 	4931 	0.046371
39.43 	0.048044 	4933 	0.047331
39.45 	0.054822 	4925 	0.054109
39.47 	0.047532 	4923 	0.047175
39.49 	0.043989 	4933 	0.043396
39.51 	0.045695 	4924 	0.044743
39.53 	0.049970 	4923 	0.049494
39.55 	0.047571 	4919 	0.046837
39.57 	0.045003 	4933 	0.044884
39.59 	0.045603 	4912 	0.044768
39.61 	0.045094 	4923 	0.044856
39.63 	0.050792 	4922 	0.049840
39.65 	0.047909 	4926 	0.046839
39.67 	0.046204 	4913 	0.045489
39.69 	0.052278 	4916 	0.051325
39.71 	0.044331 	4895 	0.043374
39.73 	0.051752 	4908 	0.050439
39.75 	0.046875 	4928 	0.045805
39.77 	0.045390 	4935 	0.044440
39.79 	0.049127 	4926 	0.048770
39.81 	0.048305 	4927 	0.047216
39.83 	0.049858 	4934 	0.049265
39.85 	0.045464 	4927 	0.044988
39.87 	0.043452 	4925 	0.042619
39.89 	0.049047 	4934 	0.048454
39.91 	0.051605 	4922 	0.050653
39.93 	0.053069 	4937 	0.051507
39.95 	0.053306 	4915 	0.052591
39.97 	0.046063 	4928 	0.045826
39.99 	0.046837 	4932 	0.046243
40.01 	0.045547 	4918 	0.045190
40.03 	0.049716 	4928 	0.049359
40.05 	0.046573 	4917 	0.046216
40.07 	0.049766 	4923 	0.048577
40.09 	0.052685 	4916 	0.051970
40.11 	0.049837 	4916 	0.049599
40.13 	0.046773 	4896 	0.046175
40.15 	0.045390 	4913 	0.044317
40.17 	0.048498 	4928 	0.047785
40.19 	0.047474 	4929 	0.046266
40.21 	0.049037 	4935 	0.048563
40.23 	0.050487 	4932 	0.050130
40.25 	0.047154 	4920 	0.046321
40.27 	0.048005 	4937 	0.046937
40.29 	0.039781 	4927 	0.039067
40.31 	0.050415 	4939 	0.050059
40.33 	0.048459 	4932 	0.047034
40.35 	0.052450 	4919 	0.051616
40.37 	0.046054 	4929 	0.045460
40.39 	0.048063 	4931 	0.047232
40.41 	0.044264 	4925 	0.043669
40.43 	0.049980 	4922 	0.048671
40.45 	0.047436 	4933 	0.046961
40.47 	0.039650 	4918 	0.039174
40.49 	0.045270 	4926 	0.045032
40.51 	0.049573 	4922 	0.049335
40.53 	0.050041 	4916 	0.049326
40.55 	0.047677 	4908 	0.047080
40.57 	0.047035 	4890 	0.046556
40.59 	0.048207 	4937 	0.047733
40.61 	0.044377 	4935 	0.044021
40.63 	0.044422 	4930 	0.044065
40.65 	0.046992 	4937 	0.046399
40.67 	0.043593 	4932 	0.042999
40.69 	0.046384 	4937 	0.045791
40.71 	0.047040 	4932 	0.046446
40.73 	0.048315 	4926 	0.048196
40.75 	0.051308 	4931 	0.050476
40.77 	0.042316 	4939 	0.041605
40.79 	0.047725 	4924 	0.047012
40.81 	0.041894 	4941 	0.041183
40.83 	0.042614 	4928 	0.042138
40.85 	0.045085 	4924 	0.044847
40.87 	0.041193 	4928 	0.040599
40.89 	0.045630 	4931 	0.044561
40.91 	0.047126 	4923 	0.046293
40.93 	0.046818 	4934 	0.045967
40.95 	0.044372 	4913 	0.044014
40.97 	0.049553 	4924 	0.048839
40.99 	0.044273 	4924 	0.043916
41.01 	0.048453 	4912 	0.047379
41.03 	0.049541 	4905 	0.048944
41.05 	0.046799 	4936 	0.046443
41.07 	0.041379 	4930 	0.041142
41.09 	0.045151 	4939 	0.044083
41.11 	0.044782 	4935 	0.043714
41.13 	0.046799 	4936 	0.046087
41.15 	0.046549 	4941 	0.045127
41.17 	0.047223 	4934 	0.046630
41.19 	0.046045 	4930 	0.046045
41.21 	0.041118 	4937 	0.040999
41.23 	0.050010 	4939 	0.049417
41.25 	0.041760 	4933 	0.041403
41.27 	0.045021 	4931 	0.044071
41.29 	0.050528 	4928 	0.049577
41.31 	0.049260 	4933 	0.048785
41.33 	0.037675 	4937 	0.037319
41.35 	0.046173 	4938 	0.045461
41.37 	0.040008 	4924 	0.039532
41.39 	0.040746 	4933 	0.040390
41.41 	0.039789 	4926 	0.039194
41.43 	0.049706 	4929 	0.049230
41.45 	0.042735 	4914 	0.041901
41.47 	0.043037 	4926 	0.042442
41.49 	0.049060 	4892 	0.048102
41.51 	0.040081 	4940 	0.039725
41.53 	0.051578 	4944 	0.050985
41.55 	0.042756 	4935 	0.042162
41.57 	0.041692 	4941 	0.040981
41.59 	0.049260 	4933 	0.048647
41.61 	0.043610 	4953 	0.042664
41.63 	0.042730 	4938 	0.042137
41.65 	0.046054 	4929 	0.045341
41.67 	0.044332 	4940 	0.044213
41.69 	0.043461 	4947 	0.042849
41.71 	0.045805 	4934 	0.044835
41.73 	0.042747 	4936 	0.042154
41.75 	0.041591 	4929 	0.041353
41.77 	0.042502 	4941 	0.042146
41.79 	0.043892 	4944 	0.043181
41.81 	0.046596 	4936 	0.046122
41.83 	0.044643 	4928 	0.044405
41.85 	0.046568 	4939 	0.046212
41.87 	0.039311 	4935 	0.038955
41.89 	0.046827 	4933 	0.045996
41.91 	0.041734 	4936 	0.041378
41.93 	0.045418 	4932 	0.044586
41.95 	0.046238 	4931 	0.045525
41.97 	0.039886 	4914 	0.039528
41.99 	0.042406 	4905 	0.041450
42.01 	0.043707 	4942 	0.042838
42.03 	0.042924 	4939 	0.042449
42.05 	0.045032 	4952 	0.044677
42.07 	0.037270 	4937 	0.036439
42.09 	0.040825 	4948 	0.040351
42.11 	0.042872 	4945 	0.042516
42.13 	0.040243 	4945 	0.039512
42.15 	0.035844 	4938 	0.035489
42.17 	0.043920 	4918 	0.043563
42.19 	0.041565 	4908 	0.040849
42.21 	0.050194 	4901 	0.049477
42.23 	0.041905 	4892 	0.041306
42.25 	0.047044 	4889 	0.046206
42.27 	0.041034 	4874 	0.040674
42.29 	0.040921 	4863 	0.040439
42.31 	0.042430 	4855 	0.042069
42.33 	0.042408 	4834 	0.042044
42.35 	0.039066 	4838 	0.038460
42.37 	0.046998 	4830 	0.046392
42.39 	0.043505 	4804 	0.042774
42.41 	0.045171 	4804 	0.044561
42.43 	0.042154 	4792 	0.041787
42.45 	0.041457 	4776 	0.040476
42.47 	0.043861 	4765 	0.043370
42.49 	0.039664 	4765 	0.039172
42.51 	0.039637 	4743 	0.039020
42.53 	0.039129 	4728 	0.038881
42.55 	0.039720 	4708 	0.039346
42.57 	0.049894 	4730 	0.049275
42.59 	0.047156 	4729 	0.046784
42.61 	0.043118 	4708 	0.042745
42.63 	0.043321 	4709 	0.042699
42.65 	0.033298 	4685 	0.032923
42.67 	0.043553 	4684 	0.042927
42.69 	0.035730 	4674 	0.035604
42.71 	0.041175 	4663 	0.040924
42.73 	0.041379 	4640 	0.040748
42.75 	0.044834 	4617 	0.043798
42.77 	0.038043 	4600 	0.037152
42.79 	0.042558 	4582 	0.042174
42.81 	0.042525 	4562 	0.042268
42.83 	0.040785 	4536 	0.040527
42.85 	0.038869 	4528 	0.038611
42.87 	0.049122 	4499 	0.047820
42.89 	0.043750 	4480 	0.042835
42.91 	0.039946 	4456 	0.039683
42.93 	0.042735 	4446 	0.042603
42.95 	0.049819 	4416 	0.049288
42.97 	0.044990 	4401 	0.044590
42.99 	0.041961 	4385 	0.041293
43.01 	0.042631 	4363 	0.042363
43.03 	0.042003 	4333 	0.041462
43.05 	0.042312 	4325 	0.041770
43.07 	0.042598 	4296 	0.041780
43.09 	0.042260 	4283 	0.041280
43.11 	0.039013 	4255 	0.038738
43.13 	0.047203 	4237 	0.046650
43.15 	0.039230 	4206 	0.038812
43.17 	0.047140 	4179 	0.046440
43.19 	0.039342 	4194 	0.038783
43.21 	0.044343 	4172 	0.043759
43.23 	0.047183 	4154 	0.046055
43.25 	0.039661 	4135 	0.039095
43.27 	0.043605 	4105 	0.043177
43.29 	0.042195 	4100 	0.041481
43.31 	0.041187 	4079 	0.040612
43.33 	0.042706 	4051 	0.041259
43.35 	0.038938 	4032 	0.038357
43.37 	0.044334 	4015 	0.043458
43.39 	0.044978 	4002 	0.044392
43.41 	0.044058 	3972 	0.043468
43.43 	0.034343 	3960 	0.033752
43.45 	0.040152 	3935 	0.039557
43.47 	0.044631 	3921 	0.044034
43.49 	0.045420 	3897 	0.044367
43.51 	0.039464 	3877 	0.039010
43.53 	0.040642 	3863 	0.040339
43.55 	0.048246 	2964 	0.047850
43.57 	0.039321 	2238 	0.039321
43.59 	0.042383 	1746 	0.042047
43.61 	0.042931 	1351 	0.042498
43.63 	0.037962 	1001 	0.037962
43.65 	0.037846 	687 	0.036993
43.67 	0.043825 	502 	0.043825
43.69 	0.021798 	367 	0.021798
43.71 	0.050209 	239 	0.050209
43.73 	0.033333 	120 	0.033333
43.75 	0.000000 	16 	0.000000