File: Example_Data/25SC_s1_0049.001.dat
#F C:\frames\spec\25SC_s1_0049.001
#C title =s:49 frm:1 25SC_s1
#C wavelength =0.15406

#S 1  fr_average C:\frames\spec\25SC_s1_0049.001 C:\win32app\speccom\mask.axs chi 0 180 0 360 0.02
#C 2 theta =0.000000 to 180 deg
#C   q   =0.000000 to 81.568 nm^-1
#C  chi  =0.000000 to 360 deg
#C collumns:
#C  1 position (2theta or chi in degrees)
#C  2 average intensity (sum of all counts in the region divided with number of pixels)
#C  3 Number of pixels in region)
#C  4 error (sum of sqrt(intensity) for all pixels divided by number)
#N 4
#L TTh  Int  N_pix  Err
32.99 	0.016393 	61 	0.016393
33.01 	0.058419 	873 	0.056296
33.03 	0.054637 	1391 	0.053374
33.05 	0.059761 	1757 	0.058427
33.07 	0.063415 	2050 	0.063129
33.09 	0.066042 	2347 	0.064295
33.11 	0.062815 	2579 	0.062134
33.13 	0.054422 	2793 	0.052954
33.15 	0.059353 	2999 	0.057986
33.17 	0.055920 	3201 	0.055188
33.19 	0.056852 	3342 	0.056151
33.21 	0.058789 	3436 	0.057596
33.23 	0.061028 	3523 	0.059531
33.25 	0.057309 	3612 	0.056174
33.27 	0.055923 	3630 	0.055116
33.29 	0.055099 	3648 	0.054135
33.31 	0.062568 	3660 	0.061768
33.33 	0.057515 	3686 	0.056402
33.35 	0.055766 	3694 	0.054630
33.37 	0.066774 	3714 	0.065513
33.39 	0.061947 	3729 	0.061161
33.41 	0.062299 	3740 	0.060238
33.43 	0.055304 	3761 	0.054214
33.45 	0.057249 	3773 	0.056628
33.47 	0.059242 	3798 	0.058008
33.49 	0.057495 	3809 	0.056880
33.51 	0.057143 	3815 	0.056375
33.53 	0.057797 	3841 	0.056272
33.55 	0.063752 	3843 	0.062533
33.57 	0.064483 	3877 	0.063727
33.59 	0.065206 	3880 	0.064451
33.61 	0.064978 	3909 	0.064529
33.63 	0.058433 	3919 	0.056789
33.65 	0.062325 	3931 	0.060363
33.67 	0.051846 	3954 	0.051550
33.69 	0.056413 	3953 	0.055376
33.71 	0.061132 	3975 	0.059953
33.73 	0.061439 	4004 	0.060707
33.75 	0.057014 	3999 	0.055549
33.77 	0.061366 	4025 	0.059911
33.79 	0.058896 	4041 	0.056867
33.81 	0.057454 	4038 	0.057019
33.83 	0.058519 	4050 	0.057217
33.85 	0.053428 	4099 	0.052856
33.87 	0.058623 	4111 	0.057626
33.89 	0.058724 	4121 	0.057444
33.91 	0.061943 	4149 	0.061237
33.93 	0.056854 	4151 	0.055584
33.95 	0.054532 	4181 	0.053832
33.97 	0.054893 	4190 	0.054194
33.99 	0.065952 	4200 	0.064697
34.01 	0.059340 	4213 	0.058506
34.03 	0.053016 	4244 	0.051613
34.05 	0.057385 	4252 	0.056420
34.07 	0.058107 	4268 	0.057695
34.09 	0.051797 	4286 	0.050977
34.11 	0.057415 	4302 	0.056598
34.13 	0.050371 	4308 	0.049827
34.15 	0.057723 	4331 	0.056777
34.17 	0.065287 	4350 	0.063649
34.19 	0.055938 	4362 	0.055400
34.21 	0.054679 	4371 	0.053472
34.23 	0.060323 	4393 	0.059790
34.25 	0.059491 	4404 	0.058028
34.27 	0.060380 	4422 	0.060115
34.29 	0.056144 	4435 	0.055484
34.31 	0.057649 	4458 	0.056729
34.33 	0.060389 	4471 	0.059603
34.35 	0.054862 	4484 	0.054209
34.37 	0.055890 	4491 	0.055107
34.39 	0.054198 	4502 	0.053417
34.41 	0.059876 	4526 	0.057525
34.43 	0.055078 	4539 	0.053530
34.45 	0.058655 	4535 	0.058138
34.47 	0.053571 	4592 	0.052806
34.49 	0.055253 	4597 	0.054107
34.51 	0.061007 	4606 	0.060096
34.53 	0.053844 	4643 	0.052457
34.55 	0.054706 	4643 	0.053949
34.57 	0.059442 	4660 	0.058562
34.59 	0.059037 	4675 	0.057889
34.61 	0.064296 	4697 	0.063049
34.63 	0.063907 	4710 	0.062290
34.65 	0.056132 	4721 	0.055140
34.67 	0.060747 	4741 	0.060252
34.69 	0.057005 	4754 	0.056635
34.71 	0.052035 	4766 	0.051052
34.73 	0.058910 	4787 	0.057931
34.75 	0.055116 	4808 	0.054264
34.77 	0.061851 	4818 	0.060271
34.79 	0.053068 	4824 	0.051854
34.81 	0.054902 	4845 	0.054297
34.83 	0.057178 	4862 	0.056576
34.85 	0.054837 	4869 	0.054235
34.87 	0.059573 	4868 	0.058971
34.89 	0.057149 	4882 	0.056309
34.91 	0.059197 	4882 	0.058457
34.93 	0.059196 	4899 	0.058598
34.95 	0.058282 	4890 	0.057563
34.97 	0.059568 	4902 	0.059329
34.99 	0.052277 	4897 	0.050822
35.01 	0.056267 	4923 	0.055672
35.03 	0.060287 	4943 	0.058984
35.05 	0.054579 	4947 	0.053868
35.07 	0.054251 	4940 	0.053658
35.09 	0.054311 	4953 	0.053601
35.11 	0.059430 	4947 	0.058127
35.13 	0.051230 	4958 	0.050521
35.15 	0.056917 	4937 	0.055849
35.17 	0.054792 	4946 	0.053588
35.19 	0.052003 	4942 	0.051055
35.21 	0.060870 	4945 	0.059784
35.23 	0.057836 	4945 	0.057007
35.25 	0.053611 	4943 	0.053019
35.27 	0.057397 	4948 	0.056213
35.29 	0.052376 	4945 	0.051547
35.31 	0.057571 	4933 	0.056602
35.33 	0.053611 	4943 	0.052782
35.35 	0.054431 	4942 	0.053957
35.37 	0.057299 	4939 	0.056825
35.39 	0.053185 	4945 	0.052593
35.41 	0.052781 	4926 	0.051949
35.43 	0.057977 	4933 	0.057027
35.45 	0.056309 	4937 	0.055004
35.47 	0.055364 	4931 	0.054038
35.49 	0.056008 	4910 	0.054934
35.51 	0.055420 	4926 	0.054826
35.53 	0.059608 	4949 	0.058188
35.55 	0.059252 	4945 	0.058186
35.57 	0.055139 	4933 	0.054545
35.59 	0.052781 	4945 	0.052188
35.61 	0.051599 	4942 	0.050631
35.63 	0.054623 	4943 	0.054030
35.65 	0.055612 	4945 	0.054664
35.67 	0.057264 	4942 	0.055605
35.69 	0.054792 	4946 	0.053844
35.71 	0.057525 	4937 	0.056299
35.73 	0.055308 	4936 	0.054359
35.75 	0.062462 	4931 	0.061274
35.77 	0.062210 	4951 	0.060790
35.79 	0.057989 	4932 	0.057157
35.81 	0.057571 	4933 	0.056859
35.83 	0.057016 	4946 	0.056068
35.85 	0.058764 	4935 	0.057814
35.87 	0.057688 	4923 	0.056974
35.89 	0.061816 	4934 	0.060985
35.91 	0.052770 	4927 	0.052295
35.93 	0.054394 	4927 	0.052849
35.95 	0.054912 	4917 	0.054078
35.97 	0.060261 	4912 	0.059187
35.99 	0.055274 	4939 	0.054919
36.01 	0.066329 	4930 	0.065497
36.03 	0.061501 	4943 	0.060079
36.05 	0.059252 	4945 	0.057712
36.07 	0.054464 	4939 	0.053753
36.09 	0.055466 	4940 	0.054754
36.11 	0.054778 	4929 	0.053708
36.13 	0.056657 	4942 	0.056065
36.15 	0.057906 	4939 	0.057076
36.17 	0.052792 	4925 	0.051484
36.19 	0.054251 	4940 	0.053540
36.21 	0.059038 	4929 	0.057850
36.23 	0.065046 	4935 	0.064333
36.25 	0.055252 	4941 	0.054185
36.27 	0.058680 	4925 	0.057967
36.29 	0.060637 	4931 	0.059310
36.31 	0.054586 	4928 	0.054229
36.33 	0.057166 	4933 	0.055722
36.35 	0.056807 	4929 	0.055618
36.37 	0.057892 	4923 	0.057178
36.39 	0.052022 	4921 	0.051189
36.41 	0.057598 	4896 	0.056521
36.43 	0.053774 	4928 	0.053061
36.45 	0.061258 	4930 	0.060287
36.47 	0.053687 	4936 	0.053094
36.49 	0.063537 	4942 	0.061977
36.51 	0.062639 	4933 	0.061214
36.53 	0.057253 	4943 	0.056068
36.55 	0.056424 	4927 	0.055592
36.57 	0.058370 	4934 	0.056827
36.59 	0.052035 	4939 	0.051422
36.61 	0.060840 	4931 	0.059770
36.63 	0.055567 	4931 	0.053785
36.65 	0.059408 	4932 	0.058339
36.67 	0.059229 	4930 	0.058279
36.69 	0.059850 	4929 	0.057948
36.71 	0.057305 	4921 	0.056353
36.73 	0.061523 	4925 	0.060333
36.75 	0.062905 	4944 	0.061957
36.77 	0.064647 	4919 	0.063814
36.79 	0.056086 	4921 	0.055134
36.81 	0.062856 	4916 	0.061784
36.83 	0.055951 	4915 	0.054740
36.85 	0.051858 	4898 	0.051140
36.87 	0.053398 	4944 	0.052924
36.89 	0.057567 	4916 	0.056971
36.91 	0.061324 	4941 	0.060494
36.93 	0.059635 	4930 	0.059160
36.95 	0.063653 	4933 	0.061833
36.97 	0.059789 	4934 	0.059057
36.99 	0.055319 	4935 	0.053638
37.01 	0.058382 	4933 	0.058026
37.03 	0.058489 	4924 	0.057775
37.05 	0.054800 	4927 	0.054206
37.07 	0.056332 	4935 	0.055976
37.09 	0.053166 	4928 	0.052571
37.11 	0.061601 	4935 	0.060295
37.13 	0.054224 	4924 	0.052420
37.15 	0.057242 	4909 	0.056287
37.17 	0.051074 	4934 	0.049649
37.19 	0.059695 	4925 	0.059220
37.21 	0.057555 	4917 	0.056702
37.23 	0.052054 	4918 	0.051101
37.25 	0.054164 	4911 	0.053448
37.27 	0.050470 	4894 	0.049512
37.29 	0.057809 	4930 	0.057096
37.31 	0.059169 	4935 	0.057863
37.33 	0.052162 	4927 	0.051329
37.35 	0.055691 	4938 	0.054742
37.37 	0.058047 	4927 	0.056977
37.39 	0.053944 	4931 	0.052994
37.41 	0.056175 	4931 	0.055344
37.43 	0.059205 	4932 	0.058374
37.45 	0.060520 	4924 	0.058735
37.47 	0.061067 	4929 	0.059522
37.49 	0.057485 	4923 	0.056652
37.51 	0.053720 	4933 	0.052889
37.53 	0.055092 	4919 	0.054497
37.55 	0.054767 	4930 	0.053816
37.57 	0.053604 	4925 	0.052633
37.59 	0.054934 	4915 	0.054219
37.61 	0.049167 	4922 	0.048453
37.63 	0.059565 	4919 	0.058017
37.65 	0.056527 	4918 	0.055931
37.67 	0.059135 	4904 	0.057821
37.69 	0.064108 	4898 	0.063031
37.71 	0.051532 	4929 	0.050700
37.73 	0.055995 	4929 	0.055282
37.75 	0.050000 	4940 	0.049289
37.77 	0.052439 	4920 	0.051606
37.79 	0.055781 	4930 	0.054593
37.81 	0.051895 	4933 	0.051539
37.83 	0.053252 	4920 	0.052657
37.85 	0.053434 	4922 	0.052481
37.87 	0.055477 	4939 	0.054528
37.89 	0.054619 	4925 	0.053668
37.91 	0.055172 	4930 	0.054578
37.93 	0.056312 	4919 	0.055121
37.95 	0.059134 	4921 	0.058182
37.97 	0.060661 	4929 	0.060186
37.99 	0.048656 	4912 	0.048179
38.01 	0.049716 	4928 	0.048884
38.03 	0.052760 	4909 	0.051925
38.05 	0.052386 	4925 	0.051434
38.07 	0.056427 	4909 	0.056069
38.09 	0.050636 	4878 	0.050275
38.11 	0.052482 	4935 	0.051651
38.13 	0.054689 	4937 	0.053740
38.15 	0.065474 	4918 	0.064164
38.17 	0.063286 	4930 	0.062573
38.19 	0.054564 	4930 	0.053732
38.21 	0.061751 	4923 	0.060918
38.23 	0.070879 	4938 	0.070167
38.25 	0.067928 	4917 	0.066260
38.27 	0.054767 	4930 	0.053460
38.29 	0.072908 	4924 	0.070866
38.31 	0.067181 	4927 	0.066072
38.33 	0.067425 	4924 	0.066235
38.35 	0.062094 	4928 	0.060430
38.37 	0.074127 	4924 	0.072342
38.39 	0.075168 	4909 	0.073736
38.41 	0.078204 	4923 	0.076043
38.43 	0.071196 	4916 	0.068932
38.45 	0.076047 	4918 	0.074499
38.47 	0.072957 	4907 	0.071266
38.49 	0.079557 	4877 	0.077596
38.51 	0.069749 	4932 	0.067848
38.53 	0.077298 	4929 	0.075000
38.55 	0.072326 	4936 	0.071732
38.57 	0.075564 	4923 	0.074374
38.59 	0.075548 	4924 	0.074121
38.61 	0.067261 	4936 	0.065224
38.63 	0.062551 	4924 	0.061480
38.65 	0.072184 	4918 	0.070993
38.67 	0.065829 	4937 	0.064861
38.69 	0.065827 	4922 	0.065113
38.71 	0.058083 	4924 	0.056893
38.73 	0.065880 	4918 	0.064808
38.75 	0.058453 	4927 	0.057007
38.77 	0.055251 	4923 	0.053585
38.79 	0.054925 	4934 	0.054331
38.81 	0.053950 	4912 	0.053234
38.83 	0.055702 	4919 	0.054750
38.85 	0.052524 	4912 	0.051690
38.87 	0.046834 	4911 	0.046476
38.89 	0.047376 	4897 	0.047017
38.91 	0.051601 	4903 	0.050745
38.93 	0.042730 	4938 	0.042374
38.95 	0.041684 	4918 	0.040612
38.97 	0.042182 	4931 	0.041351
38.99 	0.049220 	4937 	0.048864
39.01 	0.050224 	4918 	0.049747
39.03 	0.048439 	4934 	0.047965
39.05 	0.043249 	4925 	0.042654
39.07 	0.052396 	4924 	0.051445
39.09 	0.046719 	4923 	0.045887
39.11 	0.051308 	4931 	0.050714
39.13 	0.046110 	4923 	0.045158
39.15 	0.045982 	4915 	0.045147
39.17 	0.048410 	4937 	0.047461
39.19 	0.044743 	4917 	0.044147
39.21 	0.050102 	4910 	0.049625
39.23 	0.044873 	4925 	0.044516
39.25 	0.044088 	4922 	0.043731
39.27 	0.040937 	4910 	0.040460
39.29 	0.050806 	4901 	0.049950
39.31 	0.051802 	4884 	0.050962
39.33 	0.038937 	4931 	0.038343
39.35 	0.048632 	4935 	0.048157
39.37 	0.043619 	4929 	0.043382
39.39 	0.042808 	4929 	0.042332
39.41 	0.045021 	4931 	0.044190
39.43 	0.042976 	4933 	0.042145
39.45 	0.046294 	4925 	0.045581
39.47 	0.045298 	4923 	0.045179
39.49 	0.042773 	4933 	0.042417
39.51 	0.047725 	4924 	0.047487
39.53 	0.044079 	4923 	0.043722
39.55 	0.045131 	4919 	0.044774
39.57 	0.042773 	4933 	0.042298
39.59 	0.044788 	4912 	0.044192
39.61 	0.039204 	4923 	0.038589
39.63 	0.043885 	4922 	0.043151
39.65 	0.048518 	4926 	0.048161
39.67 	0.052514 	4913 	0.051321
39.69 	0.041090 	4916 	0.040971
39.71 	0.041675 	4895 	0.041556
39.73 	0.046455 	4908 	0.045977
39.75 	0.047281 	4928 	0.046805
39.77 	0.046201 	4935 	0.045726
39.79 	0.043646 	4926 	0.043289
39.81 	0.043840 	4927 	0.043127
39.83 	0.046818 	4934 	0.046106
39.85 	0.042419 	4927 	0.041587
39.87 	0.050152 	4925 	0.049439
39.89 	0.044183 	4934 	0.043471
39.91 	0.045307 	4922 	0.044712
39.93 	0.044764 	4937 	0.044408
39.95 	0.044761 	4915 	0.044284
39.97 	0.045657 	4928 	0.045182
39.99 	0.048459 	4932 	0.047390
40.01 	0.043514 	4918 	0.043037
40.03 	0.047484 	4928 	0.046751
40.05 	0.042099 	4917 	0.041384
40.07 	0.045501 	4923 	0.044787
40.09 	0.042921 	4916 	0.041968
40.11 	0.039260 	4916 	0.038902
40.13 	0.041667 	4896 	0.041188
40.15 	0.038469 	4913 	0.038112
40.17 	0.042411 	4928 	0.041816
40.19 	0.047068 	4929 	0.046712
40.21 	0.045593 	4935 	0.045118
40.23 	0.042376 	4932 	0.041782
40.25 	0.040244 	4920 	0.039768
40.27 	0.047600 	4937 	0.046987
40.29 	0.040999 	4927 	0.040999
40.31 	0.038874 	4939 	0.038637
40.33 	0.040552 	4932 	0.039958
40.35 	0.043301 	4919 	0.042706
40.37 	0.041996 	4929 	0.041521
40.39 	0.042385 	4931 	0.041791
40.41 	0.042437 	4925 	0.041604
40.43 	0.044900 	4922 	0.043591
40.45 	0.040341 	4933 	0.039628
40.47 	0.043920 	4918 	0.043325
40.49 	0.046488 	4926 	0.045656
40.51 	0.042869 	4922 	0.042274
40.53 	0.039463 	4916 	0.038867
40.55 	0.046251 	4908 	0.045535
40.57 	0.040286 	4890 	0.039927
40.59 	0.041118 	4937 	0.040406
40.61 	0.043566 	4935 	0.042973
40.63 	0.042596 	4930 	0.042240
40.65 	0.047600 	4937 	0.046651
40.67 	0.043593 	4932 	0.042999
40.69 	0.044156 	4937 	0.043306
40.71 	0.046431 	4932 	0.045363
40.73 	0.037353 	4926 	0.036877
40.75 	0.042993 	4931 	0.042518
40.77 	0.041911 	4939 	0.041793
40.79 	0.041024 	4924 	0.040548
40.81 	0.041490 	4941 	0.041134
40.83 	0.042005 	4928 	0.041411
40.85 	0.039805 	4924 	0.039567
40.87 	0.039367 	4928 	0.038773
40.89 	0.040763 	4931 	0.040169
40.91 	0.044079 	4923 	0.043722
40.93 	0.047223 	4934 	0.046392
40.95 	0.037452 	4913 	0.036856
40.97 	0.041836 	4924 	0.041598
40.99 	0.041633 	4924 	0.040800
41.01 	0.042752 	4912 	0.042395
41.03 	0.042610 	4905 	0.042371
41.05 	0.047407 	4936 	0.046339
41.07 	0.042191 	4930 	0.041953
41.09 	0.048795 	4939 	0.048202
41.11 	0.045390 	4935 	0.044896
41.13 	0.040519 	4936 	0.040044
41.15 	0.044323 	4941 	0.043730
41.17 	0.036076 	4934 	0.035601
41.19 	0.043611 	4930 	0.043254
41.21 	0.045777 	4937 	0.045421
41.23 	0.036647 	4939 	0.036528
41.25 	0.041557 	4933 	0.041319
41.27 	0.042385 	4931 	0.042147
41.29 	0.043425 	4928 	0.042712
41.31 	0.040341 	4933 	0.039984
41.33 	0.039295 	4937 	0.038702
41.35 	0.043135 	4938 	0.042542
41.37 	0.036149 	4924 	0.035317
41.39 	0.039327 	4933 	0.038971
41.41 	0.034714 	4926 	0.034238
41.43 	0.035707 	4929 	0.035469
41.45 	0.042125 	4914 	0.041529
41.47 	0.041616 	4926 	0.041259
41.49 	0.041496 	4892 	0.040658
41.51 	0.041093 	4940 	0.040737
41.53 	0.036812 	4944 	0.036338
41.55 	0.041540 	4935 	0.041421
41.57 	0.035823 	4941 	0.035586
41.59 	0.038922 	4933 	0.038209
41.61 	0.041389 	4953 	0.040798
41.63 	0.039490 	4938 	0.039134
41.65 	0.044228 	4929 	0.043872
41.67 	0.035020 	4940 	0.034902
41.69 	0.040631 	4947 	0.040157
41.71 	0.039116 	4934 	0.038641
41.73 	0.036669 	4936 	0.036195
41.75 	0.042199 	4929 	0.041605
41.77 	0.040680 	4941 	0.040206
41.79 	0.039442 	4944 	0.039323
41.81 	0.035454 	4936 	0.035098
41.83 	0.039976 	4928 	0.039500
41.85 	0.043734 	4939 	0.043496
41.87 	0.035664 	4935 	0.035070
41.89 	0.037097 	4933 	0.036978
41.91 	0.042950 	4936 	0.042356
41.93 	0.040146 	4932 	0.039671
41.95 	0.039951 	4931 	0.039714
41.97 	0.041514 	4914 	0.041037
41.99 	0.040775 	4905 	0.040297
42.01 	0.040469 	4942 	0.040114
42.03 	0.042316 	4939 	0.041605
42.05 	0.042205 	4952 	0.041850
42.07 	0.041321 	4937 	0.040727
42.09 	0.041229 	4948 	0.040992
42.11 	0.039838 	4945 	0.039246
42.13 	0.038625 	4945 	0.038269
42.15 	0.040097 	4938 	0.039385
42.17 	0.038634 	4918 	0.038276
42.19 	0.036267 	4908 	0.036029
42.21 	0.036319 	4901 	0.036080
42.23 	0.040065 	4892 	0.039826
42.25 	0.038658 	4889 	0.038538
42.27 	0.038162 	4874 	0.037561
42.29 	0.037837 	4863 	0.037114
42.31 	0.039959 	4855 	0.039597
42.33 	0.043442 	4834 	0.043079
42.35 	0.040099 	4838 	0.039252
42.37 	0.038302 	4830 	0.037817
42.39 	0.042048 	4804 	0.041804
42.41 	0.042881 	4804 	0.042637
42.43 	0.040067 	4792 	0.039822
42.45 	0.037898 	4776 	0.037530
42.47 	0.035047 	4765 	0.034678
42.49 	0.035257 	4765 	0.034888
42.51 	0.036264 	4743 	0.036017
42.53 	0.039763 	4728 	0.039515
42.55 	0.041844 	4708 	0.041097
42.57 	0.038689 	4730 	0.038442
42.59 	0.042292 	4729 	0.041921
42.61 	0.038870 	4708 	0.038497
42.63 	0.044383 	4709 	0.044010
42.65 	0.037567 	4685 	0.037192
42.67 	0.034799 	4684 	0.034549
42.69 	0.040436 	4674 	0.039810
42.71 	0.038173 	4663 	0.037796
42.73 	0.039009 	4640 	0.038756
42.75 	0.029023 	4617 	0.028896
42.77 	0.040000 	4600 	0.038928
42.79 	0.037538 	4582 	0.036899
42.81 	0.035072 	4562 	0.034816
42.83 	0.034612 	4536 	0.034354
42.85 	0.044390 	4528 	0.044132
42.87 	0.041343 	4499 	0.040561
42.89 	0.033259 	4480 	0.032714
42.91 	0.039048 	4456 	0.038917
42.93 	0.040036 	4446 	0.039772
42.95 	0.036685 	4416 	0.036022
42.97 	0.034992 	4401 	0.034859
42.99 	0.032611 	4385 	0.032344
43.01 	0.031859 	4363 	0.031456
43.03 	0.039926 	4333 	0.039521
43.05 	0.038382 	4325 	0.037840
43.07 	0.038175 	4296 	0.037766
43.09 	0.037824 	4283 	0.036867
43.11 	0.040658 	4255 	0.039970
43.13 	0.036582 	4237 	0.036168
43.15 	0.039943 	4206 	0.039664
43.17 	0.038287 	4179 	0.037866
43.19 	0.033381 	4194 	0.033381
43.21 	0.036194 	4172 	0.035772
43.23 	0.042850 	4154 	0.042568
43.25 	0.034583 	4135 	0.034441
43.27 	0.038246 	4105 	0.038246
43.29 	0.038049 	4100 	0.037620
43.31 	0.039961 	4079 	0.039674
43.33 	0.034066 	4051 	0.033319
43.35 	0.036706 	4032 	0.036416
43.37 	0.039851 	4015 	0.038975
43.39 	0.035482 	4002 	0.034750
43.41 	0.036254 	3972 	0.035664
43.43 	0.038131 	3960 	0.037983
43.45 	0.038882 	3935 	0.038733
43.47 	0.035705 	3921 	0.035705
43.49 	0.032846 	3897 	0.032846
43.51 	0.043590 	3877 	0.043137
43.53 	0.038830 	3863 	0.038047
43.55 	0.038124 	2964 	0.037729
43.57 	0.037534 	2238 	0.036748
43.59 	0.039519 	1746 	0.039183
43.61 	0.033309 	1351 	0.032008
43.63 	0.026973 	1001 	0.026388
43.65 	0.034934 	687 	0.034082
43.67 	0.027888 	502 	0.027888
43.69 	0.043597 	367 	0.042001
43.71 	0.037657 	239 	0.037657
43.73 	0.033333 	120 	0.033333
43.75 	0.000000 	16 	0.000000