File: Example_Data/25SC_s1_0021.004.dat
#F C:\frames\spec\25SC_s1_0021.004
#C title =s:21 frm:4 25SC_s1
#C wavelength =0.15406

#S 1  fr_average C:\frames\spec\25SC_s1_0021.004 C:\win32app\speccom\mask.axs chi 0 180 0 360 0.02
#C 2 theta =0.000000 to 180 deg
#C   q   =0.000000 to 81.568 nm^-1
#C  chi  =0.000000 to 360 deg
#C collumns:
#C  1 position (2theta or chi in degrees)
#C  2 average intensity (sum of all counts in the region divided with number of pixels)
#C  3 Number of pixels in region)
#C  4 error (sum of sqrt(intensity) for all pixels divided by number)
#N 4
#L TTh  Int  N_pix  Err
32.99 	0.065574 	61 	0.065574
33.01 	0.073310 	873 	0.072639
33.03 	0.071172 	1391 	0.070751
33.05 	0.070575 	1757 	0.068853
33.07 	0.065854 	2050 	0.065282
33.09 	0.062207 	2347 	0.061708
33.11 	0.069794 	2579 	0.068659
33.13 	0.059076 	2793 	0.058237
33.15 	0.066689 	2999 	0.065126
33.17 	0.056857 	3201 	0.056125
33.19 	0.054458 	3342 	0.053231
33.21 	0.064028 	3436 	0.062835
33.23 	0.057054 	3523 	0.056389
33.25 	0.054817 	3612 	0.053844
33.27 	0.060606 	3630 	0.059476
33.29 	0.051261 	3648 	0.050298
33.31 	0.061475 	3660 	0.060515
33.33 	0.062127 	3686 	0.060379
33.35 	0.059827 	3694 	0.058558
33.37 	0.061928 	3714 	0.061139
33.39 	0.060070 	3729 	0.059284
33.41 	0.062834 	3740 	0.061738
33.43 	0.059027 	3761 	0.058560
33.45 	0.056454 	3773 	0.055522
33.47 	0.056345 	3798 	0.055703
33.49 	0.055920 	3809 	0.055151
33.51 	0.060813 	3815 	0.059252
33.53 	0.057277 	3841 	0.056514
33.55 	0.060630 	3843 	0.059715
33.57 	0.060614 	3877 	0.059556
33.59 	0.060309 	3880 	0.059252
33.61 	0.058839 	3909 	0.057939
33.63 	0.069405 	3919 	0.067737
33.65 	0.055202 	3931 	0.054457
33.67 	0.059181 	3954 	0.058144
33.69 	0.058943 	3953 	0.057116
33.71 	0.057358 	3975 	0.056474
33.73 	0.060190 	4004 	0.058410
33.75 	0.054014 	3999 	0.052842
33.77 	0.061366 	4025 	0.059596
33.79 	0.061123 	4041 	0.060544
33.81 	0.053739 	4038 	0.052869
33.83 	0.058025 	4050 	0.056844
33.85 	0.057087 	4099 	0.056230
33.87 	0.061785 	4111 	0.061358
33.89 	0.055326 	4121 	0.054285
33.91 	0.055917 	4149 	0.055494
33.93 	0.061431 	4151 	0.060867
33.95 	0.062425 	4181 	0.061725
33.97 	0.057995 	4190 	0.057017
33.99 	0.057619 	4200 	0.056782
34.01 	0.062188 	4213 	0.060798
34.03 	0.051838 	4244 	0.050849
34.05 	0.059737 	4252 	0.058221
34.07 	0.058575 	4268 	0.057889
34.09 	0.064162 	4286 	0.063342
34.11 	0.057183 	4302 	0.056502
34.13 	0.058728 	4308 	0.057368
34.15 	0.054953 	4331 	0.053578
34.17 	0.056782 	4350 	0.055435
34.19 	0.058918 	4362 	0.058359
34.21 	0.059025 	4371 	0.058333
34.23 	0.063055 	4393 	0.061321
34.25 	0.060173 	4404 	0.058044
34.27 	0.055179 	4422 	0.054097
34.29 	0.056144 	4435 	0.055484
34.31 	0.061687 	4458 	0.060767
34.33 	0.059942 	4471 	0.059156
34.35 	0.066012 	4484 	0.064575
34.37 	0.064128 	4491 	0.062954
34.39 	0.058641 	4502 	0.057339
34.41 	0.066726 	4526 	0.065690
34.43 	0.062569 	4539 	0.061515
34.45 	0.057332 	4535 	0.055911
34.47 	0.061411 	4592 	0.059753
34.49 	0.056776 	4597 	0.055247
34.51 	0.059705 	4606 	0.058687
34.53 	0.062890 	4643 	0.062133
34.55 	0.056860 	4643 	0.055724
34.57 	0.062017 	4660 	0.060362
34.59 	0.056471 	4675 	0.055343
34.61 	0.062380 	4697 	0.061881
34.63 	0.056688 	4710 	0.055569
34.65 	0.058674 	4721 	0.057309
34.67 	0.061169 	4741 	0.060427
34.69 	0.053008 	4754 	0.052145
34.71 	0.055183 	4766 	0.054302
34.73 	0.055567 	4787 	0.054833
34.75 	0.051997 	4808 	0.051509
34.77 	0.059153 	4818 	0.058302
34.79 	0.054934 	4824 	0.054205
34.81 	0.057172 	4845 	0.056205
34.83 	0.064377 	4862 	0.063533
34.85 	0.058944 	4869 	0.057982
34.87 	0.050329 	4868 	0.049366
34.89 	0.060836 	4882 	0.060116
34.91 	0.059402 	4882 	0.058682
34.93 	0.054705 	4899 	0.053868
34.95 	0.060327 	4890 	0.059249
34.97 	0.059976 	4902 	0.058522
34.99 	0.062487 	4897 	0.061530
35.01 	0.061751 	4923 	0.061037
35.03 	0.058264 	4943 	0.057553
35.05 	0.059026 	4947 	0.058414
35.07 	0.060931 	4940 	0.059864
35.09 	0.063800 	4953 	0.062735
35.11 	0.064079 	4947 	0.062639
35.13 	0.061113 	4958 	0.060286
35.15 	0.060158 	4937 	0.058715
35.17 	0.057218 	4946 	0.055915
35.19 	0.053420 	4942 	0.052590
35.21 	0.053994 	4945 	0.052809
35.23 	0.057836 	4945 	0.057007
35.25 	0.065750 	4943 	0.064327
35.27 	0.061843 	4948 	0.060896
35.29 	0.055612 	4945 	0.054309
35.31 	0.055139 	4933 	0.054426
35.33 	0.058467 	4943 	0.057380
35.35 	0.056050 	4942 	0.055082
35.37 	0.062361 	4939 	0.061531
35.39 	0.064105 	4945 	0.063276
35.41 	0.060292 	4926 	0.058984
35.43 	0.062639 	4933 	0.061808
35.45 	0.051448 	4937 	0.050618
35.47 	0.058406 	4931 	0.057337
35.49 	0.057026 	4910 	0.055953
35.51 	0.056435 	4926 	0.055722
35.53 	0.059608 	4949 	0.058543
35.55 	0.055005 	4945 	0.054768
35.57 	0.059801 	4933 	0.058357
35.59 	0.058241 	4945 	0.057037
35.61 	0.061109 	4942 	0.059548
35.63 	0.063120 	4943 	0.061697
35.65 	0.057432 	4945 	0.056366
35.67 	0.061716 	4942 	0.060886
35.69 	0.054792 	4946 	0.053726
35.71 	0.056512 	4937 	0.055326
35.73 	0.061386 	4936 	0.060436
35.75 	0.054756 	4931 	0.054162
35.77 	0.057766 	4951 	0.057056
35.79 	0.060827 	4932 	0.059402
35.81 	0.055544 	4933 	0.055426
35.83 	0.060453 	4946 	0.059624
35.85 	0.057548 	4935 	0.057073
35.87 	0.056063 	4923 	0.055230
35.89 	0.056952 	4934 	0.056121
35.91 	0.052770 	4927 	0.051819
35.93 	0.059671 	4927 	0.058720
35.95 	0.053895 	4917 	0.053180
35.97 	0.061686 	4912 	0.061089
35.99 	0.056894 	4939 	0.055945
36.01 	0.051318 	4930 	0.050606
36.03 	0.058871 	4943 	0.057548
36.05 	0.058645 	4945 	0.056868
36.07 	0.058514 	4939 	0.057071
36.09 	0.057692 	4940 	0.056131
36.11 	0.062690 	4929 	0.061858
36.13 	0.058478 	4942 	0.057293
36.15 	0.060539 	4939 	0.058878
36.17 	0.057868 	4925 	0.057273
36.19 	0.054656 	4940 	0.053707
36.21 	0.064313 	4929 	0.062531
36.23 	0.049037 	4935 	0.047969
36.25 	0.056466 	4941 	0.055874
36.27 	0.049340 	4925 	0.048745
36.29 	0.058000 	4931 	0.057050
36.31 	0.056006 	4928 	0.054937
36.33 	0.063045 	4933 	0.061620
36.35 	0.062893 	4929 	0.062061
36.37 	0.065001 	4923 	0.063811
36.39 	0.059744 	4921 	0.058911
36.41 	0.060662 	4896 	0.058987
36.43 	0.059050 	4928 	0.057981
36.45 	0.059838 	4930 	0.059125
36.47 	0.050446 	4936 	0.049734
36.49 	0.059288 	4942 	0.058320
36.51 	0.054936 	4933 	0.054580
36.53 	0.060692 	4943 	0.059625
36.55 	0.058656 	4927 	0.057467
36.57 	0.059181 	4934 	0.058113
36.59 	0.053857 	4939 	0.052652
36.61 	0.062665 	4931 	0.062071
36.63 	0.053742 	4931 	0.052910
36.65 	0.054339 	4932 	0.053508
36.67 	0.055984 	4930 	0.054895
36.69 	0.057010 	4929 	0.056178
36.71 	0.060557 	4921 	0.059724
36.73 	0.057259 	4925 	0.055832
36.75 	0.056230 	4944 	0.055400
36.77 	0.054889 	4919 	0.054175
36.79 	0.058118 	4921 	0.056928
36.81 	0.055736 	4916 	0.053453
36.83 	0.061038 	4915 	0.060184
36.85 	0.059412 	4898 	0.058096
36.87 	0.056837 	4944 	0.055889
36.89 	0.064687 	4916 	0.063853
36.91 	0.057073 	4941 	0.056362
36.93 	0.051927 	4930 	0.051689
36.95 	0.051895 	4933 	0.051539
36.97 	0.056546 	4934 	0.055597
36.99 	0.055522 	4935 	0.054810
37.01 	0.056558 	4933 	0.056083
37.03 	0.058489 	4924 	0.057418
37.05 	0.051756 	4927 	0.050686
37.07 	0.053090 	4935 	0.052240
37.09 	0.058036 	4928 	0.057441
37.11 	0.055117 	4935 	0.054404
37.13 	0.060926 	4924 	0.059855
37.15 	0.061112 	4909 	0.060158
37.17 	0.052088 	4934 	0.051256
37.19 	0.055635 	4925 	0.055040
37.21 	0.057149 	4917 	0.056196
37.23 	0.056324 	4918 	0.055371
37.25 	0.049888 	4911 	0.049292
37.27 	0.055170 	4894 	0.053833
37.29 	0.052941 	4930 	0.052228
37.31 	0.053901 	4935 	0.053307
37.33 	0.057033 	4927 	0.055487
37.35 	0.050830 	4938 	0.049407
37.37 	0.050944 	4927 	0.049993
37.39 	0.055364 	4931 	0.055008
37.41 	0.054147 	4931 	0.052959
37.43 	0.055556 	4932 	0.054487
37.45 	0.057271 	4924 	0.055605
37.47 	0.057415 	4929 	0.056702
37.49 	0.053423 	4923 	0.052947
37.51 	0.052098 	4933 	0.051742
37.53 	0.052043 	4919 	0.051190
37.55 	0.052535 	4930 	0.051823
37.57 	0.053401 	4925 	0.053044
37.59 	0.059003 	4915 	0.058050
37.61 	0.053027 	4922 	0.051718
37.63 	0.055702 	4919 	0.054968
37.65 	0.057544 	4918 	0.056710
37.67 	0.058931 	4904 	0.057120
37.69 	0.055737 	4898 	0.054421
37.71 	0.054981 	4929 	0.054268
37.73 	0.049097 	4929 	0.048622
37.75 	0.059312 	4940 	0.058482
37.77 	0.055488 	4920 	0.054416
37.79 	0.058824 	4930 	0.057992
37.81 	0.051490 	4933 	0.050777
37.83 	0.051423 	4920 	0.050947
37.85 	0.054653 	4922 	0.054415
37.87 	0.053655 	4939 	0.052587
37.89 	0.055228 	4925 	0.054515
37.91 	0.049696 	4930 	0.048983
37.93 	0.053873 	4919 	0.052801
37.95 	0.053648 	4921 	0.052695
37.97 	0.058227 	4929 	0.056920
37.99 	0.053135 	4912 	0.051943
38.01 	0.054383 	4928 	0.053670
38.03 	0.053371 	4909 	0.052655
38.05 	0.058680 	4925 	0.057491
38.07 	0.052964 	4909 	0.052367
38.09 	0.052276 	4878 	0.051675
38.11 	0.056738 	4935 	0.055669
38.13 	0.057322 	4937 	0.056492
38.15 	0.060594 	4918 	0.059760
38.17 	0.055578 	4930 	0.054984
38.19 	0.057404 	4930 	0.056453
38.21 	0.062157 	4923 	0.061443
38.23 	0.054070 	4938 	0.053477
38.25 	0.067928 	4917 	0.067213
38.27 	0.065923 	4930 	0.064616
38.29 	0.063363 	4924 	0.062411
38.31 	0.065354 	4927 	0.064165
38.33 	0.061332 	4924 	0.060381
38.35 	0.066761 	4928 	0.065335
38.37 	0.061535 	4924 	0.059989
38.39 	0.059279 	4909 	0.058444
38.41 	0.064392 	4923 	0.063440
38.43 	0.070789 	4916 	0.069836
38.45 	0.059780 	4918 	0.058232
38.47 	0.060933 	4907 	0.059978
38.49 	0.060488 	4877 	0.059887
38.51 	0.063260 	4932 	0.061716
38.53 	0.066139 	4929 	0.064832
38.55 	0.068274 	4936 	0.066554
38.57 	0.062360 	4923 	0.061646
38.59 	0.060317 	4924 	0.058870
38.61 	0.057739 	4936 	0.056908
38.63 	0.061738 	4924 	0.061500
38.65 	0.056934 	4918 	0.055981
38.67 	0.055499 	4937 	0.054550
38.69 	0.061764 	4922 	0.060692
38.71 	0.060723 	4924 	0.059890
38.73 	0.051647 	4918 	0.051171
38.75 	0.062107 	4927 	0.060423
38.77 	0.059313 	4923 	0.058243
38.79 	0.051074 	4934 	0.050124
38.81 	0.051303 	4912 	0.050707
38.83 	0.057735 	4919 	0.055949
38.85 	0.055171 	4912 	0.054197
38.87 	0.056200 	4911 	0.055365
38.89 	0.055953 	4897 	0.054597
38.91 	0.054252 	4903 	0.053058
38.93 	0.053463 	4938 	0.052751
38.95 	0.053274 	4918 	0.052440
38.97 	0.058609 	4931 	0.058134
38.99 	0.060158 	4937 	0.059327
39.01 	0.051037 	4918 	0.050084
39.03 	0.057965 	4934 	0.057134
39.05 	0.061320 	4925 	0.060011
39.07 	0.052803 	4924 	0.052327
39.09 	0.051798 	4923 	0.051322
39.11 	0.050294 	4931 	0.049344
39.13 	0.057485 	4923 	0.056652
39.15 	0.056562 	4915 	0.055489
39.17 	0.048005 	4937 	0.047530
39.19 	0.054098 	4917 	0.053006
39.21 	0.054175 	4910 	0.052982
39.23 	0.054822 	4925 	0.053990
39.25 	0.053027 	4922 	0.051698
39.27 	0.054379 	4910 	0.053305
39.29 	0.055499 	4901 	0.053945
39.31 	0.053235 	4884 	0.052515
39.33 	0.052525 	4931 	0.050842
39.35 	0.052685 	4935 	0.051973
39.37 	0.051532 	4929 	0.050581
39.39 	0.052343 	4929 	0.051868
39.41 	0.049483 	4931 	0.048532
39.43 	0.058382 	4933 	0.057314
39.45 	0.060102 	4925 	0.059507
39.47 	0.056267 	4923 	0.055791
39.49 	0.053112 	4933 	0.052518
39.51 	0.056458 	4924 	0.055725
39.53 	0.058298 	4923 	0.057108
39.55 	0.058142 	4919 	0.056713
39.57 	0.057166 	4933 	0.056335
39.59 	0.058225 	4912 	0.057390
39.61 	0.060532 	4923 	0.059104
39.63 	0.061967 	4922 	0.060975
39.65 	0.052984 	4926 	0.052152
39.67 	0.053328 	4913 	0.052255
39.69 	0.058177 	4916 	0.057224
39.71 	0.055158 	4895 	0.054321
39.73 	0.050733 	4908 	0.050017
39.75 	0.059862 	4928 	0.058911
39.77 	0.056738 	4935 	0.055788
39.79 	0.055217 	4926 	0.054266
39.81 	0.054800 	4927 	0.053473
39.83 	0.052088 	4934 	0.051613
39.85 	0.054394 	4927 	0.053681
39.87 	0.054416 	4925 	0.053346
39.89 	0.057762 	4934 	0.056931
39.91 	0.058919 	4922 	0.058205
39.93 	0.052056 	4937 	0.050356
39.95 	0.052492 	4915 	0.050705
39.97 	0.055195 	4928 	0.054719
39.99 	0.052514 	4932 	0.051920
40.01 	0.048800 	4918 	0.047609
40.03 	0.051948 	4928 	0.050878
40.05 	0.054301 	4917 	0.053587
40.07 	0.056470 	4923 	0.055022
40.09 	0.062042 	4916 	0.061566
40.11 	0.053702 	4916 	0.052630
40.13 	0.054534 	4896 	0.053199
40.15 	0.057806 	4913 	0.056832
40.17 	0.052151 	4928 	0.051438
40.19 	0.054981 	4929 	0.053436
40.21 	0.059980 	4935 	0.059505
40.23 	0.056975 	4932 	0.055392
40.25 	0.049593 	4920 	0.048879
40.27 	0.057930 	4937 	0.057436
40.29 	0.053988 	4927 	0.053156
40.31 	0.047176 	4939 	0.046820
40.33 	0.045418 	4932 	0.044349
40.35 	0.049807 	4919 	0.049092
40.37 	0.051126 	4929 	0.050512
40.39 	0.048063 	4931 	0.047826
40.41 	0.061523 	4925 	0.060690
40.43 	0.050183 	4922 	0.049687
40.45 	0.055950 	4933 	0.055356
40.47 	0.059984 	4918 	0.058554
40.49 	0.047706 	4926 	0.047230
40.51 	0.054449 	4922 	0.054092
40.53 	0.054516 	4916 	0.053801
40.55 	0.047474 	4908 	0.046996
40.57 	0.052556 	4890 	0.051837
40.59 	0.050638 	4937 	0.050163
40.61 	0.048632 	4935 	0.047801
40.63 	0.047465 	4930 	0.046989
40.65 	0.051853 	4937 	0.051260
40.67 	0.056772 	4932 	0.055941
40.69 	0.056309 	4937 	0.055242
40.71 	0.054947 	4932 	0.053997
40.73 	0.054405 	4926 	0.053335
40.75 	0.051916 	4931 	0.051679
40.77 	0.054667 	4939 	0.053955
40.79 	0.051584 	4924 	0.051108
40.81 	0.058288 	4941 	0.057339
40.83 	0.050325 	4928 	0.049116
40.85 	0.051381 	4924 	0.050786
40.87 	0.051339 	4928 	0.050388
40.89 	0.048063 	4931 	0.047232
40.91 	0.055454 	4923 	0.054383
40.93 	0.053709 	4934 	0.052878
40.95 	0.052921 	4913 	0.051967
40.97 	0.053006 	4924 	0.052411
40.99 	0.050772 	4924 	0.050177
41.01 	0.058225 	4912 	0.057032
41.03 	0.056065 	4905 	0.055468
41.05 	0.053282 	4936 	0.052689
41.07 	0.051724 	4930 	0.051011
41.09 	0.045961 	4939 	0.045605
41.11 	0.051874 	4935 	0.051281
41.13 	0.048825 	4936 	0.047975
41.15 	0.050597 	4941 	0.049767
41.17 	0.051277 	4934 	0.050208
41.19 	0.051116 	4930 	0.050522
41.21 	0.048815 	4937 	0.048222
41.23 	0.058716 	4939 	0.057412
41.25 	0.047233 	4933 	0.046402
41.27 	0.049077 	4931 	0.048483
41.29 	0.049716 	4928 	0.048884
41.31 	0.046017 	4933 	0.045304
41.33 	0.051853 	4937 	0.051023
41.35 	0.053665 	4938 	0.053191
41.37 	0.053209 	4924 	0.052495
41.39 	0.047030 	4933 	0.046555
41.41 	0.050345 	4926 	0.049513
41.43 	0.049300 	4929 	0.048230
41.45 	0.051079 	4914 	0.050105
41.47 	0.051157 	4926 	0.050087
41.49 	0.049264 	4892 	0.049025
41.51 	0.049393 	4940 	0.048918
41.53 	0.046117 	4944 	0.045287
41.55 	0.047416 	4935 	0.046823
41.57 	0.052014 	4941 	0.051658
41.59 	0.052301 	4933 	0.051688
41.61 	0.049869 	4953 	0.049159
41.63 	0.047185 	4938 	0.046711
41.65 	0.048286 	4929 	0.047454
41.67 	0.041903 	4940 	0.041310
41.69 	0.048514 	4947 	0.047922
41.71 	0.056344 	4934 	0.055631
41.73 	0.051864 	4936 	0.050914
41.75 	0.053763 	4929 	0.053288
41.77 	0.046549 	4941 	0.046075
41.79 	0.048139 	4944 	0.047428
41.81 	0.048015 	4936 	0.047659
41.83 	0.048904 	4928 	0.048191
41.85 	0.048593 	4939 	0.047881
41.87 	0.047214 	4935 	0.046858
41.89 	0.053517 	4933 	0.053280
41.91 	0.046394 	4936 	0.045563
41.93 	0.053122 	4932 	0.052766
41.95 	0.052322 	4931 	0.051728
41.97 	0.056777 	4914 	0.055465
41.99 	0.043017 	4905 	0.042898
42.01 	0.052610 	4942 	0.051405
42.03 	0.044746 	4939 	0.043916
42.05 	0.051292 	4952 	0.050583
42.07 	0.047802 	4937 	0.047446
42.09 	0.046483 	4948 	0.045536
42.11 	0.050556 	4945 	0.050082
42.13 	0.051163 	4945 	0.050570
42.15 	0.044957 	4938 	0.044602
42.17 	0.044530 	4918 	0.043697
42.19 	0.046251 	4908 	0.045296
42.21 	0.048766 	4901 	0.048407
42.23 	0.044563 	4892 	0.043724
42.25 	0.043567 	4889 	0.043328
42.27 	0.043701 	4874 	0.043341
42.29 	0.049764 	4863 	0.049041
42.31 	0.055407 	4855 	0.054904
42.33 	0.047787 	4834 	0.046817
42.35 	0.045267 	4838 	0.044540
42.37 	0.044928 	4830 	0.044321
42.39 	0.049542 	4804 	0.048688
42.41 	0.044754 	4804 	0.044389
42.43 	0.046536 	4792 	0.045558
42.45 	0.045226 	4776 	0.044981
42.47 	0.043022 	4765 	0.042530
42.49 	0.046800 	4765 	0.046308
42.51 	0.046806 	4743 	0.046188
42.53 	0.045897 	4728 	0.045277
42.55 	0.044180 	4708 	0.043434
42.57 	0.049049 	4730 	0.048677
42.59 	0.048636 	4729 	0.048017
42.61 	0.049278 	4708 	0.048531
42.63 	0.043109 	4709 	0.042487
42.65 	0.047385 	4685 	0.046760
42.67 	0.048249 	4684 	0.047749
42.69 	0.045999 	4674 	0.045498
42.71 	0.047823 	4663 	0.046798
42.73 	0.054526 	4640 	0.053642
42.75 	0.050249 	4617 	0.050122
42.77 	0.048913 	4600 	0.048022
42.79 	0.044959 	4582 	0.044319
42.81 	0.043183 	4562 	0.042284
42.83 	0.044312 	4536 	0.043516
42.85 	0.044390 	4528 	0.044002
42.87 	0.046677 	4499 	0.045635
42.89 	0.052455 	4480 	0.051671
42.91 	0.049596 	4456 	0.049333
42.93 	0.048358 	4446 	0.047019
42.95 	0.042572 	4416 	0.042307
42.97 	0.048853 	4401 	0.048054
42.99 	0.043101 	4385 	0.042701
43.01 	0.043319 	4363 	0.042379
43.03 	0.047081 	4333 	0.046405
43.05 	0.050173 	4325 	0.048954
43.07 	0.047020 	4296 	0.046453
43.09 	0.046229 	4283 	0.045409
43.11 	0.045593 	4255 	0.044882
43.13 	0.042483 	4237 	0.042206
43.15 	0.045649 	4206 	0.044953
43.17 	0.043551 	4179 	0.042850
43.19 	0.049118 	4194 	0.048559
43.21 	0.041467 	4172 	0.041327
43.23 	0.050554 	4154 	0.049849
43.25 	0.044498 	4135 	0.043790
43.27 	0.035810 	4105 	0.035382
43.29 	0.046585 	4100 	0.046014
43.31 	0.049767 	4079 	0.049049
43.33 	0.041471 	4051 	0.040604
43.35 	0.045883 	4032 	0.045157
43.37 	0.049066 	4015 	0.048628
43.39 	0.049475 	4002 	0.048866
43.41 	0.044058 	3972 	0.043763
43.43 	0.044192 	3960 	0.043896
43.45 	0.050318 	3935 	0.050020
43.47 	0.046672 	3921 	0.045775
43.49 	0.044137 	3897 	0.043836
43.51 	0.043075 	3877 	0.042621
43.53 	0.040383 	3863 	0.039928
43.55 	0.051282 	2964 	0.050492
43.57 	0.049598 	2238 	0.048289
43.59 	0.059565 	1746 	0.058894
43.61 	0.047372 	1351 	0.046939
43.63 	0.046953 	1001 	0.046953
43.65 	0.048035 	687 	0.047182
43.67 	0.055777 	502 	0.055777
43.69 	0.049046 	367 	0.047450
43.71 	0.033473 	239 	0.033473
43.73 	0.058333 	120 	0.058333
43.75 	0.000000 	16 	0.000000