File: Example_Data/25SC_s1_0017.003.dat
#F C:\frames\spec\25SC_s1_0017.003
#C title =s:17 frm:3 25SC_s1
#C wavelength =0.15406

#S 1  fr_average C:\frames\spec\25SC_s1_0017.003 C:\win32app\speccom\mask.axs chi 0 180 0 360 0.02
#C 2 theta =0.000000 to 180 deg
#C   q   =0.000000 to 81.568 nm^-1
#C  chi  =0.000000 to 360 deg
#C collumns:
#C  1 position (2theta or chi in degrees)
#C  2 average intensity (sum of all counts in the region divided with number of pixels)
#C  3 Number of pixels in region)
#C  4 error (sum of sqrt(intensity) for all pixels divided by number)
#N 4
#L TTh  Int  N_pix  Err
32.99 	0.065574 	61 	0.065574
33.01 	0.057274 	873 	0.056603
33.03 	0.057513 	1391 	0.057513
33.05 	0.068867 	1757 	0.067200
33.07 	0.052195 	2050 	0.051338
33.09 	0.061781 	2347 	0.060283
33.11 	0.062815 	2579 	0.060961
33.13 	0.072682 	2793 	0.071633
33.15 	0.070690 	2999 	0.067760
33.17 	0.059044 	3201 	0.058495
33.19 	0.067624 	3342 	0.066748
33.21 	0.064901 	3436 	0.063708
33.23 	0.061028 	3523 	0.059337
33.25 	0.056202 	3612 	0.055228
33.27 	0.052617 	3630 	0.051596
33.29 	0.065789 	3648 	0.064184
33.31 	0.060656 	3660 	0.059855
33.33 	0.054259 	3686 	0.052803
33.35 	0.056037 	3694 	0.054927
33.37 	0.060312 	3714 	0.059498
33.39 	0.062215 	3729 	0.061587
33.41 	0.062299 	3740 	0.060577
33.43 	0.058761 	3761 	0.057826
33.45 	0.064405 	3773 	0.063008
33.47 	0.056082 	3798 	0.055003
33.49 	0.058808 	3809 	0.057732
33.51 	0.061861 	3815 	0.060479
33.53 	0.065868 	3841 	0.064343
33.55 	0.066354 	3843 	0.064983
33.57 	0.066804 	3877 	0.065420
33.59 	0.056186 	3880 	0.055280
33.61 	0.064722 	3909 	0.063374
33.63 	0.058433 	3919 	0.057387
33.65 	0.062071 	3931 	0.060432
33.67 	0.057916 	3954 	0.057175
33.69 	0.059196 	3953 	0.058306
33.71 	0.064151 	3975 	0.063414
33.73 	0.056194 	4004 	0.055609
33.75 	0.065016 	3999 	0.063405
33.77 	0.058137 	4025 	0.057118
33.79 	0.061618 	4041 	0.060459
33.81 	0.061169 	4038 	0.060298
33.83 	0.061975 	4050 	0.060240
33.85 	0.058063 	4099 	0.057348
33.87 	0.063002 	4111 	0.062004
33.89 	0.060180 	4121 	0.059042
33.91 	0.063389 	4149 	0.062400
33.93 	0.061190 	4151 	0.059920
33.95 	0.060033 	4181 	0.059893
33.97 	0.062768 	4190 	0.062069
33.99 	0.058095 	4200 	0.056979
34.01 	0.067410 	4213 	0.066020
34.03 	0.066211 	4244 	0.065659
34.05 	0.062324 	4252 	0.060372
34.07 	0.063261 	4268 	0.062026
34.09 	0.058796 	4286 	0.057429
34.11 	0.066481 	4302 	0.065391
34.13 	0.060353 	4308 	0.059809
34.15 	0.060725 	4331 	0.059237
34.17 	0.062759 	4350 	0.061951
34.19 	0.069005 	4362 	0.067103
34.21 	0.064516 	4371 	0.063556
34.23 	0.061917 	4393 	0.059917
34.25 	0.060854 	4404 	0.059923
34.27 	0.060154 	4422 	0.059094
34.29 	0.058399 	4435 	0.057475
34.31 	0.057425 	4458 	0.056242
34.33 	0.061507 	4471 	0.060066
34.35 	0.059768 	4484 	0.058854
34.37 	0.060120 	4491 	0.058164
34.39 	0.057086 	4502 	0.055915
34.41 	0.059434 	4526 	0.058356
34.43 	0.060806 	4539 	0.059387
34.45 	0.061080 	4535 	0.060176
34.47 	0.056838 	4592 	0.055945
34.49 	0.065260 	4597 	0.064113
34.51 	0.062093 	4606 	0.060821
34.53 	0.058367 	4643 	0.057842
34.55 	0.056214 	4643 	0.054679
34.57 	0.064378 	4660 	0.063100
34.59 	0.060535 	4675 	0.059407
34.61 	0.057484 	4697 	0.057234
34.63 	0.055839 	4710 	0.054574
34.65 	0.059098 	4721 	0.057609
34.67 	0.060958 	4741 	0.059351
34.69 	0.057215 	4754 	0.056106
34.71 	0.061267 	4766 	0.060161
34.73 	0.059745 	4787 	0.058624
34.75 	0.065100 	4808 	0.063516
34.77 	0.062682 	4818 	0.061223
34.79 	0.064262 	4824 	0.062906
34.81 	0.061094 	4845 	0.060368
34.83 	0.061292 	4862 	0.060067
34.85 	0.068392 	4869 	0.067309
34.87 	0.062654 	4868 	0.060589
34.89 	0.060016 	4882 	0.059056
34.91 	0.060221 	4882 	0.059122
34.93 	0.059808 	4899 	0.058971
34.95 	0.056646 	4890 	0.056287
34.97 	0.052632 	4902 	0.052034
34.99 	0.056361 	4897 	0.055763
35.01 	0.060938 	4923 	0.059868
35.03 	0.056848 	4943 	0.055900
35.05 	0.061047 	4947 	0.059745
35.07 	0.064372 	4940 	0.063542
35.09 	0.057541 	4953 	0.056476
35.11 	0.057004 	4947 	0.055209
35.13 	0.065147 	4958 	0.063356
35.15 	0.059550 	4937 	0.058601
35.17 	0.062273 	4946 	0.061325
35.19 	0.061716 	4942 	0.061005
35.21 	0.065723 	4945 	0.064065
35.23 	0.062690 	4945 	0.062097
35.25 	0.062108 	4943 	0.061041
35.27 	0.060428 	4948 	0.058771
35.29 	0.065116 	4945 	0.064406
35.31 	0.060612 	4933 	0.059306
35.33 	0.058264 	4943 	0.057790
35.35 	0.059288 	4942 	0.058695
35.37 	0.064993 	4939 	0.064262
35.39 	0.059252 	4945 	0.057949
35.41 	0.055623 	4926 	0.055148
35.43 	0.057166 	4933 	0.056315
35.45 	0.052866 	4937 	0.052510
35.47 	0.061448 	4931 	0.060122
35.49 	0.057230 	4910 	0.056156
35.51 	0.062525 	4926 	0.060960
35.53 	0.058598 	4949 	0.058006
35.55 	0.058847 	4945 	0.057406
35.57 	0.058990 	4933 	0.058021
35.59 	0.060667 	4945 	0.060075
35.61 	0.061109 	4942 	0.060516
35.63 	0.051790 	4943 	0.051316
35.65 	0.060263 	4945 	0.058486
35.67 	0.064751 	4942 	0.063191
35.69 	0.056409 	4946 	0.054831
35.71 	0.061171 	4937 	0.059866
35.73 	0.059968 	4936 	0.059018
35.75 	0.059826 	4931 	0.058756
35.77 	0.058978 	4951 	0.058031
35.79 	0.055353 	4932 	0.053928
35.81 	0.054328 	4933 	0.053259
35.83 	0.057622 	4946 	0.056438
35.85 	0.055522 	4935 	0.054691
35.87 	0.058501 	4923 	0.057053
35.89 	0.054114 	4934 	0.053283
35.91 	0.061295 	4927 	0.059968
35.93 	0.057236 	4927 	0.056522
35.95 	0.057962 	4917 	0.056632
35.97 	0.056800 	4912 	0.056084
35.99 	0.056084 	4939 	0.055610
36.01 	0.056389 	4930 	0.055558
36.03 	0.049767 	4943 	0.049293
36.05 	0.052983 	4945 	0.052154
36.07 	0.062361 	4939 	0.061056
36.09 	0.058704 	4940 	0.057637
36.11 	0.054575 	4929 	0.054100
36.13 	0.061109 	4942 	0.059686
36.15 	0.059121 	4939 	0.058054
36.17 	0.053401 	4925 	0.052212
36.19 	0.059717 	4940 	0.058887
36.21 	0.059850 	4929 	0.058305
36.23 	0.059169 	4935 	0.058220
36.25 	0.062538 	4941 	0.061115
36.27 	0.057056 	4925 	0.056580
36.29 	0.059826 	4931 	0.058756
36.31 	0.055804 	4928 	0.054714
36.33 	0.054733 	4933 	0.054140
36.35 	0.057415 	4929 	0.055751
36.37 	0.059517 	4923 	0.059041
36.39 	0.060354 	4921 	0.059639
36.41 	0.056781 	4896 	0.055824
36.43 	0.060674 	4928 	0.059485
36.45 	0.051927 	4930 	0.050858
36.47 	0.059157 	4936 	0.057970
36.49 	0.053420 	4942 	0.052827
36.51 	0.059396 	4933 	0.057714
36.53 	0.051386 	4943 	0.050319
36.55 	0.053988 	4927 	0.053156
36.57 	0.051074 	4934 	0.050481
36.59 	0.055477 	4939 	0.054884
36.61 	0.057798 	4931 	0.056966
36.63 	0.053336 	4931 	0.052148
36.65 	0.051095 	4932 	0.050263
36.67 	0.054361 	4930 	0.053529
36.69 	0.058024 	4929 	0.057549
36.71 	0.054460 	4921 	0.053865
36.73 	0.056244 	4925 	0.054816
36.75 	0.059668 	4944 	0.058128
36.77 	0.055296 	4919 	0.054939
36.79 	0.052632 	4921 	0.052394
36.81 	0.055330 	4916 	0.054257
36.83 	0.051882 	4915 	0.051405
36.85 	0.057575 	4898 	0.056379
36.87 	0.055218 	4944 	0.054389
36.89 	0.059601 	4916 	0.058529
36.91 	0.060312 	4941 	0.059008
36.93 	0.060852 	4930 	0.059407
36.95 	0.057977 	4933 	0.057264
36.97 	0.058168 	4934 	0.057337
36.99 	0.055117 	4935 	0.054286
37.01 	0.054328 	4933 	0.053378
37.03 	0.060114 	4924 	0.059261
37.05 	0.049929 	4927 	0.049334
37.07 	0.052888 	4935 	0.052531
37.09 	0.061080 	4928 	0.059534
37.11 	0.056332 	4935 	0.055383
37.13 	0.055443 	4924 	0.054253
37.15 	0.055816 	4909 	0.054742
37.17 	0.054317 	4934 	0.053723
37.19 	0.057462 	4925 	0.056629
37.21 	0.056335 	4917 	0.054906
37.23 	0.051850 	4918 	0.051136
37.25 	0.053350 	4911 	0.052395
37.27 	0.060278 	4894 	0.059679
37.29 	0.052130 	4930 	0.051298
37.31 	0.051672 	4935 	0.050960
37.33 	0.050132 	4927 	0.049181
37.35 	0.050425 	4938 	0.049832
37.37 	0.054800 	4927 	0.053691
37.39 	0.053539 	4931 	0.053064
37.41 	0.055770 	4931 	0.055176
37.43 	0.056367 	4932 	0.055773
37.45 	0.058895 	4924 	0.058062
37.47 	0.054981 	4929 	0.054149
37.49 	0.052204 	4923 	0.051232
37.51 	0.055747 	4933 	0.055510
37.53 	0.055702 	4919 	0.055226
37.55 	0.048682 	4930 	0.048206
37.57 	0.058477 	4925 	0.057764
37.59 	0.057375 	4915 	0.056541
37.61 	0.056684 	4922 	0.054899
37.63 	0.049604 	4919 	0.049127
37.65 	0.062017 	4918 	0.060945
37.67 	0.053222 	4904 	0.052147
37.69 	0.054104 	4898 	0.053147
37.71 	0.056604 	4929 	0.055415
37.73 	0.052140 	4929 	0.051190
37.75 	0.054656 	4940 	0.053351
37.77 	0.051016 	4920 	0.050183
37.79 	0.055578 	4930 	0.054608
37.81 	0.058990 	4933 	0.058040
37.83 	0.047764 	4920 	0.047288
37.85 	0.052621 	4922 	0.052264
37.87 	0.055072 	4939 	0.053036
37.89 	0.054213 	4925 	0.053618
37.91 	0.052941 	4930 	0.052228
37.93 	0.057125 	4919 	0.056887
37.95 	0.052428 	4921 	0.051595
37.97 	0.050923 	4929 	0.049735
37.99 	0.054357 	4912 	0.053283
38.01 	0.053774 	4928 	0.053180
38.03 	0.056427 	4909 	0.055472
38.05 	0.053401 	4925 	0.052054
38.07 	0.051131 	4909 	0.049699
38.09 	0.058426 	4878 	0.057825
38.11 	0.056738 	4935 	0.056025
38.13 	0.052461 	4937 	0.051986
38.15 	0.055510 	4918 	0.054677
38.17 	0.057606 	4930 	0.057012
38.19 	0.056389 	4930 	0.055558
38.21 	0.056876 	4923 	0.056162
38.23 	0.054070 	4938 	0.053596
38.25 	0.051251 	4917 	0.050417
38.27 	0.053550 	4930 	0.052837
38.29 	0.050162 	4924 	0.049568
38.31 	0.056018 	4927 	0.055423
38.33 	0.058286 	4924 	0.057096
38.35 	0.055601 	4928 	0.055244
38.37 	0.059708 	4924 	0.057973
38.39 	0.061520 	4909 	0.060326
38.41 	0.063376 	4923 	0.062900
38.43 	0.066924 	4916 	0.065137
38.45 	0.057137 	4918 	0.056303
38.47 	0.059711 	4907 	0.058875
38.49 	0.061513 	4877 	0.060432
38.51 	0.058394 	4932 	0.057800
38.53 	0.057212 	4929 	0.056618
38.55 	0.058955 	4936 	0.058480
38.57 	0.059720 	4923 	0.059006
38.59 	0.056255 	4924 	0.055065
38.61 	0.056929 	4936 	0.056098
38.63 	0.051178 	4924 	0.050583
38.65 	0.056324 	4918 	0.055609
38.67 	0.059955 	4937 	0.059481
38.69 	0.061764 	4922 	0.060930
38.71 	0.054833 	4924 	0.053882
38.73 	0.054290 	4918 	0.053318
38.75 	0.052770 	4927 	0.052652
38.77 	0.057079 	4923 	0.056246
38.79 	0.050466 	4934 	0.049754
38.81 	0.054357 	4912 	0.053045
38.83 	0.049400 	4919 	0.049281
38.85 	0.044585 	4912 	0.043988
38.87 	0.051721 	4911 	0.050150
38.89 	0.048601 	4897 	0.047266
38.91 	0.051193 	4903 	0.050476
38.93 	0.045970 	4938 	0.044665
38.95 	0.044530 	4918 	0.043935
38.97 	0.057595 	4931 	0.057120
38.99 	0.050841 	4937 	0.049397
39.01 	0.044530 	4918 	0.044292
39.03 	0.047426 	4934 	0.046832
39.05 	0.052792 	4925 	0.051602
39.07 	0.044882 	4924 	0.044644
39.09 	0.050376 	4923 	0.049900
39.11 	0.043805 	4931 	0.042735
39.13 	0.044282 	4923 	0.043330
39.15 	0.051475 	4915 	0.050879
39.17 	0.052664 	4937 	0.052070
39.19 	0.048403 	4917 	0.047927
39.21 	0.046436 	4910 	0.045601
39.23 	0.043858 	4925 	0.043620
39.25 	0.048151 	4922 	0.047556
39.27 	0.049898 	4910 	0.049063
39.29 	0.050806 	4901 	0.049969
39.31 	0.050983 	4884 	0.049783
39.33 	0.050902 	4931 	0.050427
39.35 	0.055724 	4935 	0.054419
39.37 	0.049503 	4929 	0.049146
39.39 	0.045851 	4929 	0.045118
39.41 	0.051105 	4931 	0.050630
39.43 	0.047233 	4933 	0.046758
39.45 	0.051168 	4925 	0.050216
39.47 	0.044485 	4923 	0.043871
39.49 	0.055747 	4933 	0.054184
39.51 	0.051584 	4924 	0.051108
39.53 	0.041641 	4923 	0.041284
39.55 	0.049604 	4919 	0.048155
39.57 	0.047233 	4933 	0.046263
39.59 	0.053950 	4912 	0.052499
39.61 	0.050376 	4923 	0.049543
39.63 	0.046932 	4922 	0.046218
39.65 	0.047706 	4926 	0.047349
39.67 	0.051903 	4913 	0.051665
39.69 	0.046176 	4916 	0.045461
39.71 	0.043309 	4895 	0.042711
39.73 	0.050733 	4908 	0.049898
39.75 	0.049310 	4928 	0.048716
39.77 	0.045390 	4935 	0.044915
39.79 	0.052375 	4926 	0.051662
39.81 	0.046682 	4927 	0.045968
39.83 	0.046007 	4934 	0.045651
39.85 	0.044855 	4927 	0.044379
39.87 	0.046701 	4925 	0.045987
39.89 	0.047223 	4934 	0.046274
39.91 	0.045713 	4922 	0.045237
39.93 	0.049220 	4937 	0.048152
39.95 	0.052899 	4915 	0.052184
39.97 	0.058644 	4928 	0.058050
39.99 	0.048054 	4932 	0.047578
40.01 	0.047784 	4918 	0.047545
40.03 	0.045049 	4928 	0.043741
40.05 	0.049827 	4917 	0.049231
40.07 	0.045704 	4923 	0.044990
40.09 	0.048820 	4916 	0.048344
40.11 	0.044142 	4916 	0.043665
40.13 	0.046569 	4896 	0.046090
40.15 	0.050885 	4913 	0.050528
40.17 	0.049107 	4928 	0.048632
40.19 	0.054372 	4929 	0.052827
40.21 	0.043972 	4935 	0.043259
40.23 	0.042985 	4932 	0.042628
40.25 	0.052439 	4920 	0.051248
40.27 	0.046587 	4937 	0.045875
40.29 	0.042216 	4927 	0.041622
40.31 	0.049200 	4939 	0.048370
40.33 	0.049067 	4932 	0.048473
40.35 	0.049807 	4919 	0.049073
40.37 	0.046054 	4929 	0.045579
40.39 	0.045021 	4931 	0.044309
40.41 	0.049340 	4925 	0.048864
40.43 	0.045104 	4922 	0.044628
40.45 	0.043787 	4933 	0.042837
40.47 	0.048800 	4918 	0.048205
40.49 	0.048315 	4926 	0.047602
40.51 	0.053230 	4922 	0.052278
40.53 	0.042107 	4916 	0.041631
40.55 	0.046251 	4908 	0.045774
40.57 	0.046626 	4890 	0.046266
40.59 	0.046182 	4937 	0.045589
40.61 	0.044580 	4935 	0.044223
40.63 	0.046856 	4930 	0.046381
40.65 	0.047397 	4937 	0.046211
40.67 	0.045012 	4932 	0.044181
40.69 	0.046587 	4937 	0.046112
40.71 	0.042579 	4932 	0.041273
40.73 	0.042834 	4926 	0.041883
40.75 	0.047049 	4931 	0.046218
40.77 	0.051022 	4939 	0.050429
40.79 	0.049147 	4924 	0.048552
40.81 	0.051002 	4941 	0.049935
40.83 	0.045657 	4928 	0.045301
40.85 	0.045491 	4924 	0.044897
40.87 	0.047078 	4928 	0.046246
40.89 	0.049483 	4931 	0.048770
40.91 	0.046923 	4923 	0.046685
40.93 	0.041954 	4934 	0.041716
40.95 	0.047425 	4913 	0.046829
40.97 	0.044476 	4924 	0.044238
40.99 	0.045085 	4924 	0.044728
41.01 	0.039292 	4912 	0.038437
41.03 	0.049541 	4905 	0.048944
41.05 	0.048622 	4936 	0.047910
41.07 	0.041379 	4930 	0.041142
41.09 	0.054869 	4939 	0.054395
41.11 	0.045998 	4935 	0.045167
41.13 	0.047002 	4936 	0.046171
41.15 	0.045335 	4941 	0.044624
41.17 	0.041548 	4934 	0.040955
41.19 	0.043205 	4930 	0.042611
41.21 	0.044156 	4937 	0.043682
41.23 	0.046771 	4939 	0.046178
41.25 	0.043381 	4933 	0.043144
41.27 	0.045021 	4931 	0.044665
41.29 	0.044643 	4928 	0.044167
41.31 	0.047841 	4933 	0.047366
41.33 	0.044561 	4937 	0.044443
41.35 	0.046780 	4938 	0.045930
41.37 	0.040008 	4924 	0.039532
41.39 	0.046017 	4933 	0.045423
41.41 	0.045676 	4926 	0.045319
41.43 	0.042199 	4929 	0.041843
41.45 	0.043142 	4914 	0.043023
41.47 	0.039992 	4926 	0.039873
41.49 	0.047220 	4892 	0.046621
41.51 	0.047368 	4940 	0.046776
41.53 	0.042476 	4944 	0.041765
41.55 	0.040729 	4935 	0.040492
41.57 	0.043513 	4941 	0.042783
41.59 	0.045408 	4933 	0.045052
41.61 	0.046033 	4953 	0.045914
41.63 	0.046780 	4938 	0.046306
41.65 	0.044431 	4929 	0.043837
41.67 	0.041498 	4940 	0.041142
41.69 	0.043663 	4947 	0.043189
41.71 	0.042562 	4934 	0.042087
41.73 	0.044773 	4936 	0.044417
41.75 	0.041185 	4929 	0.040353
41.77 	0.044525 	4941 	0.043814
41.79 	0.043689 	4944 	0.043571
41.81 	0.045583 	4936 	0.044990
41.83 	0.039976 	4928 	0.039738
41.85 	0.037862 	4939 	0.037506
41.87 	0.045390 	4935 	0.044678
41.89 	0.040138 	4933 	0.039544
41.91 	0.047407 	4936 	0.046576
41.93 	0.043998 	4932 	0.043405
41.95 	0.046441 	4931 	0.046084
41.97 	0.041514 	4914 	0.041395
41.99 	0.043833 	4905 	0.043236
42.01 	0.049575 	4942 	0.048627
42.03 	0.040494 	4939 	0.040138
42.05 	0.046648 	4952 	0.046056
42.07 	0.045777 	4937 	0.044946
42.09 	0.041229 	4948 	0.040400
42.11 	0.043074 	4945 	0.042482
42.13 	0.047321 	4945 	0.046373
42.15 	0.044957 	4938 	0.044483
42.17 	0.046157 	4918 	0.045304
42.19 	0.042991 	4908 	0.042136
42.21 	0.043052 	4901 	0.042455
42.23 	0.040474 	4892 	0.039397
42.25 	0.039681 	4889 	0.038942
42.27 	0.045137 	4874 	0.044897
42.29 	0.043800 	4863 	0.042836
42.31 	0.041401 	4855 	0.041159
42.33 	0.043856 	4834 	0.043371
42.35 	0.045060 	4838 	0.044697
42.37 	0.046377 	4830 	0.045407
42.39 	0.043089 	4804 	0.042601
42.41 	0.041632 	4804 	0.040778
42.43 	0.043197 	4792 	0.042321
42.45 	0.040829 	4776 	0.040339
42.47 	0.047429 	4765 	0.046937
42.49 	0.045960 	4765 	0.045714
42.51 	0.035631 	4743 	0.035508
42.53 	0.040821 	4728 	0.040077
42.55 	0.042693 	4708 	0.042444
42.57 	0.043129 	4730 	0.042634
42.59 	0.041446 	4729 	0.041323
42.61 	0.040782 	4708 	0.040782
42.63 	0.043321 	4709 	0.042575
42.65 	0.041409 	4685 	0.041159
42.67 	0.041418 	4684 	0.040667
42.69 	0.044074 	4674 	0.043948
42.71 	0.042676 	4663 	0.042300
42.73 	0.043319 	4640 	0.042688
42.75 	0.043968 	4617 	0.042932
42.77 	0.039130 	4600 	0.038621
42.79 	0.042121 	4582 	0.041610
42.81 	0.038360 	4562 	0.038232
42.83 	0.040564 	4536 	0.040177
42.85 	0.049691 	4528 	0.048785
42.87 	0.040231 	4499 	0.040101
42.89 	0.038839 	4480 	0.038578
42.91 	0.041068 	4456 	0.040674
42.93 	0.040486 	4446 	0.040222
42.95 	0.045743 	4416 	0.045345
42.97 	0.041127 	4401 	0.040728
42.99 	0.037172 	4385 	0.037039
43.01 	0.040568 	4363 	0.040166
43.03 	0.039926 	4333 	0.039656
43.05 	0.040694 	4325 	0.040287
43.07 	0.048184 	4296 	0.047230
43.09 	0.042260 	4283 	0.041439
43.11 	0.041598 	4255 	0.041185
43.13 	0.034458 	4237 	0.033767
43.15 	0.044460 	4206 	0.043903
43.17 	0.037569 	4179 	0.037429
43.19 	0.041965 	4194 	0.041406
43.21 	0.042186 	4172 	0.042046
43.23 	0.040924 	4154 	0.040360
43.25 	0.040871 	4135 	0.040587
43.27 	0.044336 	4105 	0.044051
43.29 	0.039512 	4100 	0.038798
43.31 	0.039716 	4079 	0.039428
43.33 	0.033819 	4051 	0.033072
43.35 	0.040427 	4032 	0.039700
43.37 	0.040100 	4015 	0.039954
43.39 	0.038481 	4002 	0.038042
43.41 	0.041037 	3972 	0.040742
43.43 	0.039899 	3960 	0.039603
43.45 	0.043964 	3935 	0.042922
43.47 	0.044631 	3921 	0.043735
43.49 	0.040801 	3897 	0.039598
43.51 	0.037658 	3877 	0.037205
43.53 	0.044784 	3863 	0.043205
43.55 	0.045547 	2964 	0.044954
43.57 	0.040661 	2238 	0.040400
43.59 	0.037228 	1746 	0.037228
43.61 	0.042931 	1351 	0.042064
43.63 	0.039960 	1001 	0.039375
43.65 	0.043668 	687 	0.043668
43.67 	0.055777 	502 	0.055777
43.69 	0.051771 	367 	0.048579
43.71 	0.037657 	239 	0.037657
43.73 	0.016667 	120 	0.016667
43.75 	0.000000 	16 	0.000000