File: Example_Data/25SC_s1_0020.001.dat
#F C:\frames\spec\25SC_s1_0020.001
#C title =s:20 frm:1 25SC_s1
#C wavelength =0.15406

#S 1  fr_average C:\frames\spec\25SC_s1_0020.001 C:\win32app\speccom\mask.axs chi 0 180 0 360 0.02
#C 2 theta =0.000000 to 180 deg
#C   q   =0.000000 to 81.568 nm^-1
#C  chi  =0.000000 to 360 deg
#C collumns:
#C  1 position (2theta or chi in degrees)
#C  2 average intensity (sum of all counts in the region divided with number of pixels)
#C  3 Number of pixels in region)
#C  4 error (sum of sqrt(intensity) for all pixels divided by number)
#N 4
#L TTh  Int  N_pix  Err
32.99 	0.049180 	61 	0.039577
33.01 	0.075601 	873 	0.072917
33.03 	0.067577 	1391 	0.067577
33.05 	0.063176 	1757 	0.061842
33.07 	0.050732 	2050 	0.050446
33.09 	0.066468 	2347 	0.064970
33.11 	0.066305 	2579 	0.064942
33.13 	0.069817 	2793 	0.068140
33.15 	0.066022 	2999 	0.064850
33.17 	0.061543 	3201 	0.060994
33.19 	0.050269 	3342 	0.049189
33.21 	0.058207 	3436 	0.057156
33.23 	0.063298 	3523 	0.062633
33.25 	0.063953 	3612 	0.062818
33.27 	0.058678 	3630 	0.058032
33.29 	0.062226 	3648 	0.061262
33.31 	0.060929 	3660 	0.059969
33.33 	0.055887 	3686 	0.054616
33.35 	0.058473 	3694 	0.057363
33.37 	0.050350 	3714 	0.049246
33.39 	0.062215 	3729 	0.061430
33.41 	0.064973 	3740 	0.063042
33.43 	0.060356 	3761 	0.059422
33.45 	0.058574 	3773 	0.057953
33.47 	0.063718 	3798 	0.062330
33.49 	0.065634 	3809 	0.064404
33.51 	0.055570 	3815 	0.054649
33.53 	0.056496 	3841 	0.055886
33.55 	0.066094 	3843 	0.064570
33.57 	0.053650 	3877 	0.053348
33.59 	0.054124 	3880 	0.053369
33.61 	0.057048 	3909 	0.056299
33.63 	0.067109 	3919 	0.066511
33.65 	0.060544 	3931 	0.059799
33.67 	0.057410 	3954 	0.056225
33.69 	0.058437 	3953 	0.057548
33.71 	0.060881 	3975 	0.060291
33.73 	0.057443 	4004 	0.055809
33.75 	0.063516 	3999 	0.062027
33.77 	0.062360 	4025 	0.061050
33.79 	0.059144 	4041 	0.057815
33.81 	0.061417 	4038 	0.060111
33.83 	0.052346 	4050 	0.051189
33.85 	0.059771 	4099 	0.058199
33.87 	0.062272 	4111 	0.060562
33.89 	0.062606 	4121 	0.061753
33.91 	0.060014 	4149 	0.059309
33.93 	0.057576 	4151 	0.057012
33.95 	0.063860 	4181 	0.063020
33.97 	0.055847 	4190 	0.054706
33.99 	0.056667 	4200 	0.055690
34.01 	0.055542 	4213 	0.054152
34.03 	0.055844 	4244 	0.054601
34.05 	0.060442 	4252 	0.059202
34.07 	0.054827 	4268 	0.053729
34.09 	0.059029 	4286 	0.057640
34.11 	0.057648 	4302 	0.056286
34.13 	0.054318 	4308 	0.053230
34.15 	0.057262 	4331 	0.055887
34.17 	0.050575 	4350 	0.049363
34.19 	0.058689 	4362 	0.057189
34.21 	0.055822 	4371 	0.055018
34.23 	0.061006 	4393 	0.059351
34.25 	0.050863 	4404 	0.050065
34.27 	0.053822 	4422 	0.052762
34.29 	0.049154 	4435 	0.048494
34.31 	0.053163 	4458 	0.051827
34.33 	0.061060 	4471 	0.059750
34.35 	0.063113 	4484 	0.062460
34.37 	0.053218 	4491 	0.051913
34.39 	0.057086 	4502 	0.056175
34.41 	0.061423 	4526 	0.059870
34.43 	0.058824 	4539 	0.057533
34.45 	0.057111 	4535 	0.055928
34.47 	0.060105 	4592 	0.058829
34.49 	0.050033 	4597 	0.049268
34.51 	0.055145 	4606 	0.054255
34.53 	0.053844 	4643 	0.052961
34.55 	0.055568 	4643 	0.054432
34.57 	0.051502 	4660 	0.051251
34.59 	0.055401 	4675 	0.054148
34.61 	0.053864 	4697 	0.053490
34.63 	0.055626 	4710 	0.054735
34.65 	0.052955 	4721 	0.051714
34.67 	0.056317 	4741 	0.056194
34.69 	0.055953 	4754 	0.054084
34.71 	0.056441 	4766 	0.055827
34.73 	0.051598 	4787 	0.050986
34.75 	0.054077 	4808 	0.053346
34.77 	0.059361 	4818 	0.058874
34.79 	0.057421 	4824 	0.056328
34.81 	0.051806 	4845 	0.051201
34.83 	0.054504 	4862 	0.053521
34.85 	0.060587 	4869 	0.059866
34.87 	0.052794 	4868 	0.052433
34.89 	0.059812 	4882 	0.058492
34.91 	0.056944 	4882 	0.056344
34.93 	0.057359 	4899 	0.056880
34.95 	0.059100 	4890 	0.057523
34.97 	0.056916 	4902 	0.055601
34.99 	0.052685 	4897 	0.052087
35.01 	0.061954 	4923 	0.060883
35.03 	0.058871 	4943 	0.057805
35.05 	0.059632 	4947 	0.058310
35.07 	0.058907 	4940 	0.058314
35.09 	0.056733 	4953 	0.055196
35.11 	0.061451 	4947 	0.060267
35.13 	0.060307 	4958 	0.058771
35.15 	0.061576 	4937 	0.060389
35.17 	0.053376 	4946 	0.053021
35.19 	0.058074 	4942 	0.057718
35.21 	0.058443 	4945 	0.058087
35.23 	0.057836 	4945 	0.057106
35.25 	0.059478 	4943 	0.059004
35.27 	0.056589 	4948 	0.054892
35.29 	0.056016 	4945 	0.054931
35.31 	0.053112 	4933 	0.051667
35.33 	0.062513 	4943 	0.061091
35.35 	0.060097 	4942 	0.058438
35.37 	0.048795 	4939 	0.047609
35.39 	0.056421 	4945 	0.055947
35.41 	0.063337 	4926 	0.061910
35.43 	0.058585 	4933 	0.057516
35.45 	0.058740 	4937 	0.058266
35.47 	0.064490 	4931 	0.063658
35.49 	0.055397 	4910 	0.053846
35.51 	0.060292 	4926 	0.059321
35.53 	0.056779 	4949 	0.056306
35.55 	0.053185 	4945 	0.051882
35.57 	0.061423 	4933 	0.060711
35.59 	0.057634 	4945 	0.056805
35.61 	0.060704 	4942 	0.059756
35.63 	0.056443 	4943 	0.055614
35.65 	0.055612 	4945 	0.054901
35.67 	0.058681 	4942 	0.058207
35.69 	0.058431 	4946 	0.057365
35.71 	0.059145 	4937 	0.057959
35.73 	0.058752 	4936 	0.057803
35.75 	0.062259 	4931 	0.061309
35.77 	0.056756 	4951 	0.056165
35.79 	0.053122 	4932 	0.052291
35.81 	0.059801 	4933 	0.059089
35.83 	0.053781 	4946 	0.053189
35.85 	0.054914 	4935 	0.054202
35.87 	0.058095 	4923 	0.056855
35.89 	0.065667 	4934 	0.064361
35.91 	0.057642 	4927 	0.056809
35.93 	0.060483 	4927 	0.059294
35.95 	0.057759 	4917 	0.056190
35.97 	0.057614 	4912 	0.056302
35.99 	0.057502 	4939 	0.056553
36.01 	0.055375 	4930 	0.054544
36.03 	0.054825 	4943 	0.053877
36.05 	0.056016 	4945 	0.054950
36.07 	0.066815 	4939 	0.065036
36.09 	0.056478 	4940 	0.055766
36.11 	0.062082 	4929 	0.061250
36.13 	0.060502 	4942 	0.059297
36.15 	0.060741 	4939 	0.060267
36.17 	0.054822 	4925 	0.053118
36.19 	0.058300 	4940 	0.057331
36.21 	0.056604 	4929 	0.055772
36.23 	0.051064 	4935 	0.049639
36.25 	0.060514 	4941 	0.058005
36.27 	0.057259 	4925 	0.056783
36.29 	0.059014 	4931 	0.058777
36.31 	0.062297 	4928 	0.061465
36.33 	0.052706 	4933 	0.051737
36.35 	0.057821 	4929 	0.057108
36.37 	0.056063 	4923 	0.055587
36.39 	0.064621 	4921 	0.063550
36.41 	0.056168 	4896 	0.055450
36.43 	0.059253 	4928 	0.058659
36.45 	0.065720 	4930 	0.064888
36.47 	0.057334 	4936 	0.056503
36.49 	0.060907 	4942 	0.059721
36.51 	0.054531 	4933 	0.053699
36.53 	0.059276 	4943 	0.057380
36.55 	0.054191 	4927 	0.053240
36.57 	0.056952 	4934 	0.056358
36.59 	0.055679 	4939 	0.054968
36.61 	0.057595 	4931 	0.057120
36.63 	0.051714 	4931 	0.050625
36.65 	0.064071 	4932 	0.062290
36.67 	0.053347 	4930 	0.052396
36.69 	0.059241 	4929 	0.058647
36.71 	0.061776 	4921 	0.060189
36.73 	0.060102 	4925 	0.059626
36.75 	0.058455 	4944 	0.057981
36.77 	0.055092 	4919 	0.054378
36.79 	0.060760 	4921 	0.059451
36.81 	0.058381 	4916 	0.057547
36.83 	0.060427 	4915 	0.058997
36.85 	0.057983 	4898 	0.057385
36.87 	0.058252 	4944 	0.057068
36.89 	0.056550 	4916 	0.055478
36.91 	0.061728 	4941 	0.060780
36.93 	0.055984 	4930 	0.055508
36.95 	0.059801 	4933 	0.058495
36.97 	0.062424 	4934 	0.061217
36.99 	0.057143 	4935 	0.056174
37.01 	0.063653 	4933 	0.062109
37.03 	0.059098 	4924 	0.057889
37.05 	0.058453 	4927 	0.057383
37.07 	0.057751 	4935 	0.057039
37.09 	0.057021 	4928 	0.055238
37.11 	0.059574 	4935 	0.058981
37.13 	0.051787 	4924 	0.051311
37.15 	0.056427 	4909 	0.055950
37.17 	0.057154 	4934 	0.056680
37.19 	0.052589 	4925 	0.052113
37.21 	0.054708 	4917 	0.054112
37.23 	0.057950 	4918 	0.057474
37.25 	0.053350 	4911 	0.052256
37.27 	0.059256 	4894 	0.058897
37.29 	0.060852 	4930 	0.059901
37.31 	0.058156 	4935 	0.057306
37.33 	0.054597 	4927 	0.054003
37.35 	0.056703 	4938 	0.055635
37.37 	0.064339 	4927 	0.063983
37.39 	0.056175 	4931 	0.055225
37.41 	0.054147 	4931 	0.052840
37.43 	0.058597 	4932 	0.057172
37.45 	0.058692 	4924 	0.057483
37.47 	0.049909 	4929 	0.048720
37.49 	0.052001 	4923 	0.051049
37.51 	0.050476 	4933 	0.049764
37.53 	0.058752 	4919 	0.057561
37.55 	0.061055 	4930 	0.059867
37.57 	0.054010 	4925 	0.053297
37.59 	0.059410 	4915 	0.058576
37.61 	0.059935 	4922 	0.059320
37.63 	0.060175 	4919 	0.059103
37.65 	0.058357 	4918 	0.057146
37.67 	0.054445 	4904 	0.053490
37.69 	0.052470 	4898 	0.051514
37.71 	0.054372 	4929 	0.053184
37.73 	0.052952 	4929 	0.052477
37.75 	0.056478 	4940 	0.054936
37.77 	0.056301 	4920 	0.055586
37.79 	0.055172 	4930 	0.054559
37.81 	0.060207 	4933 	0.059613
37.83 	0.058333 	4920 	0.058095
37.85 	0.052215 	4922 	0.051738
37.87 	0.051630 	4939 	0.051155
37.89 	0.051371 	4925 	0.050062
37.91 	0.052535 	4930 	0.051704
37.93 	0.061191 	4919 	0.060358
37.95 	0.055680 	4921 	0.055323
37.97 	0.054169 	4929 	0.053218
37.99 	0.056189 	4912 	0.055712
38.01 	0.050528 	4928 	0.050171
38.03 	0.053371 	4909 	0.051701
38.05 	0.056244 	4925 	0.055173
38.07 	0.054797 	4909 	0.053365
38.09 	0.052481 	4878 	0.052240
38.11 	0.059574 	4935 	0.058625
38.13 	0.056309 	4937 	0.055360
38.15 	0.057747 	4918 	0.056655
38.17 	0.057606 	4930 	0.056537
38.19 	0.054361 	4930 	0.053292
38.21 	0.050376 	4923 	0.049781
38.23 	0.057108 	4938 	0.055803
38.25 	0.051454 	4917 	0.050124
38.27 	0.060041 	4930 	0.058852
38.29 	0.058286 	4924 	0.057434
38.31 	0.052973 	4927 	0.051547
38.33 	0.059098 	4924 	0.058147
38.35 	0.057224 	4928 	0.056511
38.37 	0.056458 	4924 	0.055982
38.39 	0.064575 	4909 	0.063501
38.41 	0.063985 	4923 	0.063152
38.43 	0.065704 	4916 	0.064512
38.45 	0.066694 	4918 	0.065503
38.47 	0.069900 	4907 	0.068070
38.49 	0.076071 	4877 	0.075231
38.51 	0.070560 	4932 	0.068996
38.53 	0.068777 	4929 	0.068064
38.55 	0.081848 	4936 	0.080780
38.57 	0.075157 	4923 	0.073016
38.59 	0.073111 	4924 	0.071803
38.61 	0.070502 	4936 	0.068327
38.63 	0.082453 	4924 	0.081006
38.65 	0.072590 	4918 	0.071280
38.67 	0.078388 	4937 	0.075896
38.69 	0.073344 	4922 	0.072154
38.71 	0.065394 	4924 	0.064046
38.73 	0.068727 	4918 	0.067060
38.75 	0.067384 	4927 	0.066433
38.77 	0.068454 	4923 	0.067026
38.79 	0.069112 	4934 	0.068024
38.81 	0.067590 	4912 	0.066159
38.83 	0.063631 	4919 	0.062182
38.85 	0.062093 	4912 	0.060781
38.87 	0.059255 	4911 	0.057943
38.89 	0.055953 	4897 	0.054996
38.91 	0.058740 	4903 	0.058381
38.93 	0.056096 	4938 	0.054791
38.95 	0.061610 	4918 	0.061015
38.97 	0.052525 	4931 	0.052050
38.99 	0.053879 	4937 	0.052673
39.01 	0.051850 	4918 	0.051017
39.03 	0.051277 	4934 	0.050565
39.05 	0.054619 	4925 	0.053886
39.07 	0.054427 	4924 	0.052742
39.09 	0.051595 	4923 	0.051000
39.11 	0.049686 	4931 	0.048835
39.13 	0.046719 	4923 	0.046125
39.15 	0.054323 	4915 	0.053251
39.17 	0.048410 	4937 	0.047579
39.19 	0.049624 	4917 	0.049028
39.21 	0.053768 	4910 	0.053410
39.23 	0.047716 	4925 	0.047002
39.25 	0.048761 	4922 	0.048047
39.27 	0.051324 	4910 	0.050489
39.29 	0.046725 	4901 	0.046367
39.31 	0.048116 	4884 	0.047637
39.33 	0.049077 	4931 	0.048721
39.35 	0.052280 	4935 	0.051429
39.37 	0.040373 	4929 	0.039779
39.39 	0.045445 	4929 	0.045208
39.41 	0.047860 	4931 	0.047385
39.43 	0.053112 	4933 	0.052518
39.45 	0.049137 	4925 	0.048542
39.47 	0.047735 	4923 	0.047378
39.49 	0.047841 	4933 	0.047247
39.51 	0.048335 	4924 	0.047978
39.53 	0.048141 	4923 	0.047903
39.55 	0.042692 	4919 	0.042096
39.57 	0.049463 	4933 	0.048869
39.59 	0.048656 	4912 	0.047702
39.61 	0.049970 	4923 	0.048998
39.63 	0.044697 	4922 	0.044102
39.65 	0.045067 	4926 	0.044116
39.67 	0.043354 	4913 	0.042758
39.69 	0.046379 	4916 	0.045783
39.71 	0.043105 	4895 	0.042746
39.73 	0.044621 	4908 	0.044263
39.75 	0.045049 	4928 	0.044217
39.77 	0.038501 	4935 	0.038382
39.79 	0.041007 	4926 	0.040650
39.81 	0.039578 	4927 	0.038746
39.83 	0.052290 	4934 	0.051815
39.85 	0.046276 	4927 	0.046038
39.87 	0.049137 	4925 	0.048542
39.89 	0.046007 	4934 	0.045532
39.91 	0.043275 	4922 	0.043037
39.93 	0.047195 	4937 	0.046720
39.95 	0.046796 	4915 	0.045961
39.97 	0.044643 	4928 	0.044167
39.99 	0.045418 	4932 	0.044586
40.01 	0.041887 	4918 	0.041053
40.03 	0.042614 	4928 	0.041663
40.05 	0.044743 	4917 	0.044504
40.07 	0.044891 	4923 	0.043939
40.09 	0.042921 	4916 	0.042325
40.11 	0.048007 	4916 	0.047053
40.13 	0.045343 	4896 	0.044745
40.15 	0.040912 	4913 	0.040077
40.17 	0.046875 	4928 	0.046043
40.19 	0.043417 	4929 	0.042941
40.21 	0.044985 	4935 	0.044510
40.23 	0.045620 	4932 	0.045264
40.25 	0.042683 	4920 	0.042326
40.27 	0.043346 	4937 	0.042753
40.29 	0.041607 	4927 	0.041251
40.31 	0.045151 	4939 	0.044439
40.33 	0.043390 	4932 	0.042677
40.35 	0.042285 	4919 	0.041809
40.37 	0.040576 	4929 	0.040101
40.39 	0.043805 	4931 	0.042973
40.41 	0.047310 	4925 	0.046596
40.43 	0.046932 	4922 	0.046813
40.45 	0.038313 	4933 	0.038076
40.47 	0.042497 	4918 	0.042140
40.49 	0.046894 	4926 	0.046299
40.51 	0.042259 	4922 	0.041664
40.53 	0.043124 	4916 	0.042410
40.55 	0.038305 	4908 	0.037589
40.57 	0.042331 	4890 	0.041972
40.59 	0.039700 	4937 	0.039463
40.61 	0.041135 	4935 	0.040423
40.63 	0.045842 	4930 	0.044772
40.65 	0.039498 	4937 	0.039260
40.67 	0.041160 	4932 	0.040685
40.69 	0.043954 	4937 	0.043123
40.71 	0.043998 	4932 	0.043405
40.73 	0.043443 	4926 	0.043086
40.75 	0.040763 	4931 	0.039931
40.77 	0.034825 	4939 	0.034588
40.79 	0.045491 	4924 	0.044778
40.81 	0.041894 	4941 	0.041657
40.83 	0.043831 	4928 	0.043237
40.85 	0.041227 	4924 	0.040870
40.87 	0.044440 	4928 	0.043964
40.89 	0.040763 	4931 	0.039911
40.91 	0.045094 	4923 	0.043905
40.93 	0.044183 	4934 	0.043827
40.95 	0.045390 	4913 	0.044555
40.97 	0.042851 	4924 	0.042494
40.99 	0.044679 	4924 	0.043965
41.01 	0.040920 	4912 	0.039966
41.03 	0.042406 	4905 	0.041928
41.05 	0.044165 	4936 	0.043809
41.07 	0.039554 	4930 	0.038960
41.09 	0.050010 	4939 	0.049298
41.11 	0.039311 	4935 	0.038836
41.13 	0.042342 	4936 	0.041867
41.15 	0.042097 	4941 	0.041148
41.17 	0.041346 	4934 	0.041108
41.19 	0.042596 	4930 	0.042240
41.21 	0.036864 	4937 	0.036627
41.23 	0.043329 	4939 	0.042498
41.25 	0.035881 	4933 	0.035881
41.27 	0.039749 	4931 	0.039630
41.29 	0.040381 	4928 	0.039193
41.31 	0.041760 	4933 	0.041285
41.33 	0.046384 	4937 	0.045791
41.35 	0.041515 	4938 	0.040922
41.37 	0.037977 	4924 	0.037501
41.39 	0.041962 	4933 	0.041487
41.41 	0.038368 	4926 	0.038011
41.43 	0.035910 	4929 	0.035672
41.45 	0.042939 	4914 	0.042819
41.47 	0.044458 	4926 	0.043626
41.49 	0.039861 	4892 	0.039143
41.51 	0.038057 	4940 	0.037582
41.53 	0.039644 	4944 	0.039170
41.55 	0.040729 	4935 	0.039879
41.57 	0.039668 	4941 	0.039075
41.59 	0.036286 	4933 	0.036049
41.61 	0.039168 	4953 	0.038577
41.63 	0.041515 	4938 	0.041040
41.65 	0.045851 	4929 	0.045495
41.67 	0.042105 	4940 	0.041512
41.69 	0.042046 	4947 	0.041454
41.71 	0.041143 	4934 	0.040668
41.73 	0.045583 	4936 	0.045227
41.75 	0.043619 	4929 	0.043382
41.77 	0.036632 	4941 	0.035802
41.79 	0.045510 	4944 	0.044680
41.81 	0.040721 	4936 	0.040484
41.83 	0.038149 	4928 	0.038030
41.85 	0.043734 	4939 	0.043378
41.87 	0.038501 	4935 	0.038144
41.89 	0.039327 	4933 	0.038476
41.91 	0.042747 	4936 	0.042391
41.93 	0.037713 	4932 	0.037238
41.95 	0.037923 	4931 	0.037567
41.97 	0.039479 	4914 	0.039121
41.99 	0.040367 	4905 	0.039770
42.01 	0.036220 	4942 	0.035746
42.03 	0.040089 	4939 	0.039970
42.05 	0.042003 	4952 	0.041767
42.07 	0.038080 	4937 	0.037249
42.09 	0.034964 	4948 	0.034608
42.11 	0.036603 	4945 	0.036129
42.13 	0.039434 	4945 	0.039197
42.15 	0.037667 	4938 	0.037548
42.17 	0.042904 	4918 	0.042308
42.19 	0.040546 	4908 	0.040427
42.21 	0.038972 	4901 	0.038494
42.23 	0.037817 	4892 	0.036979
42.25 	0.042544 	4889 	0.042425
42.27 	0.035494 	4874 	0.035374
42.29 	0.038042 	4863 	0.037681
42.31 	0.040577 	4855 	0.040335
42.33 	0.039926 	4834 	0.039441
42.35 	0.037412 	4838 	0.036928
42.37 	0.037888 	4830 	0.037767
42.39 	0.041632 	4804 	0.041002
42.41 	0.038301 	4804 	0.037570
42.43 	0.041319 	4792 	0.040952
42.45 	0.038735 	4776 	0.038490
42.47 	0.039035 	4765 	0.038789
42.49 	0.039035 	4765 	0.038789
42.51 	0.036475 	4743 	0.035857
42.53 	0.040609 	4728 	0.040361
42.55 	0.040782 	4708 	0.040408
42.57 	0.041226 	4730 	0.040855
42.59 	0.037006 	4729 	0.036386
42.61 	0.034622 	4708 	0.033875
42.63 	0.035464 	4709 	0.035215
42.65 	0.043543 	4685 	0.043418
42.67 	0.041631 	4684 	0.040860
42.69 	0.033376 	4674 	0.032499
42.71 	0.039245 	4663 	0.038491
42.73 	0.038793 	4640 	0.038414
42.75 	0.035737 	4617 	0.035357
42.77 	0.039565 	4600 	0.038801
42.79 	0.038848 	4582 	0.038336
42.81 	0.040772 	4562 	0.040258
42.83 	0.040785 	4536 	0.040397
42.85 	0.034231 	4528 	0.033973
42.87 	0.033341 	4499 	0.032950
42.89 	0.043527 	4480 	0.043004
42.91 	0.041966 	4456 	0.041440
42.93 	0.039136 	4446 	0.038741
42.95 	0.036232 	4416 	0.035834
42.97 	0.040218 	4401 	0.040085
42.99 	0.035576 	4385 	0.035576
43.01 	0.039193 	4363 	0.038656
43.03 	0.044542 	4333 	0.044001
43.05 	0.035838 	4325 	0.035025
43.07 	0.035149 	4296 	0.034740
43.09 	0.036657 	4283 	0.036383
43.11 	0.038073 	4255 	0.037660
43.13 	0.037763 	4237 	0.037348
43.15 	0.036614 	4206 	0.035639
43.17 	0.033740 	4179 	0.033740
43.19 	0.038150 	4194 	0.037731
43.21 	0.034995 	4172 	0.034714
43.23 	0.036110 	4154 	0.035687
43.25 	0.039420 	4135 	0.039136
43.27 	0.040195 	4105 	0.039339
43.29 	0.039512 	4100 	0.039226
43.31 	0.045354 	4079 	0.044636
43.33 	0.035053 	4051 	0.034185
43.35 	0.042907 	4032 	0.042180
43.37 	0.033126 	4015 	0.032688
43.39 	0.039230 	4002 	0.038938
43.41 	0.036002 	3972 	0.035707
43.43 	0.040909 	3960 	0.039726
43.45 	0.037865 	3935 	0.037419
43.47 	0.040296 	3921 	0.039848
43.49 	0.037978 	3897 	0.037828
43.51 	0.037400 	3877 	0.037098
43.53 	0.039089 	3863 	0.038482
43.55 	0.035088 	2964 	0.034890
43.57 	0.040661 	2238 	0.040400
43.59 	0.048683 	1746 	0.048347
43.61 	0.042191 	1351 	0.041324
43.63 	0.031968 	1001 	0.031968
43.65 	0.046579 	687 	0.046579
43.67 	0.035857 	502 	0.034690
43.69 	0.013624 	367 	0.013624
43.71 	0.041841 	239 	0.041841
43.73 	0.033333 	120 	0.033333
43.75 	0.062500 	16 	0.062500