File: Example_Data/25SC_s1_0010.002.dat
#F C:\frames\spec\25SC_s1_0010.002
#C title =s:10 frm:2 25SC_s1
#C wavelength =0.15406

#S 1  fr_average C:\frames\spec\25SC_s1_0010.002 C:\win32app\speccom\mask.axs chi 0 180 0 360 0.02
#C 2 theta =0.000000 to 180 deg
#C   q   =0.000000 to 81.568 nm^-1
#C  chi  =0.000000 to 360 deg
#C collumns:
#C  1 position (2theta or chi in degrees)
#C  2 average intensity (sum of all counts in the region divided with number of pixels)
#C  3 Number of pixels in region)
#C  4 error (sum of sqrt(intensity) for all pixels divided by number)
#N 4
#L TTh  Int  N_pix  Err
32.99 	0.065574 	61 	0.065574
33.01 	0.071019 	873 	0.070348
33.03 	0.063264 	1391 	0.061579
33.05 	0.050655 	1757 	0.049654
33.07 	0.057073 	2050 	0.056787
33.09 	0.066042 	2347 	0.063754
33.11 	0.055836 	2579 	0.055154
33.13 	0.061583 	2793 	0.060324
33.15 	0.063354 	2999 	0.062573
33.17 	0.059356 	3201 	0.058411
33.19 	0.057451 	3342 	0.056574
33.21 	0.053260 	3436 	0.052237
33.23 	0.053931 	3523 	0.052601
33.25 	0.067829 	3612 	0.066532
33.27 	0.060331 	3630 	0.060008
33.29 	0.069627 	3648 	0.068824
33.31 	0.061475 	3660 	0.059689
33.33 	0.052360 	3686 	0.051725
33.35 	0.063617 	3694 	0.062031
33.37 	0.057889 	3714 	0.056785
33.39 	0.053902 	3729 	0.052959
33.41 	0.060160 	3740 	0.059534
33.43 	0.063813 	3761 	0.062567
33.45 	0.064140 	3773 	0.063053
33.47 	0.064244 	3798 	0.062060
33.49 	0.055395 	3809 	0.055088
33.51 	0.061861 	3815 	0.060940
33.53 	0.061703 	3841 	0.060178
33.55 	0.062711 	3843 	0.061797
33.57 	0.066546 	3877 	0.065035
33.59 	0.062371 	3880 	0.060837
33.61 	0.057815 	3909 	0.055992
33.63 	0.056647 	3919 	0.055750
33.65 	0.058764 	3931 	0.057572
33.67 	0.063986 	3954 	0.062801
33.69 	0.053124 	3953 	0.052235
33.71 	0.062138 	3975 	0.060959
33.73 	0.060440 	4004 	0.059562
33.75 	0.058765 	3999 	0.057886
33.77 	0.056646 	4025 	0.056064
33.79 	0.059639 	4041 	0.058769
33.81 	0.061169 	4038 	0.060153
33.83 	0.055309 	4050 	0.054296
33.85 	0.055623 	4099 	0.054314
33.87 	0.060326 	4111 	0.058616
33.89 	0.057996 	4121 	0.056716
33.91 	0.064835 	4149 	0.063705
33.93 	0.058058 	4151 	0.057070
33.95 	0.065535 	4181 	0.063830
33.97 	0.053699 	4190 	0.052301
33.99 	0.060714 	4200 	0.059738
34.01 	0.058153 	4213 	0.056902
34.03 	0.056786 	4244 	0.055797
34.05 	0.063029 	4252 	0.062616
34.07 	0.058107 	4268 	0.057421
34.09 	0.057863 	4286 	0.056496
34.11 	0.056950 	4302 	0.056406
34.13 	0.059889 	4308 	0.058937
34.15 	0.058647 	4331 	0.057700
34.17 	0.052874 	4350 	0.052200
34.19 	0.057542 	4362 	0.057274
34.21 	0.058568 	4371 	0.058032
34.23 	0.058275 	4393 	0.057608
34.25 	0.055177 	4404 	0.054246
34.27 	0.063998 	4422 	0.062673
34.29 	0.059301 	4435 	0.057958
34.31 	0.057649 	4458 	0.057255
34.33 	0.055245 	4471 	0.054459
34.35 	0.058876 	4484 	0.057962
34.37 	0.055444 	4491 	0.054009
34.39 	0.052865 	4502 	0.052215
34.41 	0.065621 	4526 	0.064974
34.43 	0.060366 	4539 	0.058817
34.45 	0.058214 	4535 	0.057181
34.47 	0.053354 	4592 	0.053099
34.49 	0.049598 	4597 	0.048451
34.51 	0.051020 	4606 	0.050130
34.53 	0.061813 	4643 	0.060804
34.55 	0.055352 	4643 	0.054721
34.57 	0.056438 	4660 	0.055558
34.59 	0.060107 	4675 	0.058708
34.61 	0.058122 	4697 	0.057000
34.63 	0.058599 	4710 	0.057853
34.65 	0.056768 	4721 	0.055238
34.67 	0.053575 	4741 	0.052834
34.69 	0.058687 	4754 	0.057825
34.71 	0.062736 	4766 	0.061630
34.73 	0.059118 	4787 	0.058874
34.75 	0.061356 	4808 	0.060625
34.77 	0.067455 	4818 	0.065996
34.79 	0.054934 	4824 	0.054205
34.81 	0.065428 	4845 	0.063977
34.83 	0.051419 	4862 	0.050696
34.85 	0.061204 	4869 	0.060361
34.87 	0.056697 	4868 	0.056215
34.89 	0.059197 	4882 	0.058237
34.91 	0.054691 	4882 	0.053731
34.93 	0.055317 	4899 	0.054241
34.95 	0.057260 	4890 	0.056401
34.97 	0.054876 	4902 	0.053302
34.99 	0.062079 	4897 	0.060643
35.01 	0.063985 	4923 	0.063152
35.03 	0.063120 	4943 	0.061223
35.05 	0.061249 	4947 	0.060420
35.07 	0.060931 	4940 	0.059627
35.09 	0.054311 	4953 	0.053246
35.11 	0.056802 	4947 	0.055973
35.13 	0.061315 	4958 	0.060015
35.15 	0.063804 	4937 	0.062499
35.17 	0.057825 	4946 	0.056403
35.19 	0.054634 	4942 	0.053093
35.21 	0.055612 	4945 	0.055375
35.23 	0.053185 	4945 	0.052474
35.25 	0.059073 	4943 	0.058362
35.27 	0.061641 	4948 	0.060457
35.29 	0.064914 	4945 	0.064085
35.31 	0.055544 	4933 	0.054238
35.33 	0.061299 	4943 	0.060469
35.35 	0.051801 	4942 	0.051208
35.37 	0.051427 	4939 	0.050479
35.39 	0.060061 	4945 	0.059350
35.41 	0.058871 	4926 	0.058158
35.43 	0.059801 	4933 	0.059326
35.45 	0.062386 	4937 	0.061081
35.47 	0.055161 	4931 	0.054073
35.49 	0.062322 	4910 	0.061129
35.51 	0.056232 	4926 	0.055638
35.53 	0.055567 	4949 	0.054502
35.55 	0.058038 	4945 	0.057209
35.57 	0.059801 	4933 	0.059326
35.59 	0.059050 	4945 	0.057746
35.61 	0.061514 	4942 	0.060447
35.63 	0.056241 	4943 	0.055175
35.65 	0.064712 	4945 	0.064001
35.67 	0.065763 	4942 	0.064202
35.69 	0.054590 	4946 	0.054234
35.71 	0.057120 	4937 	0.056052
35.73 	0.060373 	4936 	0.059166
35.75 	0.063882 	4931 	0.062218
35.77 	0.057766 	4951 	0.056346
35.79 	0.064882 	4932 	0.063101
35.81 	0.053720 	4933 	0.052889
35.83 	0.051759 	4946 	0.051048
35.85 	0.058967 	4935 	0.057542
35.87 	0.062563 	4923 	0.061235
35.89 	0.060397 	4934 	0.059329
35.91 	0.058859 	4927 	0.057789
35.93 	0.057642 	4927 	0.056928
35.95 	0.063250 	4917 	0.062297
35.97 	0.060057 	4912 	0.058984
35.99 	0.056287 	4939 	0.055694
36.01 	0.063895 	4930 	0.062449
36.03 	0.058669 	4943 	0.057721
36.05 	0.059252 	4945 	0.057830
36.07 	0.065803 	4939 	0.064854
36.09 	0.060121 	4940 	0.059410
36.11 	0.056401 	4929 	0.055549
36.13 	0.061109 	4942 	0.060497
36.15 	0.061146 	4939 	0.060197
36.17 	0.063959 	4925 	0.063246
36.19 	0.060729 	4940 	0.059662
36.21 	0.058633 	4929 	0.057682
36.23 	0.060588 	4935 	0.058570
36.25 	0.062133 	4941 	0.061303
36.27 	0.052792 	4925 	0.051840
36.29 	0.059420 	4931 	0.058074
36.31 	0.062906 	4928 	0.061836
36.33 	0.061626 	4933 	0.060557
36.35 	0.052140 	4929 	0.051546
36.37 	0.065204 	4923 	0.064252
36.39 	0.061776 	4921 	0.060943
36.41 	0.058619 	4896 	0.057164
36.43 	0.064123 	4928 	0.062816
36.45 	0.059635 	4930 	0.059397
36.47 	0.055713 	4936 	0.054882
36.49 	0.058478 	4942 	0.056918
36.51 	0.067302 	4933 	0.066233
36.53 	0.061501 	4943 	0.061027
36.55 	0.063325 	4927 	0.062373
36.57 	0.061411 	4934 	0.060204
36.59 	0.059729 	4939 	0.058523
36.61 	0.061245 	4931 	0.060532
36.63 	0.061245 	4931 	0.060532
36.65 	0.061841 	4932 	0.061128
36.67 	0.059838 	4930 	0.058768
36.69 	0.063705 	4929 	0.062160
36.71 	0.063402 	4921 	0.062211
36.73 	0.060102 	4925 	0.059031
36.75 	0.058859 	4944 	0.057655
36.77 	0.060378 	4919 	0.058810
36.79 	0.058931 	4921 	0.057503
36.81 	0.054312 	4916 	0.053240
36.83 	0.056968 	4915 	0.056134
36.85 	0.061658 	4898 	0.059744
36.87 	0.055421 	4944 	0.054828
36.89 	0.057567 	4916 	0.056495
36.91 	0.060919 	4941 	0.059970
36.93 	0.063083 	4930 	0.062489
36.95 	0.056963 	4933 	0.055776
36.97 	0.053709 	4934 	0.053115
36.99 	0.055117 	4935 	0.054286
37.01 	0.062842 	4933 	0.061398
37.03 	0.055443 	4924 	0.054729
37.05 	0.062310 	4927 	0.061596
37.07 	0.053698 	4935 	0.052986
37.09 	0.060877 	4928 	0.060045
37.11 	0.059777 	4935 	0.058689
37.13 	0.059911 	4924 	0.058245
37.15 	0.062131 	4909 	0.060580
37.17 	0.058168 	4934 	0.056268
37.19 	0.057056 	4925 	0.056104
37.21 	0.061216 	4917 	0.060144
37.23 	0.055714 	4918 	0.054761
37.25 	0.066382 	4911 	0.065547
37.27 	0.054761 	4894 	0.054162
37.29 	0.062677 	4930 	0.061252
37.31 	0.065248 	4935 	0.064180
37.33 	0.060077 	4927 	0.059007
37.35 	0.053260 	4938 	0.052430
37.37 	0.057439 	4927 	0.055893
37.39 	0.053742 	4931 	0.053148
37.41 	0.061042 	4931 	0.059835
37.43 	0.060016 	4932 	0.058571
37.45 	0.053818 	4924 	0.052985
37.47 	0.058835 	4929 	0.057528
37.49 	0.058501 	4923 	0.057787
37.51 	0.061018 	4933 	0.060305
37.53 	0.061395 	4919 	0.059489
37.55 	0.050507 	4930 	0.049438
37.57 	0.057462 	4925 	0.056986
37.59 	0.052899 	4915 	0.052184
37.61 	0.053434 	4922 	0.052719
37.63 	0.045538 	4919 	0.044942
37.65 	0.053477 	4918 	0.053001
37.67 	0.049959 	4904 	0.049481
37.69 	0.054716 	4898 	0.053401
37.71 	0.054169 	4929 	0.053694
37.73 	0.056401 	4929 	0.055688
37.75 	0.047368 	4940 	0.046301
37.77 	0.051220 	4920 	0.050267
37.79 	0.054767 	4930 	0.053797
37.81 	0.060612 	4933 	0.059781
37.83 	0.055285 	4920 	0.054570
37.85 	0.055872 	4922 	0.054443
37.87 	0.054262 	4939 	0.053669
37.89 	0.057259 	4925 	0.056069
37.91 	0.050304 	4930 	0.049829
37.93 	0.057939 	4919 	0.056510
37.95 	0.053444 	4921 	0.053206
37.97 	0.054169 	4929 	0.052862
37.99 	0.055782 	4912 	0.054947
38.01 	0.054789 	4928 	0.054195
38.03 	0.052353 	4909 	0.051398
38.05 	0.050558 	4925 	0.049845
38.07 	0.059483 	4909 	0.058767
38.09 	0.051251 	4878 	0.050650
38.11 	0.050456 	4935 	0.049625
38.13 	0.051651 	4937 	0.050702
38.15 	0.053884 	4918 	0.053169
38.17 	0.052333 	4930 	0.051501
38.19 	0.052941 	4930 	0.052109
38.21 	0.052407 	4923 	0.051555
38.23 	0.052045 	4938 	0.051215
38.25 	0.055725 	4917 	0.055010
38.27 	0.052738 	4930 	0.052025
38.29 	0.049959 	4924 	0.049107
38.31 	0.060077 	4927 	0.059007
38.33 	0.055646 	4924 	0.054813
38.35 	0.054789 	4928 	0.053600
38.37 	0.060926 	4924 	0.059717
38.39 	0.058464 	4909 	0.057271
38.41 	0.057282 	4923 	0.056449
38.43 	0.056550 	4916 	0.055716
38.45 	0.058967 	4918 	0.058252
38.47 	0.064805 	4907 	0.062995
38.49 	0.064179 	4877 	0.063698
38.51 	0.063260 	4932 	0.062310
38.53 	0.061879 	4929 	0.060928
38.55 	0.069287 	4936 	0.067981
38.57 	0.065001 	4923 	0.063692
38.59 	0.059301 	4924 	0.058112
38.61 	0.060575 	4936 	0.059507
38.63 	0.065800 	4924 	0.064016
38.65 	0.064864 	4918 	0.063673
38.67 	0.065019 	4937 	0.063595
38.69 	0.062779 	4922 	0.061351
38.71 	0.066409 	4924 	0.064843
38.73 	0.063237 	4918 	0.061689
38.75 	0.059062 	4927 	0.058349
38.77 	0.063985 	4923 	0.062676
38.79 	0.058979 	4934 	0.058147
38.81 	0.061889 	4912 	0.060935
38.83 	0.058548 	4919 	0.057338
38.85 	0.056393 	4912 	0.055677
38.87 	0.055793 	4911 	0.054839
38.89 	0.059220 	4897 	0.057904
38.91 	0.056904 	4903 	0.055829
38.93 	0.051640 	4938 	0.050573
38.95 	0.054087 	4918 	0.053611
38.97 	0.050294 	4931 	0.049225
38.99 	0.054284 	4937 	0.053572
39.01 	0.046564 	4918 	0.045849
39.03 	0.052493 	4934 	0.051781
39.05 	0.047310 	4925 	0.046834
39.07 	0.043867 	4924 	0.043391
39.09 	0.046110 	4923 	0.045634
39.11 	0.047658 	4931 	0.046707
39.13 	0.051798 	4923 	0.051560
39.15 	0.045575 	4915 	0.045098
39.17 	0.047802 	4937 	0.046972
39.19 	0.043726 	4917 	0.042892
39.21 	0.042770 	4910 	0.042293
39.23 	0.042843 	4925 	0.042129
39.25 	0.051402 	4922 	0.050807
39.27 	0.045621 	4910 	0.045383
39.29 	0.052234 	4901 	0.051278
39.31 	0.046683 	4884 	0.046443
39.33 	0.043399 	4931 	0.042924
39.35 	0.052077 	4935 	0.051009
39.37 	0.044431 	4929 	0.043837
39.39 	0.050923 	4929 	0.050329
39.41 	0.040965 	4931 	0.040490
39.43 	0.046422 	4933 	0.045591
39.45 	0.042640 	4925 	0.042164
39.47 	0.050376 	4923 	0.050257
39.49 	0.043787 	4933 	0.043430
39.51 	0.045491 	4924 	0.044659
39.53 	0.045907 	4923 	0.045550
39.55 	0.050010 	4919 	0.049534
39.57 	0.043989 	4933 	0.043277
39.59 	0.050489 	4912 	0.049892
39.61 	0.051188 	4923 	0.050474
39.63 	0.043885 	4922 	0.043647
39.65 	0.049533 	4926 	0.048820
39.67 	0.052514 	4913 	0.051798
39.69 	0.048413 	4916 	0.047937
39.71 	0.050460 	4895 	0.049861
39.73 	0.044010 	4908 	0.043532
39.75 	0.051136 	4928 	0.050185
39.77 	0.050861 	4935 	0.050030
39.79 	0.047097 	4926 	0.046384
39.81 	0.044652 	4927 	0.044176
39.83 	0.043373 	4934 	0.042898
39.85 	0.049726 	4927 	0.048775
39.87 	0.046497 	4925 	0.046260
39.89 	0.043170 	4934 	0.042339
39.91 	0.047542 	4922 	0.047304
39.93 	0.039295 	4937 	0.039058
39.95 	0.048627 	4915 	0.047654
39.97 	0.051339 	4928 	0.050745
39.99 	0.051298 	4932 	0.050941
40.01 	0.048597 	4918 	0.048121
40.03 	0.046469 	4928 	0.045994
40.05 	0.045963 	4917 	0.045606
40.07 	0.044688 	4923 	0.044212
40.09 	0.046176 	4916 	0.045818
40.11 	0.043531 	4916 	0.042816
40.13 	0.043913 	4896 	0.043315
40.15 	0.043965 	4913 	0.043011
40.17 	0.044034 	4928 	0.043202
40.19 	0.042605 	4929 	0.042605
40.21 	0.040932 	4935 	0.040932
40.23 	0.043390 	4932 	0.043153
40.25 	0.045122 	4920 	0.044527
40.27 	0.036864 	4937 	0.036153
40.29 	0.047899 	4927 	0.047543
40.31 	0.046366 	4939 	0.045516
40.33 	0.045215 	4932 	0.044977
40.35 	0.039642 	4919 	0.039404
40.37 	0.035910 	4929 	0.035553
40.39 	0.038735 	4931 	0.038141
40.41 	0.041015 	4925 	0.040658
40.43 	0.039618 	4922 	0.039142
40.45 	0.040949 	4933 	0.040474
40.47 	0.042497 	4918 	0.042259
40.49 	0.042834 	4926 	0.042477
40.51 	0.042056 	4922 	0.040985
40.53 	0.042514 	4916 	0.041799
40.55 	0.041972 	4908 	0.041256
40.57 	0.044990 	4890 	0.044630
40.59 	0.047600 	4937 	0.046769
40.61 	0.042958 	4935 	0.042365
40.63 	0.044625 	4930 	0.044149
40.65 	0.048005 	4937 	0.047056
40.67 	0.042174 	4932 	0.041560
40.69 	0.037270 	4937 	0.036795
40.71 	0.044201 	4932 	0.043726
40.73 	0.039789 	4926 	0.038838
40.75 	0.046035 	4931 	0.045204
40.77 	0.049403 	4939 	0.048454
40.79 	0.048944 	4924 	0.048587
40.81 	0.039466 	4941 	0.039229
40.83 	0.050528 	4928 	0.049696
40.85 	0.039196 	4924 	0.038839
40.87 	0.039570 	4928 	0.039213
40.89 	0.043399 	4931 	0.042924
40.91 	0.044688 	4923 	0.044212
40.93 	0.045197 	4934 	0.044722
40.95 	0.044779 	4913 	0.043945
40.97 	0.043867 	4924 	0.043272
40.99 	0.049350 	4924 	0.048636
41.01 	0.040309 	4912 	0.039713
41.03 	0.043833 	4905 	0.043475
41.05 	0.048420 	4936 	0.047826
41.07 	0.046247 	4930 	0.045535
41.09 	0.045151 	4939 	0.044439
41.11 	0.039311 	4935 	0.038718
41.13 	0.043558 	4936 	0.042727
41.15 	0.043918 	4941 	0.042950
41.17 	0.041548 	4934 	0.040836
41.19 	0.047465 	4930 	0.046870
41.21 	0.041928 	4937 	0.041810
41.23 	0.038672 	4939 	0.038316
41.25 	0.038313 	4933 	0.037482
41.27 	0.044413 	4931 	0.043819
41.29 	0.041599 	4928 	0.041480
41.31 	0.045611 	4933 	0.045255
41.33 	0.042739 	4937 	0.041651
41.35 	0.041312 	4938 	0.041075
41.37 	0.039805 	4924 	0.039329
41.39 	0.038719 	4933 	0.038006
41.41 	0.046285 	4926 	0.045928
41.43 	0.038547 	4929 	0.038072
41.45 	0.044567 	4914 	0.044090
41.47 	0.046285 	4926 	0.045552
41.49 	0.040679 	4892 	0.040200
41.51 	0.040486 	4940 	0.040249
41.53 	0.039442 	4944 	0.038968
41.55 	0.039919 	4935 	0.039800
41.57 	0.038859 	4941 	0.038621
41.59 	0.043989 	4933 	0.043158
41.61 	0.039976 	4953 	0.039621
41.63 	0.051843 	4938 	0.051012
41.65 	0.047068 	4929 	0.045999
41.67 	0.041296 	4940 	0.040584
41.69 	0.045078 	4947 	0.044486
41.71 	0.042359 	4934 	0.041647
41.73 	0.043760 	4936 	0.043285
41.75 	0.045242 	4929 	0.044648
41.77 	0.039870 	4941 	0.039515
41.79 	0.045105 	4944 	0.044276
41.81 	0.035454 	4936 	0.034623
41.83 	0.040381 	4928 	0.039549
41.85 	0.040899 	4939 	0.040069
41.87 	0.037893 	4935 	0.037893
41.89 	0.036286 	4933 	0.035811
41.91 	0.038290 	4936 	0.037459
41.93 	0.042376 	4932 	0.042020
41.95 	0.048063 	4931 	0.047707
41.97 	0.038462 	4914 	0.037866
41.99 	0.041182 	4905 	0.040346
42.01 	0.037030 	4942 	0.036555
42.03 	0.037659 	4939 	0.037066
42.05 	0.043619 	4952 	0.043146
42.07 	0.045169 	4937 	0.044339
42.09 	0.040622 	4948 	0.040031
42.11 	0.041052 	4945 	0.040222
42.13 	0.042669 	4945 	0.042077
42.15 	0.037870 	4938 	0.037514
42.17 	0.034364 	4918 	0.034006
42.19 	0.044825 	4908 	0.044228
42.21 	0.041624 	4901 	0.041624
42.23 	0.045585 	4892 	0.045345
42.25 	0.038658 	4889 	0.037939
42.27 	0.041855 	4874 	0.041735
42.29 	0.041333 	4863 	0.040971
42.31 	0.038929 	4855 	0.038567
42.33 	0.039926 	4834 	0.039320
42.35 	0.043820 	4838 	0.043457
42.37 	0.041822 	4830 	0.041701
42.39 	0.038718 	4804 	0.038352
42.41 	0.040799 	4804 	0.040190
42.43 	0.042988 	4792 	0.041990
42.45 	0.039782 	4776 	0.039414
42.47 	0.042602 	4765 	0.041865
42.49 	0.035467 	4765 	0.035221
42.51 	0.043222 	4743 	0.042728
42.53 	0.038917 	4728 	0.038422
42.55 	0.039932 	4708 	0.039310
42.57 	0.042706 	4730 	0.041839
42.59 	0.036371 	4729 	0.035628
42.61 	0.038445 	4708 	0.038196
42.63 	0.037588 	4709 	0.037090
42.65 	0.042263 	4685 	0.042012
42.67 	0.043980 	4684 	0.043604
42.69 	0.043646 	4674 	0.043270
42.71 	0.043320 	4663 	0.042440
42.73 	0.038147 	4640 	0.037894
42.75 	0.040936 	4617 	0.040428
42.77 	0.039348 	4600 	0.038966
42.79 	0.041685 	4582 	0.041173
42.81 	0.042087 	4562 	0.041830
42.83 	0.032848 	4536 	0.032719
42.85 	0.040415 	4528 	0.039898
42.87 	0.045566 	4499 	0.044784
42.89 	0.039732 	4480 	0.038948
42.91 	0.041068 	4456 	0.040674
42.93 	0.044534 	4446 	0.043876
42.95 	0.038723 	4416 	0.038325
42.97 	0.043626 	4401 	0.043360
42.99 	0.045154 	4385 	0.044219
43.01 	0.041714 	4363 	0.041177
43.03 	0.043157 	4333 	0.042346
43.05 	0.034451 	4325 	0.033909
43.07 	0.042598 	4296 	0.041916
43.09 	0.034555 	4283 	0.034145
43.11 	0.036663 	4255 	0.036112
43.13 	0.035402 	4237 	0.034711
43.15 	0.044460 	4206 	0.044182
43.17 	0.039244 	4179 	0.038683
43.19 	0.041488 	4194 	0.040929
43.21 	0.041467 	4172 	0.040484
43.23 	0.039480 	4154 	0.039057
43.25 	0.041596 	4135 	0.040888
43.27 	0.034836 	4105 	0.034265
43.29 	0.040976 	4100 	0.039833
43.31 	0.041922 	4079 	0.041204
43.33 	0.036040 	4051 	0.035462
43.35 	0.039683 	4032 	0.039537
43.37 	0.041345 	4015 	0.040737
43.39 	0.044478 	4002 	0.043746
43.41 	0.043303 	3972 	0.043008
43.43 	0.036616 	3960 	0.035581
43.45 	0.042440 	3935 	0.041546
43.47 	0.043356 	3921 	0.042609
43.49 	0.043110 	3897 	0.042659
43.51 	0.038690 	3877 	0.037934
43.53 	0.042713 	3863 	0.042561
43.55 	0.042510 	2964 	0.042312
43.57 	0.040661 	2238 	0.040400
43.59 	0.037228 	1746 	0.036892
43.61 	0.044412 	1351 	0.044412
43.63 	0.040959 	1001 	0.040959
43.65 	0.048035 	687 	0.047182
43.67 	0.033865 	502 	0.031531
43.69 	0.043597 	367 	0.043597
43.71 	0.066946 	239 	0.064495
43.73 	0.050000 	120 	0.050000
43.75 	0.062500 	16 	0.062500