File: Example_Data/25SC_s1_0020.004.dat
#F C:\frames\spec\25SC_s1_0020.004
#C title =s:20 frm:4 25SC_s1
#C wavelength =0.15406

#S 1  fr_average C:\frames\spec\25SC_s1_0020.004 C:\win32app\speccom\mask.axs chi 0 180 0 360 0.02
#C 2 theta =0.000000 to 180 deg
#C   q   =0.000000 to 81.568 nm^-1
#C  chi  =0.000000 to 360 deg
#C collumns:
#C  1 position (2theta or chi in degrees)
#C  2 average intensity (sum of all counts in the region divided with number of pixels)
#C  3 Number of pixels in region)
#C  4 error (sum of sqrt(intensity) for all pixels divided by number)
#N 4
#L TTh  Int  N_pix  Err
32.99 	0.081967 	61 	0.081967
33.01 	0.066438 	873 	0.065096
33.03 	0.065421 	1391 	0.064157
33.05 	0.059192 	1757 	0.058858
33.07 	0.057561 	2050 	0.056704
33.09 	0.061781 	2347 	0.060783
33.11 	0.060489 	2579 	0.059353
33.13 	0.061224 	2793 	0.060595
33.15 	0.053351 	2999 	0.051984
33.17 	0.059669 	3201 	0.059486
33.19 	0.059246 	3342 	0.058370
33.21 	0.066356 	3436 	0.066015
33.23 	0.059608 	3523 	0.058943
33.25 	0.051218 	3612 	0.050569
33.27 	0.058402 	3630 	0.057730
33.29 	0.056743 	3648 	0.055941
33.31 	0.064208 	3660 	0.062741
33.33 	0.058600 	3686 	0.057170
33.35 	0.062805 	3694 	0.061219
33.37 	0.053312 	3714 	0.052839
33.39 	0.057924 	3729 	0.056982
33.41 	0.059893 	3740 	0.058301
33.43 	0.057697 	3761 	0.056763
33.45 	0.054864 	3773 	0.054217
33.47 	0.058715 	3798 	0.057147
33.49 	0.061171 	3809 	0.059454
33.51 	0.057667 	3815 	0.056285
33.53 	0.056235 	3841 	0.055320
33.55 	0.059589 	3843 	0.058192
33.57 	0.059582 	3877 	0.058373
33.59 	0.061340 	3880 	0.060887
33.61 	0.060885 	3909 	0.059536
33.63 	0.060985 	3919 	0.059789
33.65 	0.059781 	3931 	0.059334
33.67 	0.061204 	3954 	0.059846
33.69 	0.058437 	3953 	0.057399
33.71 	0.067170 	3975 	0.065844
33.73 	0.060190 	4004 	0.059312
33.75 	0.060515 	3999 	0.059490
33.77 	0.059130 	4025 	0.057821
33.79 	0.061371 	4041 	0.060646
33.81 	0.060921 	4038 	0.060051
33.83 	0.059753 	4050 	0.059030
33.85 	0.056843 	4099 	0.055986
33.87 	0.069569 	4111 	0.067575
33.89 	0.055812 	4121 	0.054675
33.91 	0.060014 	4149 	0.059026
33.93 	0.064081 	4151 	0.062388
33.95 	0.069840 	4181 	0.068439
33.97 	0.061575 	4190 	0.060294
33.99 	0.057381 	4200 	0.056661
34.01 	0.064562 	4213 	0.064423
34.03 	0.062677 	4244 	0.061251
34.05 	0.061618 	4252 	0.060654
34.07 	0.064199 	4268 	0.063375
34.09 	0.063462 	4286 	0.061663
34.11 	0.058810 	4302 	0.057040
34.13 	0.065924 	4308 	0.064972
34.15 	0.064188 	4331 	0.062701
34.17 	0.062989 	4350 	0.061911
34.19 	0.057542 	4362 	0.057140
34.21 	0.063601 	4371 	0.062261
34.23 	0.065786 	4393 	0.063764
34.25 	0.058356 	4404 	0.057824
34.27 	0.064450 	4422 	0.062972
34.29 	0.060428 	4435 	0.058976
34.31 	0.057425 	4458 	0.056899
34.33 	0.063744 	4471 	0.062958
34.35 	0.065789 	4484 	0.064875
34.37 	0.060788 	4491 	0.058962
34.39 	0.057308 	4502 	0.056918
34.41 	0.059434 	4526 	0.059046
34.43 	0.058163 	4539 	0.057259
34.45 	0.059096 	4535 	0.058063
34.47 	0.060322 	4592 	0.059174
34.49 	0.055688 	4597 	0.055434
34.51 	0.063396 	4606 	0.061742
34.53 	0.054060 	4643 	0.053177
34.55 	0.060952 	4643 	0.059816
34.57 	0.065451 	4660 	0.063816
34.59 	0.062674 	4675 	0.061922
34.61 	0.061742 	4697 	0.060599
34.63 	0.058599 	4710 	0.058350
34.65 	0.063334 	4721 	0.061825
34.67 	0.060536 	4741 	0.059424
34.69 	0.060370 	4754 	0.059241
34.71 	0.059589 	4766 	0.058237
34.73 	0.059536 	4787 	0.058924
34.75 	0.062396 	4808 	0.061138
34.77 	0.058531 	4818 	0.057558
34.79 	0.054726 	4824 	0.054342
34.81 	0.058411 	4845 	0.057323
34.83 	0.056355 	4862 	0.055633
34.85 	0.060177 	4869 	0.059214
34.87 	0.059778 	4868 	0.058695
34.89 	0.061655 	4882 	0.060455
34.91 	0.058378 	4882 	0.057538
34.93 	0.051643 	4899 	0.050806
34.95 	0.066871 	4890 	0.065074
34.97 	0.066299 	4902 	0.065224
34.99 	0.065755 	4897 	0.064678
35.01 	0.059517 	4923 	0.058684
35.03 	0.055634 	4943 	0.055160
35.05 	0.060845 	4947 	0.059542
35.07 	0.055668 	4940 	0.054818
35.09 	0.055522 	4953 	0.054931
35.11 	0.061856 	4947 	0.061145
35.13 	0.054457 	4958 	0.053630
35.15 	0.062589 	4937 	0.061758
35.17 	0.057420 	4946 	0.056710
35.19 	0.055645 	4942 	0.055408
35.21 	0.057836 	4945 	0.056296
35.23 	0.061072 	4945 	0.060243
35.25 	0.059073 	4943 	0.058125
35.27 	0.061843 	4948 	0.060640
35.29 	0.059858 	4945 	0.059029
35.31 	0.056355 	4933 	0.055405
35.33 	0.063120 	4943 	0.062033
35.35 	0.063132 	4942 	0.062184
35.37 	0.064386 	4939 	0.062844
35.39 	0.065925 	4945 	0.064484
35.41 	0.054405 	4926 	0.053454
35.43 	0.053112 	4933 	0.052399
35.45 	0.059753 	4937 	0.058665
35.47 	0.061042 	4931 	0.060211
35.49 	0.058656 	4910 	0.057940
35.51 	0.056841 	4926 	0.055771
35.53 	0.061831 	4949 	0.060765
35.55 	0.064510 	4945 	0.063325
35.57 	0.060409 	4933 	0.059816
35.59 	0.059050 	4945 	0.058220
35.61 	0.056455 	4942 	0.054914
35.63 	0.059276 	4943 	0.058427
35.65 	0.059858 	4945 	0.059266
35.67 	0.063739 	4942 	0.062554
35.69 	0.061868 	4946 	0.061276
35.71 	0.052258 	4937 	0.051309
35.73 	0.058752 	4936 	0.057447
35.75 	0.066518 	4931 	0.065429
35.77 	0.057160 	4951 	0.056332
35.79 	0.057380 	4932 	0.056905
35.81 	0.060409 	4933 	0.059341
35.83 	0.060655 	4946 	0.059589
35.85 	0.057345 	4935 	0.056871
35.87 	0.058907 	4923 	0.057955
35.89 	0.058776 	4934 	0.058063
35.91 	0.054394 	4927 	0.053562
35.93 	0.057439 	4927 	0.056369
35.95 	0.056132 	4917 	0.055040
35.97 	0.058225 	4912 	0.057271
35.99 	0.061956 	4939 	0.060513
36.01 	0.057606 	4930 	0.056299
36.03 	0.063524 	4943 	0.062695
36.05 	0.061072 	4945 	0.060243
36.07 	0.058311 	4939 	0.057244
36.09 	0.063158 	4940 	0.061715
36.11 	0.060661 	4929 	0.058978
36.13 	0.055645 	4942 	0.054579
36.15 	0.059121 	4939 	0.058172
36.17 	0.057462 	4925 	0.056986
36.19 	0.059312 	4940 	0.058245
36.21 	0.057010 	4929 	0.056296
36.23 	0.053901 	4935 	0.052476
36.25 	0.061324 	4941 	0.060494
36.27 	0.053401 	4925 	0.051855
36.29 	0.059014 	4931 	0.057450
36.31 	0.062703 	4928 	0.061871
36.33 	0.054733 	4933 	0.053665
36.35 	0.059647 	4929 	0.059053
36.37 	0.061548 	4923 	0.060239
36.39 	0.058728 	4921 	0.057895
36.41 	0.052900 	4896 	0.051704
36.43 	0.055601 	4928 	0.055363
36.45 	0.053550 	4930 	0.052480
36.47 	0.059562 	4936 	0.058257
36.49 	0.064953 	4942 	0.063492
36.51 	0.055950 	4933 	0.055237
36.53 	0.055432 	4943 	0.054958
36.55 	0.061498 	4927 	0.060309
36.57 	0.055533 	4934 	0.054208
36.59 	0.058919 	4939 	0.057851
36.61 	0.058000 	4931 	0.056694
36.63 	0.060637 	4931 	0.059805
36.65 	0.057989 	4932 	0.057276
36.67 	0.061055 	4930 	0.060223
36.69 	0.055792 	4929 	0.054941
36.71 	0.059134 	4921 	0.057448
36.73 	0.060102 	4925 	0.058793
36.75 	0.064320 	4944 	0.063491
36.77 	0.056719 	4919 	0.055647
36.79 	0.052428 	4921 	0.051357
36.81 	0.054719 	4916 	0.054362
36.83 	0.054527 	4915 	0.054050
36.85 	0.052879 	4898 	0.052281
36.87 	0.054814 	4944 	0.053985
36.89 	0.056143 	4916 	0.055071
36.91 	0.057681 	4941 	0.056594
36.93 	0.054970 	4930 	0.054375
36.95 	0.056355 	4933 	0.055643
36.97 	0.057357 	4934 	0.056407
36.99 	0.053090 	4935 	0.052259
37.01 	0.058382 	4933 	0.057195
37.03 	0.048741 	4924 	0.047908
37.05 	0.058453 	4927 	0.057859
37.07 	0.054509 	4935 	0.053796
37.09 	0.055398 	4928 	0.054566
37.11 	0.052888 	4935 	0.052175
37.13 	0.050569 	4924 	0.050093
37.15 	0.059483 	4909 	0.058528
37.17 	0.055533 	4934 	0.054939
37.19 	0.053807 	4925 	0.052737
37.21 	0.055928 	4917 	0.054737
37.23 	0.050834 	4918 	0.050476
37.25 	0.057626 	4911 	0.057149
37.27 	0.051083 	4894 	0.050006
37.29 	0.056592 	4930 	0.055048
37.31 	0.056738 	4935 	0.055907
37.33 	0.050944 	4927 	0.049874
37.35 	0.056298 	4938 	0.055230
37.37 	0.060889 	4927 	0.059819
37.39 	0.059014 	4931 	0.058183
37.41 	0.052525 	4931 	0.051574
37.43 	0.060624 	4932 	0.059318
37.45 	0.055443 	4924 	0.054967
37.47 	0.053763 	4929 	0.053288
37.49 	0.055048 	4923 	0.054334
37.51 	0.056355 	4933 	0.055148
37.53 	0.050010 	4919 	0.048938
37.55 	0.056389 	4930 	0.055677
37.57 	0.054416 	4925 	0.053703
37.59 	0.050458 	4915 	0.049624
37.61 	0.051808 	4922 	0.050261
37.63 	0.050213 	4919 	0.050094
37.65 	0.059984 	4918 	0.058912
37.67 	0.051998 	4904 	0.051401
37.69 	0.054512 	4898 	0.053675
37.71 	0.053561 	4929 	0.052966
37.73 	0.054981 	4929 	0.054149
37.75 	0.056883 	4940 	0.055697
37.77 	0.045935 	4920 	0.045578
37.79 	0.052535 	4930 	0.051328
37.81 	0.048855 	4933 	0.048023
37.83 	0.056504 	4920 	0.055909
37.85 	0.059529 	4922 	0.058577
37.87 	0.059729 	4939 	0.058780
37.89 	0.056041 	4925 	0.055188
37.91 	0.051927 	4930 	0.050719
37.93 	0.056719 	4919 	0.055885
37.95 	0.054257 	4921 	0.053662
37.97 	0.058024 	4929 	0.056954
37.99 	0.056596 	4912 	0.056000
38.01 	0.057224 	4928 	0.055620
38.03 	0.055001 	4909 	0.053808
38.05 	0.055025 	4925 	0.054787
38.07 	0.052964 	4909 	0.052009
38.09 	0.056171 	4878 	0.054970
38.11 	0.060993 	4935 	0.060043
38.13 	0.058740 	4937 	0.058266
38.15 	0.060797 	4918 	0.059586
38.17 	0.065923 	4930 	0.064953
38.19 	0.061866 	4930 	0.061153
38.21 	0.058907 	4923 	0.057698
38.23 	0.062778 	4938 	0.061948
38.25 	0.064063 	4917 	0.063110
38.27 	0.060649 	4930 	0.060174
38.29 	0.063769 	4924 	0.062223
38.31 	0.062716 	4927 	0.061170
38.33 	0.064582 	4924 	0.063630
38.35 	0.069602 	4928 	0.069008
38.37 	0.064785 	4924 	0.063000
38.39 	0.065390 	4909 	0.063958
38.41 	0.063782 	4923 	0.062830
38.43 	0.064280 	4916 	0.063446
38.45 	0.060187 	4918 	0.058877
38.47 	0.064194 	4907 	0.063000
38.49 	0.068075 	4877 	0.067094
38.51 	0.061030 	4932 	0.059842
38.53 	0.061270 	4929 	0.060795
38.55 	0.063412 	4936 	0.062462
38.57 	0.060532 	4923 	0.059342
38.59 	0.062348 	4924 	0.061396
38.61 	0.066248 	4936 	0.064824
38.63 	0.062348 	4924 	0.060563
38.65 	0.056120 	4918 	0.055048
38.67 	0.061171 	4937 	0.060340
38.69 	0.055262 	4922 	0.054310
38.71 	0.060723 	4924 	0.059771
38.73 	0.060797 	4918 	0.059963
38.75 	0.056830 	4927 	0.055760
38.77 	0.052407 	4923 	0.051931
38.79 	0.055533 	4934 	0.054346
38.81 	0.062704 	4912 	0.060895
38.83 	0.052246 	4919 	0.051413
38.85 	0.053746 	4912 	0.052911
38.87 	0.057626 	4911 	0.057268
38.89 	0.051256 	4897 	0.050658
38.91 	0.052825 	4903 	0.051988
38.93 	0.053665 	4938 	0.052598
38.95 	0.054494 	4918 	0.054255
38.97 	0.056175 	4931 	0.055225
38.99 	0.049423 	4937 	0.049067
39.01 	0.055917 	4918 	0.055083
39.03 	0.048845 	4934 	0.048132
39.05 	0.048528 	4925 	0.047438
39.07 	0.056052 	4924 	0.054981
39.09 	0.052407 	4923 	0.051812
39.11 	0.058203 	4931 	0.057134
39.13 	0.053016 	4923 	0.052422
39.15 	0.056358 	4915 	0.054928
39.17 	0.052664 	4937 	0.051833
39.19 	0.049624 	4917 	0.048790
39.21 	0.051120 	4910 	0.050762
39.23 	0.055025 	4925 	0.053598
39.25 	0.055262 	4922 	0.054310
39.27 	0.052342 	4910 	0.051149
39.29 	0.051214 	4901 	0.050358
39.31 	0.058559 	4884 	0.057959
39.33 	0.051511 	4931 	0.050679
39.35 	0.054711 	4935 	0.053999
39.37 	0.057618 	4929 	0.056410
39.39 	0.050314 	4929 	0.049225
39.41 	0.054756 	4931 	0.053924
39.43 	0.054531 	4933 	0.053937
39.45 	0.050761 	4925 	0.050167
39.47 	0.050985 	4923 	0.050628
39.49 	0.052706 	4933 	0.052113
39.51 	0.058286 	4924 	0.057334
39.53 	0.054438 	4923 	0.054062
39.55 	0.052653 	4919 	0.052177
39.57 	0.054936 	4933 	0.053630
39.59 	0.057614 	4912 	0.056779
39.61 	0.052610 	4923 	0.051658
39.63 	0.055059 	4922 	0.054345
39.65 	0.055623 	4926 	0.054890
39.67 	0.053124 	4913 	0.052767
39.69 	0.056143 	4916 	0.055170
39.71 	0.053115 	4895 	0.052517
39.73 	0.047881 	4908 	0.047523
39.75 	0.056006 	4928 	0.055412
39.77 	0.054509 	4935 	0.053678
39.79 	0.057044 	4926 	0.055974
39.81 	0.054394 	4927 	0.052829
39.83 	0.057154 	4934 	0.055967
39.85 	0.057439 	4927 	0.056487
39.87 	0.057665 	4925 	0.056713
39.89 	0.062627 	4934 	0.061677
39.91 	0.056278 	4922 	0.055564
39.93 	0.055904 	4937 	0.054916
39.95 	0.051679 	4915 	0.051321
39.97 	0.061080 	4928 	0.060010
39.99 	0.052109 	4932 	0.050921
40.01 	0.057544 	4918 	0.056829
40.03 	0.051948 	4928 	0.050383
40.05 	0.053081 	4917 	0.052466
40.07 	0.055048 	4923 	0.053977
40.09 	0.054923 	4916 	0.053712
40.11 	0.051871 	4916 	0.050799
40.13 	0.052288 	4896 	0.051152
40.15 	0.051496 	4913 	0.051138
40.17 	0.060471 	4928 	0.059639
40.19 	0.058835 	4929 	0.057627
40.21 	0.053293 	4935 	0.052343
40.23 	0.050284 	4932 	0.049452
40.25 	0.048171 	4920 	0.047456
40.27 	0.057120 	4937 	0.056408
40.29 	0.049726 	4927 	0.048537
40.31 	0.051832 	4939 	0.051002
40.33 	0.060016 	4932 	0.058235
40.35 	0.054686 	4919 	0.053852
40.37 	0.057415 	4929 	0.056465
40.39 	0.050700 	4931 	0.049492
40.41 	0.047919 	4925 	0.047443
40.43 	0.058513 	4922 	0.057561
40.45 	0.055544 	4933 	0.054713
40.47 	0.058764 	4918 	0.057533
40.49 	0.051157 	4926 	0.050444
40.51 	0.052418 	4922 	0.051704
40.53 	0.051058 	4916 	0.049866
40.55 	0.042584 	4908 	0.042106
40.57 	0.050920 	4890 	0.049962
40.59 	0.051246 	4937 	0.050178
40.61 	0.052482 	4935 	0.051770
40.63 	0.054361 	4930 	0.052916
40.65 	0.057727 	4937 	0.056640
40.67 	0.053122 	4932 	0.051678
40.69 	0.051246 	4937 	0.050396
40.71 	0.055961 	4932 	0.055367
40.73 	0.051563 	4926 	0.050850
40.75 	0.055364 	4931 	0.054889
40.77 	0.055072 	4939 	0.054360
40.79 	0.053412 	4924 	0.052560
40.81 	0.045537 	4941 	0.045063
40.83 	0.051136 	4928 	0.049809
40.85 	0.053209 	4924 	0.052495
40.87 	0.048701 	4928 	0.047869
40.89 	0.050497 	4931 	0.049784
40.91 	0.051798 	4923 	0.051084
40.93 	0.049453 	4934 	0.048384
40.95 	0.056992 	4913 	0.056157
40.97 	0.053412 	4924 	0.052817
40.99 	0.055443 	4924 	0.054253
41.01 	0.044178 	4912 	0.042866
41.03 	0.049949 	4905 	0.049471
41.05 	0.055308 	4936 	0.054477
41.07 	0.048884 	4930 	0.048171
41.09 	0.054464 	4939 	0.053516
41.11 	0.049037 	4935 	0.048088
41.13 	0.054295 	4936 	0.053326
41.15 	0.043311 	4941 	0.042955
41.17 	0.049453 	4934 	0.049097
41.19 	0.047667 	4930 	0.047430
41.21 	0.047195 	4937 	0.046364
41.23 	0.048795 	4939 	0.047728
41.25 	0.047436 	4933 	0.047198
41.27 	0.048266 	4931 	0.047316
41.29 	0.055601 	4928 	0.054412
41.31 	0.047030 	4933 	0.046555
41.33 	0.053474 	4937 	0.052762
41.35 	0.046578 	4938 	0.045728
41.37 	0.053209 	4924 	0.052376
41.39 	0.048247 	4933 	0.047890
41.41 	0.052375 	4926 	0.051424
41.43 	0.054169 	4929 	0.053218
41.45 	0.052707 	4914 	0.051733
41.47 	0.044864 	4926 	0.044507
41.49 	0.054988 	4892 	0.053910
41.51 	0.053644 	4940 	0.052676
41.53 	0.044701 	4944 	0.044089
41.55 	0.047011 	4935 	0.046536
41.57 	0.051407 	4941 	0.050814
41.59 	0.054125 	4933 	0.053294
41.61 	0.052292 	4953 	0.051700
41.63 	0.055083 	4938 	0.054015
41.65 	0.052140 	4929 	0.051427
41.67 	0.047976 	4940 	0.047264
41.69 	0.054376 	4947 	0.053666
41.71 	0.053912 	4934 	0.052606
41.73 	0.043558 	4936 	0.042707
41.75 	0.051938 	4929 	0.051700
41.77 	0.048573 	4941 	0.047862
41.79 	0.047735 	4944 	0.047024
41.81 	0.049838 	4936 	0.049245
41.83 	0.051136 	4928 	0.050423
41.85 	0.048998 	4939 	0.048504
41.87 	0.047619 	4935 	0.046907
41.89 	0.053112 	4933 	0.052123
41.91 	0.047812 	4936 	0.047100
41.93 	0.053122 	4932 	0.052410
41.95 	0.045224 	4931 	0.044630
41.97 	0.044567 	4914 	0.044447
41.99 	0.046483 	4905 	0.046125
42.01 	0.042695 	4942 	0.042458
42.03 	0.047783 	4939 	0.047190
42.05 	0.050283 	4952 	0.049573
42.07 	0.044561 	4937 	0.043850
42.09 	0.048100 	4948 	0.047153
42.11 	0.049545 	4945 	0.048578
42.13 	0.048332 	4945 	0.047502
42.15 	0.045768 	4938 	0.045412
42.17 	0.047987 	4918 	0.047511
42.19 	0.052160 	4908 	0.051444
42.21 	0.045705 	4901 	0.044849
42.23 	0.051922 	4892 	0.051083
42.25 	0.045613 	4889 	0.045133
42.27 	0.045548 	4874 	0.045187
42.29 	0.045856 	4863 	0.045013
42.31 	0.042636 	4855 	0.042516
42.33 	0.049235 	4834 	0.048265
42.35 	0.047540 	4838 	0.047056
42.37 	0.041408 	4830 	0.040680
42.39 	0.048501 	4804 	0.047648
42.41 	0.047044 	4804 	0.046313
42.43 	0.045075 	4792 	0.044708
42.45 	0.043132 	4776 	0.042519
42.47 	0.049738 	4765 	0.049615
42.49 	0.050367 	4765 	0.049507
42.51 	0.042800 	4743 	0.042429
42.53 	0.041667 	4728 	0.041295
42.55 	0.051827 	4708 	0.050831
42.57 	0.047780 	4730 	0.047285
42.59 	0.048636 	4729 	0.048017
42.61 	0.045242 	4708 	0.044869
42.63 	0.047356 	4709 	0.046859
42.65 	0.050374 	4685 	0.049248
42.67 	0.052946 	4684 	0.052071
42.69 	0.048994 	4674 	0.048242
42.71 	0.044821 	4663 	0.043816
42.73 	0.048707 	4640 	0.048328
42.75 	0.048300 	4617 	0.047792
42.77 	0.045652 	4600 	0.044633
42.79 	0.046704 	4582 	0.046065
42.81 	0.043621 	4562 	0.043236
42.83 	0.043210 	4536 	0.042952
42.85 	0.045053 	4528 	0.044536
42.87 	0.045343 	4499 	0.044692
42.89 	0.045982 	4480 	0.045067
42.91 	0.046230 	4456 	0.045704
42.93 	0.051282 	4446 	0.050492
42.95 	0.039855 	4416 	0.039192
42.97 	0.047944 	4401 	0.047411
42.99 	0.045610 	4385 	0.044809
43.01 	0.047903 	4363 	0.046963
43.03 	0.042234 	4333 	0.041558
43.05 	0.046012 	4325 	0.045470
43.07 	0.050512 	4296 	0.049694
43.09 	0.046463 	4283 	0.045505
43.11 	0.041833 	4255 	0.041420
43.13 	0.046495 	4237 	0.046080
43.15 	0.044460 	4206 	0.043903
43.17 	0.052883 	4179 	0.051622
43.19 	0.050548 	4194 	0.049710
43.21 	0.050096 	4172 	0.048973
43.23 	0.049109 	4154 	0.048122
43.25 	0.045466 	4135 	0.045041
43.27 	0.045554 	4105 	0.045269
43.29 	0.052195 	4100 	0.051052
43.31 	0.053690 	4079 	0.052684
43.33 	0.044433 	4051 	0.043687
43.35 	0.047123 	4032 	0.046251
43.37 	0.049813 	4015 	0.049084
43.39 	0.049225 	4002 	0.048494
43.41 	0.043051 	3972 	0.042609
43.43 	0.047980 	3960 	0.047536
43.45 	0.050318 	3935 	0.049276
43.47 	0.047437 	3921 	0.046690
43.49 	0.047472 	3897 	0.046571
43.51 	0.046944 	3877 	0.046188
43.53 	0.049185 	3863 	0.048426
43.55 	0.049595 	2964 	0.048409
43.57 	0.035299 	2238 	0.035299
43.59 	0.048683 	1746 	0.047341
43.61 	0.054034 	1351 	0.052733
43.63 	0.045954 	1001 	0.044784
43.65 	0.037846 	687 	0.037846
43.67 	0.045817 	502 	0.043483
43.69 	0.049046 	367 	0.049046
43.71 	0.054393 	239 	0.054393
43.73 	0.025000 	120 	0.025000
43.75 	0.062500 	16 	0.062500