File: Example_Data/25SC_s1_0037.003.dat
#F C:\frames\spec\25SC_s1_0037.003
#C title =s:37 frm:3 25SC_s1
#C wavelength =0.15406

#S 1  fr_average C:\frames\spec\25SC_s1_0037.003 C:\win32app\speccom\mask.axs chi 0 180 0 360 0.02
#C 2 theta =0.000000 to 180 deg
#C   q   =0.000000 to 81.568 nm^-1
#C  chi  =0.000000 to 360 deg
#C collumns:
#C  1 position (2theta or chi in degrees)
#C  2 average intensity (sum of all counts in the region divided with number of pixels)
#C  3 Number of pixels in region)
#C  4 error (sum of sqrt(intensity) for all pixels divided by number)
#N 4
#L TTh  Int  N_pix  Err
32.99 	0.032787 	61 	0.032787
33.01 	0.074456 	873 	0.072443
33.03 	0.066139 	1391 	0.064876
33.05 	0.056346 	1757 	0.055346
33.07 	0.053171 	2050 	0.052313
33.09 	0.065190 	2347 	0.063942
33.11 	0.060489 	2579 	0.059580
33.13 	0.059076 	2793 	0.058237
33.15 	0.057686 	2999 	0.057100
33.17 	0.059669 	3201 	0.058754
33.19 	0.052962 	3342 	0.052436
33.21 	0.060244 	3436 	0.059222
33.23 	0.061028 	3523 	0.059365
33.25 	0.054817 	3612 	0.054006
33.27 	0.057576 	3630 	0.056930
33.29 	0.053180 	3648 	0.052377
33.31 	0.060929 	3660 	0.060609
33.33 	0.061584 	3686 	0.060631
33.35 	0.063617 	3694 	0.062031
33.37 	0.056543 	3714 	0.055097
33.39 	0.057924 	3729 	0.057453
33.41 	0.060428 	3740 	0.058705
33.43 	0.055304 	3761 	0.054370
33.45 	0.054333 	3773 	0.053712
33.47 	0.058978 	3798 	0.057590
33.49 	0.059071 	3809 	0.058148
33.51 	0.061075 	3815 	0.059539
33.53 	0.053111 	3841 	0.051586
33.55 	0.061150 	3843 	0.059931
33.57 	0.062677 	3877 	0.061469
33.59 	0.062113 	3880 	0.060881
33.61 	0.061141 	3909 	0.059917
33.63 	0.059199 	3919 	0.058152
33.65 	0.061308 	3931 	0.059793
33.67 	0.069803 	3954 	0.068593
33.69 	0.065520 	3953 	0.064038
33.71 	0.064403 	3975 	0.062487
33.73 	0.064685 	4004 	0.064246
33.75 	0.058765 	3999 	0.057739
33.77 	0.054907 	4025 	0.053888
33.79 	0.062608 	4041 	0.060869
33.81 	0.069341 	4038 	0.068036
33.83 	0.060000 	4050 	0.058988
33.85 	0.061966 	4099 	0.060966
33.87 	0.058866 	4111 	0.058012
33.89 	0.059209 	4121 	0.058498
33.91 	0.067245 	4149 	0.065833
33.93 	0.061190 	4151 	0.059779
33.95 	0.055967 	4181 	0.055127
33.97 	0.059666 	4190 	0.058827
33.99 	0.062143 	4200 	0.061445
34.01 	0.064562 	4213 	0.063589
34.03 	0.057022 	4244 	0.055779
34.05 	0.053387 	4252 	0.052560
34.07 	0.066542 	4268 	0.064483
34.09 	0.055763 	4286 	0.054670
34.11 	0.061134 	4302 	0.060862
34.13 	0.064299 	4308 	0.063483
34.15 	0.061649 	4331 	0.060837
34.17 	0.057701 	4350 	0.056624
34.19 	0.061669 	4362 	0.060997
34.21 	0.058797 	4371 	0.057859
34.23 	0.062144 	4393 	0.060944
34.25 	0.057675 	4404 	0.056722
34.27 	0.064450 	4422 	0.063391
34.29 	0.062232 	4435 	0.061044
34.31 	0.052939 	4458 	0.052282
34.33 	0.056811 	4471 	0.056024
34.35 	0.054193 	4484 	0.053409
34.37 	0.059007 	4491 	0.057703
34.39 	0.057530 	4502 	0.055838
34.41 	0.055236 	4526 	0.054201
34.43 	0.062789 	4539 	0.061628
34.45 	0.055568 	4535 	0.054793
34.47 	0.055314 	4592 	0.054293
34.49 	0.058081 	4597 	0.057062
34.51 	0.055580 	4606 	0.055325
34.53 	0.056860 	4643 	0.055977
34.55 	0.052121 	4643 	0.051238
34.57 	0.062876 	4660 	0.062247
34.59 	0.060535 	4675 	0.059386
34.61 	0.058122 	4697 	0.056626
34.63 	0.062208 	4710 	0.061213
34.65 	0.053167 	4721 	0.052174
34.67 	0.055263 	4741 	0.054274
34.69 	0.056584 	4754 	0.055845
34.71 	0.054133 	4766 	0.053027
34.73 	0.056194 	4787 	0.054970
34.75 	0.056780 	4808 	0.055928
34.77 	0.056455 	4818 	0.055604
34.79 	0.059701 	4824 	0.058467
34.81 	0.056347 	4845 	0.055138
34.83 	0.055944 	4862 	0.055462
34.85 	0.053399 	4869 	0.052296
34.87 	0.060805 	4868 	0.059361
34.89 	0.059197 	4882 	0.058117
34.91 	0.057763 	4882 	0.057163
34.93 	0.057767 	4899 	0.056332
34.95 	0.057669 	4890 	0.057309
34.97 	0.056508 	4902 	0.055532
34.99 	0.053502 	4897 	0.053024
35.01 	0.054845 	4923 	0.054369
35.03 	0.057860 	4943 	0.056892
35.05 	0.056398 	4947 	0.055332
35.07 	0.055668 	4940 	0.054957
35.09 	0.053705 	4953 	0.052404
35.11 	0.052557 	4947 	0.051491
35.13 	0.061920 	4958 	0.061211
35.15 	0.054081 	4937 	0.052895
35.17 	0.055196 	4946 	0.054012
35.19 	0.059085 	4942 	0.057663
35.21 	0.056623 	4945 	0.055675
35.23 	0.048938 	4945 	0.048464
35.25 	0.059680 	4943 	0.058495
35.27 	0.052344 	4948 	0.051634
35.29 	0.052174 	4945 	0.051463
35.31 	0.052301 	4933 	0.051588
35.33 	0.054420 	4943 	0.053334
35.35 	0.058074 	4942 	0.056888
35.37 	0.059526 	4939 	0.058222
35.39 	0.056623 	4945 	0.055201
35.41 	0.064961 	4926 	0.063416
35.43 	0.060207 	4933 	0.058782
35.45 	0.058538 	4937 	0.057470
35.47 	0.057392 	4931 	0.056917
35.49 	0.054379 	4910 	0.053066
35.51 	0.053390 	4926 	0.052915
35.53 	0.051121 	4949 	0.050056
35.55 	0.058645 	4945 	0.057579
35.57 	0.058585 	4933 	0.058110
35.59 	0.055814 	4945 	0.054511
35.61 	0.054836 	4942 	0.053513
35.63 	0.055027 	4943 	0.054198
35.65 	0.055410 	4945 	0.054225
35.67 	0.057264 	4942 	0.056672
35.69 	0.055398 	4946 	0.053977
35.71 	0.055499 	4937 	0.054075
35.73 	0.055308 	4936 	0.054240
35.75 	0.058812 	4931 	0.057624
35.77 	0.061806 	4951 	0.060741
35.79 	0.058800 	4932 	0.057949
35.81 	0.063450 	4933 	0.062144
35.83 	0.054994 	4946 	0.054402
35.85 	0.051672 	4935 	0.050603
35.87 	0.048548 	4923 	0.047953
35.89 	0.058573 	4934 	0.057623
35.91 	0.058250 	4927 	0.057180
35.93 	0.053582 	4927 	0.052730
35.95 	0.055725 	4917 	0.055248
35.97 	0.055375 	4912 	0.054182
35.99 	0.056489 	4939 	0.055877
36.01 	0.058215 	4930 	0.057621
36.03 	0.052600 	4943 	0.051652
36.05 	0.057027 	4945 	0.056080
36.07 	0.055679 	4939 	0.054612
36.09 	0.053036 	4940 	0.051713
36.11 	0.050720 	4929 	0.049769
36.13 	0.057062 	4942 	0.056232
36.15 	0.055274 	4939 	0.054563
36.17 	0.047513 	4925 	0.047037
36.19 	0.054656 	4940 	0.054300
36.21 	0.051938 	4929 	0.051581
36.23 	0.057548 	4935 	0.055867
36.25 	0.058895 	4941 	0.058065
36.27 	0.054822 	4925 	0.053871
36.29 	0.053944 	4931 	0.052994
36.31 	0.048295 	4928 	0.047463
36.33 	0.061018 	4933 	0.059593
36.35 	0.055386 	4929 	0.053822
36.37 	0.052204 	4923 	0.051133
36.39 	0.054867 	4921 	0.053677
36.41 	0.055964 	4896 	0.054369
36.43 	0.053977 	4928 	0.052670
36.45 	0.053144 	4930 	0.052788
36.47 	0.049028 	4936 	0.048553
36.49 	0.053217 	4942 	0.051795
36.51 	0.046017 	4933 	0.045304
36.53 	0.057657 	4943 	0.056591
36.55 	0.047087 	4927 	0.046731
36.57 	0.055938 	4934 	0.055226
36.59 	0.059324 	4939 	0.058494
36.61 	0.053336 	4931 	0.052623
36.63 	0.059623 	4931 	0.058435
36.65 	0.057178 	4932 	0.056683
36.67 	0.051927 	4930 	0.050858
36.69 	0.052546 	4929 	0.050744
36.71 	0.055680 	4921 	0.055085
36.73 	0.057056 	4925 	0.056104
36.75 	0.054612 	4944 	0.053901
36.77 	0.054889 	4919 	0.054056
36.79 	0.059541 	4921 	0.058469
36.81 	0.056143 	4916 	0.054832
36.83 	0.050661 	4915 	0.049708
36.85 	0.053695 	4898 	0.052599
36.87 	0.058050 	4944 	0.056865
36.89 	0.048210 	4916 	0.046899
36.91 	0.055657 	4941 	0.054945
36.93 	0.050507 	4930 	0.049675
36.95 	0.053923 	4933 	0.052973
36.97 	0.047831 	4934 	0.047594
36.99 	0.050253 	4935 	0.049541
37.01 	0.056152 	4933 	0.055321
37.03 	0.052193 	4924 	0.051123
37.05 	0.049523 	4927 	0.049047
37.07 	0.055319 	4935 	0.054132
37.09 	0.051339 	4928 	0.050864
37.11 	0.057751 	4935 	0.057039
37.13 	0.051787 	4924 	0.050954
37.15 	0.052964 	4909 	0.052129
37.17 	0.051074 	4934 	0.050362
37.19 	0.049949 	4925 	0.049355
37.21 	0.056132 	4917 	0.055060
37.23 	0.053070 	4918 	0.052237
37.25 	0.061291 	4911 	0.059740
37.27 	0.052513 	4894 	0.052035
37.29 	0.047667 	4930 	0.046192
37.31 	0.045795 	4935 	0.045439
37.33 	0.058250 	4927 	0.056527
37.35 	0.048805 	4938 	0.048331
37.37 	0.046885 	4927 	0.045933
37.39 	0.056175 	4931 	0.054968
37.41 	0.060637 	4931 	0.060043
37.43 	0.054136 	4932 	0.053661
37.45 	0.048944 	4924 	0.047992
37.47 	0.050112 	4929 	0.049280
37.49 	0.048345 	4923 	0.047631
37.51 	0.048449 	4933 	0.047618
37.53 	0.054076 	4919 	0.053342
37.55 	0.047059 	4930 	0.046346
37.57 	0.058680 	4925 	0.057729
37.59 	0.047202 	4915 	0.046607
37.61 	0.050792 	4922 	0.049721
37.63 	0.051230 	4919 	0.050634
37.65 	0.052664 	4918 	0.052068
37.67 	0.052610 	4904 	0.051655
37.69 	0.056962 	4898 	0.055627
37.71 	0.047880 	4929 	0.047642
37.73 	0.055995 	4929 	0.054431
37.75 	0.053441 	4940 	0.052730
37.77 	0.045935 	4920 	0.045340
37.79 	0.057606 	4930 	0.056775
37.81 	0.051895 	4933 	0.051064
37.83 	0.051016 	4920 	0.050421
37.85 	0.053230 	4922 	0.052516
37.87 	0.052845 	4939 	0.052133
37.89 	0.050558 	4925 	0.049825
37.91 	0.049899 	4930 	0.049304
37.93 	0.051637 	4919 	0.050684
37.95 	0.056899 	4921 	0.055828
37.97 	0.055386 	4929 	0.054317
37.99 	0.048046 	4912 	0.046972
38.01 	0.051136 	4928 	0.050304
38.03 	0.046445 	4909 	0.045710
38.05 	0.045888 	4925 	0.045413
38.07 	0.055408 	4909 	0.054076
38.09 	0.048995 	4878 	0.048515
38.11 	0.055117 	4935 	0.054167
38.13 	0.050435 	4937 	0.049842
38.15 	0.055307 	4918 	0.054354
38.17 	0.054970 	4930 	0.054138
38.19 	0.054158 	4930 	0.053208
38.21 	0.050985 	4923 	0.050252
38.23 	0.057311 	4938 	0.056480
38.25 	0.058776 	4917 	0.057584
38.27 	0.052333 	4930 	0.051976
38.29 	0.053006 	4924 	0.052292
38.31 	0.055612 	4927 	0.054423
38.33 	0.057474 	4924 	0.056998
38.35 	0.055804 	4928 	0.055090
38.37 	0.056052 	4924 	0.054724
38.39 	0.054390 	4909 	0.053435
38.41 	0.065204 	4923 	0.064133
38.43 	0.056753 	4916 	0.056396
38.45 	0.058967 	4918 	0.057538
38.47 	0.059711 	4907 	0.058756
38.49 	0.056797 	4877 	0.055836
38.51 	0.062652 	4932 	0.061346
38.53 	0.059038 	4929 	0.057850
38.55 	0.060981 	4936 	0.059556
38.57 	0.054235 	4923 	0.053759
38.59 	0.056458 	4924 	0.056101
38.61 	0.058549 	4936 	0.056769
38.63 	0.058489 	4924 	0.057180
38.65 	0.056324 	4918 	0.055371
38.67 	0.052664 	4937 	0.051952
38.69 	0.051605 	4922 	0.050653
38.71 	0.053209 	4924 	0.052594
38.73 	0.053477 	4918 	0.053120
38.75 	0.049117 	4927 	0.048760
38.77 	0.050173 	4923 	0.049102
38.79 	0.051682 	4934 	0.051207
38.81 	0.048453 	4912 	0.048214
38.83 	0.048587 	4919 	0.047992
38.85 	0.047435 	4912 	0.046342
38.87 	0.051313 	4911 	0.050459
38.89 	0.043088 	4897 	0.042111
38.91 	0.050173 	4903 	0.049457
38.93 	0.043540 	4938 	0.043065
38.95 	0.055714 	4918 	0.054880
38.97 	0.047455 	4931 	0.046861
38.99 	0.046587 	4937 	0.046231
39.01 	0.049817 	4918 	0.048864
39.03 	0.052493 	4934 	0.051662
39.05 	0.047919 	4925 	0.047086
39.07 	0.049350 	4924 	0.048874
39.09 	0.043673 	4923 	0.043197
39.11 	0.049686 	4931 	0.049567
39.13 	0.050782 	4923 	0.049592
39.15 	0.048627 	4915 	0.048150
39.17 	0.053069 	4937 	0.052100
39.19 	0.046166 	4917 	0.045571
39.21 	0.051731 	4910 	0.050777
39.23 	0.047919 	4925 	0.047205
39.25 	0.043072 	4922 	0.042715
39.27 	0.046029 	4910 	0.045551
39.29 	0.044073 	4901 	0.043834
39.31 	0.045659 	4884 	0.045060
39.33 	0.047455 	4931 	0.046623
39.35 	0.048632 	4935 	0.047920
39.37 	0.050517 	4929 	0.050161
39.39 	0.048691 	4929 	0.047622
39.41 	0.049077 	4931 	0.048226
39.43 	0.047030 	4933 	0.046199
39.45 	0.043046 	4925 	0.041856
39.47 	0.049360 	4923 	0.048408
39.49 	0.051490 	4933 	0.050659
39.51 	0.047929 	4924 	0.047691
39.53 	0.045704 	4923 	0.045347
39.55 	0.044521 	4919 	0.043569
39.57 	0.048247 	4933 	0.047297
39.59 	0.050489 	4912 	0.050012
39.61 	0.041641 	4923 	0.041641
39.63 	0.047338 	4922 	0.046862
39.65 	0.052984 	4926 	0.052152
39.67 	0.051903 	4913 	0.050949
39.69 	0.043124 	4916 	0.043005
39.71 	0.048825 	4895 	0.048586
39.73 	0.049104 	4908 	0.047910
39.75 	0.045860 	4928 	0.045147
39.77 	0.045998 	4935 	0.045404
39.79 	0.048518 	4926 	0.047923
39.81 	0.048711 	4927 	0.048236
39.83 	0.049655 	4934 	0.049062
39.85 	0.050538 	4927 	0.049824
39.87 	0.044873 	4925 	0.044397
39.89 	0.051074 	4934 	0.050362
39.91 	0.043681 	4922 	0.043205
39.93 	0.049018 	4937 	0.048424
39.95 	0.049644 	4915 	0.048571
39.97 	0.046875 	4928 	0.046400
39.99 	0.046229 	4932 	0.045754
40.01 	0.050427 	4918 	0.050189
40.03 	0.040179 	4928 	0.039703
40.05 	0.044743 	4917 	0.044504
40.07 	0.039610 	4923 	0.039372
40.09 	0.050651 	4916 	0.049459
40.11 	0.049837 	4916 	0.048765
40.13 	0.047181 	4896 	0.046464
40.15 	0.052107 	4913 	0.051749
40.17 	0.046063 	4928 	0.045231
40.19 	0.049706 	4929 	0.048973
40.21 	0.045998 	4935 	0.045286
40.23 	0.047040 	4932 	0.046090
40.25 	0.043089 	4920 	0.042375
40.27 	0.046790 	4937 	0.046552
40.29 	0.046479 	4927 	0.046241
40.31 	0.044948 	4939 	0.044237
40.33 	0.049878 	4932 	0.049403
40.35 	0.041878 	4919 	0.041640
40.37 	0.043822 	4929 	0.043585
40.39 	0.049077 	4931 	0.048721
40.41 	0.048122 	4925 	0.047170
40.43 	0.042056 	4922 	0.041342
40.45 	0.046219 	4933 	0.045863
40.47 	0.044937 	4918 	0.044699
40.49 	0.046082 	4926 	0.045487
40.51 	0.041040 	4922 	0.040445
40.53 	0.038649 	4916 	0.038292
40.55 	0.039120 	4908 	0.038642
40.57 	0.047444 	4890 	0.046845
40.59 	0.043549 	4937 	0.042955
40.61 	0.043161 	4935 	0.042330
40.63 	0.045030 	4930 	0.044436
40.65 	0.044156 	4937 	0.043563
40.67 	0.043796 	4932 	0.043202
40.69 	0.042131 	4937 	0.041775
40.71 	0.043390 	4932 	0.042796
40.73 	0.047097 	4926 	0.046502
40.75 	0.049077 	4931 	0.048602
40.77 	0.040696 	4939 	0.040103
40.79 	0.042039 	4924 	0.041682
40.81 	0.045740 	4941 	0.045028
40.83 	0.040584 	4928 	0.040466
40.85 	0.049756 	4924 	0.048686
40.87 	0.038758 	4928 	0.038283
40.89 	0.042182 	4931 	0.041469
40.91 	0.050173 	4923 	0.049340
40.93 	0.050466 	4934 	0.049873
40.95 	0.044576 	4913 	0.043741
40.97 	0.043461 	4924 	0.042866
40.99 	0.040211 	4924 	0.039973
41.01 	0.044585 	4912 	0.043988
41.03 	0.041182 	4905 	0.041063
41.05 	0.044368 	4936 	0.043419
41.07 	0.040974 	4930 	0.039904
41.09 	0.043936 	4939 	0.043462
41.11 	0.046606 	4935 	0.045775
41.13 	0.048622 	4936 	0.048266
41.15 	0.046145 	4941 	0.044939
41.17 	0.043778 	4934 	0.043422
41.19 	0.040162 	4930 	0.039925
41.21 	0.045574 	4937 	0.044368
41.23 	0.051630 	4939 	0.050325
41.25 	0.046625 	4933 	0.046150
41.27 	0.041777 	4931 	0.041301
41.29 	0.044643 	4928 	0.044167
41.31 	0.044395 	4933 	0.043801
41.33 	0.042333 	4937 	0.041859
41.35 	0.043540 	4938 	0.042709
41.37 	0.041836 	4924 	0.041241
41.39 	0.043584 	4933 	0.042397
41.41 	0.050345 	4926 	0.049612
41.43 	0.042605 	4929 	0.042367
41.45 	0.044363 	4914 	0.043052
41.47 	0.046082 	4926 	0.045844
41.49 	0.046198 	4892 	0.045360
41.51 	0.044332 	4940 	0.044095
41.53 	0.044903 	4944 	0.043600
41.55 	0.045998 	4935 	0.045286
41.57 	0.044121 	4941 	0.043390
41.59 	0.037503 	4933 	0.037146
41.61 	0.043004 	4953 	0.043004
41.63 	0.040300 	4938 	0.039944
41.65 	0.044228 	4929 	0.043634
41.67 	0.044130 	4940 	0.043537
41.69 	0.047706 	4947 	0.047232
41.71 	0.041346 	4934 	0.040396
41.73 	0.043963 	4936 	0.043488
41.75 	0.040373 	4929 	0.039898
41.77 	0.040073 	4941 	0.039599
41.79 	0.043285 	4944 	0.042929
41.81 	0.039506 	4936 	0.039031
41.83 	0.038149 	4928 	0.037555
41.85 	0.038267 	4939 	0.037674
41.87 	0.036677 	4935 	0.036439
41.89 	0.048247 	4933 	0.047415
41.91 	0.043963 	4936 	0.043369
41.93 	0.040957 	4932 	0.040225
41.95 	0.044413 	4931 	0.043225
41.97 	0.040497 	4914 	0.040020
41.99 	0.043221 	4905 	0.042027
42.01 	0.041481 	4942 	0.041126
42.03 	0.042721 	4939 	0.042247
42.05 	0.041195 	4952 	0.040486
42.07 	0.040916 	4937 	0.040085
42.09 	0.044058 	4948 	0.043229
42.11 	0.041860 	4945 	0.041268
42.13 	0.042467 	4945 	0.041993
42.15 	0.043540 	4938 	0.043184
42.17 	0.042497 	4918 	0.041544
42.19 	0.040342 	4908 	0.039965
42.21 	0.044685 	4901 	0.043729
42.23 	0.041087 	4892 	0.040489
42.25 	0.043158 	4889 	0.042200
42.27 	0.039803 	4874 	0.038842
42.29 	0.038042 	4863 	0.037801
42.31 	0.040165 	4855 	0.039441
42.33 	0.041580 	4834 	0.041459
42.35 	0.043406 	4838 	0.042922
42.37 	0.044928 	4830 	0.044321
42.39 	0.040175 	4804 	0.039179
42.41 	0.041632 	4804 	0.041144
42.43 	0.041319 	4792 	0.040585
42.45 	0.035595 	4776 	0.034981
42.47 	0.044491 	4765 	0.044122
42.49 	0.040504 	4765 	0.039766
42.51 	0.035631 	4743 	0.035508
42.53 	0.039552 	4728 	0.039283
42.55 	0.043118 	4708 	0.042496
42.57 	0.038266 	4730 	0.037647
42.59 	0.039332 	4729 	0.038836
42.61 	0.040144 	4708 	0.039771
42.63 	0.042897 	4709 	0.042399
42.65 	0.036926 	4685 	0.036551
42.67 	0.040350 	4684 	0.040100
42.69 	0.040436 	4674 	0.039810
42.71 	0.037958 	4663 	0.037456
42.73 	0.036207 	4640 	0.036081
42.75 	0.038986 	4617 	0.038585
42.77 	0.040217 	4600 	0.039432
42.79 	0.043867 	4582 	0.042824
42.81 	0.040333 	4562 	0.039820
42.83 	0.041005 	4536 	0.040747
42.85 	0.040857 	4528 	0.040469
42.87 	0.044232 	4499 	0.043841
42.89 	0.040848 	4480 	0.040325
42.91 	0.042415 	4456 	0.041232
42.93 	0.035313 	4446 	0.034786
42.95 	0.040534 	4416 	0.040136
42.97 	0.040900 	4401 	0.040500
42.99 	0.047434 	4385 	0.047034
43.01 	0.042860 	4363 	0.042726
43.03 	0.037387 	4333 	0.036419
43.05 	0.036994 	4325 	0.036452
43.07 	0.040968 	4296 	0.040150
43.09 	0.038991 	4283 	0.038855
43.11 	0.045593 	4255 	0.045043
43.13 	0.042719 	4237 	0.042304
43.15 	0.038754 	4206 	0.037919
43.17 	0.038526 	4179 	0.038246
43.19 	0.036242 	4194 	0.035823
43.21 	0.041946 	4172 	0.041525
43.23 	0.035869 	4154 	0.035587
43.25 	0.044256 	4135 	0.043973
43.27 	0.041900 	4105 	0.041757
43.29 	0.038780 	4100 	0.038209
43.31 	0.034812 	4079 	0.034238
43.33 	0.040237 	4051 	0.039659
43.35 	0.047123 	4032 	0.045937
43.37 	0.051557 	4015 	0.050681
43.39 	0.038981 	4002 	0.038249
43.41 	0.037009 	3972 	0.036714
43.43 	0.037626 	3960 	0.037182
43.45 	0.049301 	3935 	0.048855
43.47 	0.043356 	3921 	0.042460
43.49 	0.038491 	3897 	0.037589
43.51 	0.039979 	3877 	0.039526
43.53 	0.040901 	3863 	0.040901
43.55 	0.039811 	2964 	0.039613
43.57 	0.036640 	2238 	0.036640
43.59 	0.038946 	1746 	0.038611
43.61 	0.041451 	1351 	0.041017
43.63 	0.045954 	1001 	0.045369
43.65 	0.018923 	687 	0.018923
43.67 	0.033865 	502 	0.033865
43.69 	0.049046 	367 	0.049046
43.71 	0.054393 	239 	0.054393
43.73 	0.016667 	120 	0.016667
43.75 	0.062500 	16 	0.062500