File: Example_Data/25SC_s1_0049.003.dat
#F C:\frames\spec\25SC_s1_0049.003
#C title =s:49 frm:3 25SC_s1
#C wavelength =0.15406

#S 1  fr_average C:\frames\spec\25SC_s1_0049.003 C:\win32app\speccom\mask.axs chi 0 180 0 360 0.02
#C 2 theta =0.000000 to 180 deg
#C   q   =0.000000 to 81.568 nm^-1
#C  chi  =0.000000 to 360 deg
#C collumns:
#C  1 position (2theta or chi in degrees)
#C  2 average intensity (sum of all counts in the region divided with number of pixels)
#C  3 Number of pixels in region)
#C  4 error (sum of sqrt(intensity) for all pixels divided by number)
#N 4
#L TTh  Int  N_pix  Err
32.99 	0.081967 	61 	0.072364
33.01 	0.065292 	873 	0.062608
33.03 	0.056794 	1391 	0.055951
33.05 	0.054069 	1757 	0.053069
33.07 	0.048780 	2050 	0.047637
33.09 	0.055816 	2347 	0.054568
33.11 	0.057774 	2579 	0.055693
33.13 	0.058718 	2793 	0.058089
33.15 	0.062354 	2999 	0.061573
33.17 	0.059669 	3201 	0.058754
33.19 	0.060144 	3342 	0.058566
33.21 	0.057043 	3436 	0.055168
33.23 	0.054499 	3523 	0.053668
33.25 	0.058970 	3612 	0.058159
33.27 	0.057025 	3630 	0.056379
33.29 	0.059485 	3648 	0.058039
33.31 	0.059563 	3660 	0.058122
33.33 	0.062670 	3686 	0.060233
33.35 	0.057661 	3694 	0.056551
33.37 	0.061659 	3714 	0.060870
33.39 	0.052561 	3729 	0.052247
33.41 	0.061497 	3740 	0.060871
33.43 	0.067269 	3761 	0.065868
33.45 	0.056189 	3773 	0.055102
33.47 	0.058452 	3798 	0.057218
33.49 	0.061171 	3809 	0.059582
33.51 	0.059764 	3815 	0.058536
33.53 	0.054153 	3841 	0.053543
33.55 	0.066354 	3843 	0.065287
33.57 	0.055713 	3877 	0.054504
33.59 	0.067526 	3880 	0.066016
33.61 	0.058583 	3909 	0.057833
33.63 	0.055626 	3919 	0.055178
33.65 	0.059018 	3931 	0.058124
33.67 	0.057663 	3954 	0.056182
33.69 	0.061978 	3953 	0.061237
33.71 	0.058113 	3975 	0.057376
33.73 	0.053946 	4004 	0.053215
33.75 	0.062016 	3999 	0.060844
33.77 	0.061118 	4025 	0.059663
33.79 	0.052710 	4041 	0.051405
33.81 	0.056959 	4038 	0.055653
33.83 	0.058765 	4050 	0.057174
33.85 	0.060015 	4099 	0.059157
33.87 	0.064461 	4111 	0.063464
33.89 	0.062121 	4121 	0.061410
33.91 	0.065799 	4149 	0.065093
33.93 	0.063840 	4151 	0.062993
33.95 	0.063382 	4181 	0.062098
33.97 	0.057518 	4190 	0.056539
33.99 	0.058810 	4200 	0.058112
34.01 	0.056492 	4213 	0.055658
34.03 	0.059614 	4244 	0.058095
34.05 	0.057385 	4252 	0.056834
34.07 	0.056701 	4268 	0.055466
34.09 	0.058563 	4286 	0.057720
34.11 	0.068805 	4302 	0.067444
34.13 	0.061746 	4308 	0.060363
34.15 	0.059109 	4331 	0.058162
34.17 	0.054483 	4350 	0.053405
34.19 	0.053416 	4362 	0.053013
34.21 	0.057881 	4371 	0.056809
34.23 	0.062827 	4393 	0.062027
34.25 	0.061762 	4404 	0.060809
34.27 	0.056309 	4422 	0.054985
34.29 	0.054791 	4435 	0.053999
34.31 	0.052041 	4458 	0.051778
34.33 	0.055916 	4471 	0.055261
34.35 	0.055531 	4484 	0.054856
34.37 	0.058562 	4491 	0.057518
34.39 	0.061084 	4502 	0.060173
34.41 	0.054132 	4526 	0.053355
34.43 	0.058163 	4539 	0.057388
34.45 	0.056450 	4535 	0.055546
34.47 	0.062500 	4592 	0.061224
34.49 	0.056994 	4597 	0.055974
34.51 	0.060139 	4606 	0.059249
34.53 	0.050398 	4643 	0.049389
34.55 	0.057506 	4643 	0.056749
34.57 	0.064592 	4660 	0.063315
34.59 	0.063957 	4675 	0.062934
34.61 	0.059400 	4697 	0.057778
34.63 	0.061783 	4710 	0.059669
34.65 	0.050413 	4721 	0.049917
34.67 	0.057583 	4741 	0.056471
34.69 	0.056584 	4754 	0.055331
34.71 	0.066303 	4766 	0.064951
34.73 	0.061625 	4787 	0.061136
34.75 	0.060316 	4808 	0.058834
34.77 	0.055832 	4818 	0.055468
34.79 	0.053483 	4824 	0.052390
34.81 	0.054283 	4845 	0.053436
34.83 	0.059441 	4862 	0.058838
34.85 	0.065517 	4869 	0.065156
34.87 	0.060600 	4868 	0.059156
34.89 	0.059607 	4882 	0.058407
34.91 	0.058378 	4882 	0.057178
34.93 	0.060625 	4899 	0.059668
34.95 	0.064826 	4890 	0.064347
34.97 	0.056304 	4902 	0.055706
34.99 	0.055340 	4897 	0.054483
35.01 	0.057892 	4923 	0.056940
35.03 	0.060287 	4943 	0.059458
35.05 	0.057004 	4947 	0.056175
35.07 	0.062146 	4940 	0.061434
35.09 	0.057945 	4953 	0.056999
35.11 	0.067314 	4947 	0.066465
35.13 	0.057079 	4958 	0.055898
35.15 	0.056917 	4937 	0.056087
35.17 	0.062273 	4946 	0.061443
35.19 	0.060907 	4942 	0.059840
35.21 	0.062083 	4945 	0.061372
35.23 	0.059858 	4945 	0.058318
35.25 	0.060894 	4943 	0.059828
35.27 	0.059620 	4948 	0.058791
35.29 	0.059656 	4945 	0.058945
35.31 	0.057977 	4933 	0.056889
35.33 	0.059883 	4943 	0.058935
35.35 	0.058478 	4942 	0.057530
35.37 	0.060741 	4939 	0.060148
35.39 	0.052983 	4945 	0.052154
35.41 	0.059683 	4926 	0.058118
35.43 	0.058788 	4933 	0.057125
35.45 	0.059753 	4937 	0.058922
35.47 	0.061245 	4931 	0.059820
35.49 	0.063136 	4910 	0.062182
35.51 	0.057856 	4926 	0.056548
35.53 	0.056577 	4949 	0.056104
35.55 	0.059050 	4945 	0.058220
35.57 	0.056355 	4933 	0.055524
35.59 	0.057836 	4945 	0.056889
35.61 	0.058276 	4942 	0.057328
35.63 	0.057455 	4943 	0.056151
35.65 	0.058038 	4945 	0.056972
35.67 	0.052610 	4942 	0.051781
35.69 	0.063283 	4946 	0.061606
35.71 	0.053879 	4937 	0.053404
35.73 	0.057536 	4936 	0.056587
35.75 	0.055972 	4931 	0.055022
35.77 	0.055746 	4951 	0.054563
35.79 	0.059002 	4932 	0.057815
35.81 	0.060207 	4933 	0.059376
35.83 	0.051759 	4946 	0.050575
35.85 	0.056940 	4935 	0.056109
35.87 	0.063579 	4923 	0.062013
35.89 	0.060397 	4934 	0.059566
35.91 	0.060686 	4927 	0.059497
35.93 	0.057845 	4927 	0.056774
35.95 	0.061013 	4917 	0.059702
35.97 	0.062093 	4912 	0.060881
35.99 	0.064386 	4939 	0.063199
36.01 	0.055984 	4930 	0.055627
36.03 	0.051790 	4943 	0.051435
36.05 	0.062892 	4945 	0.062398
36.07 	0.064386 	4939 	0.063437
36.09 	0.061134 	4940 	0.059948
36.11 	0.057212 	4929 	0.056618
36.13 	0.060704 	4942 	0.059519
36.15 	0.060336 	4939 	0.059150
36.17 	0.057259 	4925 	0.056426
36.19 	0.055061 	4940 	0.053756
36.21 	0.061270 	4929 	0.058992
36.23 	0.059777 	4935 	0.057878
36.25 	0.059907 	4941 	0.058346
36.27 	0.057462 	4925 	0.056510
36.29 	0.056986 	4931 	0.055917
36.31 	0.061485 	4928 	0.060416
36.33 	0.056761 	4933 	0.055554
36.35 	0.062690 	4929 	0.061126
36.37 	0.057282 	4923 	0.055716
36.39 	0.053851 	4921 	0.053018
36.41 	0.068832 	4896 	0.067276
36.43 	0.056006 	4928 	0.055412
36.45 	0.053347 	4930 	0.052753
36.47 	0.054295 	4936 	0.053583
36.49 	0.054027 	4942 	0.052960
36.51 	0.063248 	4933 	0.062773
36.53 	0.057860 	4943 	0.056556
36.55 	0.059671 	4927 	0.058106
36.57 	0.059181 	4934 	0.058588
36.59 	0.054464 	4939 	0.053753
36.61 	0.060434 	4931 	0.059226
36.63 	0.060637 	4931 	0.060043
36.65 	0.062652 	4932 	0.061821
36.67 	0.054564 	4930 	0.053732
36.69 	0.053561 	4929 	0.052847
36.71 	0.053851 	4921 	0.052899
36.73 	0.051777 	4925 	0.051063
36.75 	0.059061 	4944 	0.058351
36.77 	0.058752 	4919 	0.057918
36.79 	0.054664 	4921 	0.054068
36.81 	0.057567 	4916 	0.056733
36.83 	0.057986 	4915 	0.057151
36.85 	0.058187 	4898 	0.057350
36.87 	0.057848 	4944 	0.057255
36.89 	0.052075 	4916 	0.051598
36.91 	0.051609 	4941 	0.051135
36.93 	0.050507 	4930 	0.050032
36.95 	0.052504 	4933 	0.051910
36.97 	0.054925 	4934 	0.053856
36.99 	0.053901 	4935 	0.053189
37.01 	0.053517 	4933 	0.052686
37.03 	0.059708 	4924 	0.058637
37.05 	0.054394 	4927 	0.053443
37.07 	0.057548 	4935 	0.056242
37.09 	0.056412 	4928 	0.055699
37.11 	0.055724 	4935 	0.054894
37.13 	0.051381 	4924 	0.050905
37.15 	0.052557 	4909 	0.051363
37.17 	0.058776 	4934 	0.057945
37.19 	0.053401 	4925 	0.052568
37.21 	0.054098 	4917 	0.053502
37.23 	0.053070 	4918 	0.052713
37.25 	0.062105 	4911 	0.060793
37.27 	0.053535 	4894 	0.052408
37.29 	0.052535 	4930 	0.051823
37.31 	0.057143 	4935 	0.056174
37.33 	0.063528 	4927 	0.062101
37.35 	0.051438 	4938 	0.050133
37.37 	0.058047 	4927 	0.057453
37.39 	0.051308 	4931 	0.050595
37.41 	0.054756 	4931 	0.053805
37.43 	0.053122 	4932 	0.051796
37.45 	0.051584 	4924 	0.050870
37.47 	0.054372 	4929 	0.053164
37.49 	0.058298 	4923 	0.056870
37.51 	0.050476 	4933 	0.049883
37.53 	0.047774 	4919 	0.047059
37.55 	0.059229 	4930 	0.058635
37.57 	0.059695 	4925 	0.058387
37.59 	0.051068 	4915 	0.050472
37.61 	0.049573 	4922 	0.048602
37.63 	0.054889 	4919 	0.054532
37.65 	0.054697 	4918 	0.054101
37.67 	0.057708 	4904 	0.056991
37.69 	0.051858 	4898 	0.051021
37.71 	0.059241 	4929 	0.057914
37.73 	0.052546 	4929 	0.051952
37.75 	0.051215 	4940 	0.050385
37.77 	0.051220 	4920 	0.050624
37.79 	0.052333 	4930 	0.051857
37.81 	0.052909 	4933 	0.052315
37.83 	0.052033 	4920 	0.051199
37.85 	0.050386 	4922 	0.050029
37.87 	0.054869 	4939 	0.053802
37.89 	0.050558 	4925 	0.049607
37.91 	0.053550 	4930 	0.052698
37.93 	0.052043 	4919 	0.050852
37.95 	0.052022 	4921 	0.051308
37.97 	0.055386 	4929 	0.054436
37.99 	0.060057 	4912 	0.059103
38.01 	0.055398 	4928 	0.054308
38.03 	0.053168 	4909 	0.052213
38.05 	0.053401 	4925 	0.052668
38.07 	0.053575 	4909 	0.052740
38.09 	0.052276 	4878 	0.051315
38.11 	0.054306 	4935 	0.053831
38.13 	0.052056 	4937 	0.051344
38.15 	0.047377 	4918 	0.046543
38.17 	0.044625 	4930 	0.044268
38.19 	0.055984 	4930 	0.055508
38.21 	0.052204 	4923 	0.051133
38.23 	0.055083 	4938 	0.054371
38.25 	0.057759 	4917 	0.057163
38.27 	0.055375 	4930 	0.054544
38.29 	0.058083 	4924 	0.057488
38.31 	0.057033 	4927 	0.055725
38.33 	0.058489 	4924 	0.057418
38.35 	0.056412 	4928 	0.055461
38.37 	0.056661 	4924 	0.055115
38.39 	0.056834 	4909 	0.055402
38.41 	0.065204 	4923 	0.064114
38.43 	0.059398 	4916 	0.058802
38.45 	0.064050 	4918 	0.061787
38.47 	0.058080 	4907 	0.057364
38.49 	0.065614 	4877 	0.064293
38.51 	0.061030 	4932 	0.060199
38.53 	0.059241 	4929 	0.057796
38.55 	0.065032 	4936 	0.063589
38.57 	0.053423 	4923 	0.052471
38.59 	0.060926 	4924 	0.059122
38.61 	0.066451 	4936 	0.064888
38.63 	0.052600 	4924 	0.051529
38.65 	0.065067 	4918 	0.063161
38.67 	0.061576 	4937 	0.060271
38.69 	0.058310 	4922 	0.057239
38.71 	0.054021 	4924 	0.052950
38.73 	0.053477 	4918 	0.053001
38.75 	0.059062 	4927 	0.058230
38.77 	0.053220 	4923 	0.052744
38.79 	0.052493 	4934 	0.051899
38.81 	0.049674 	4912 	0.048959
38.83 	0.050620 	4919 	0.049786
38.85 	0.057003 	4912 	0.056049
38.87 	0.054368 	4911 	0.053533
38.89 	0.049418 	4897 	0.049059
38.91 	0.050173 	4903 	0.049218
38.93 	0.051640 	4938 	0.050810
38.95 	0.044734 	4918 	0.044138
38.97 	0.055364 	4931 	0.054532
38.99 	0.054689 	4937 	0.053621
39.01 	0.050224 	4918 	0.049509
39.03 	0.046615 	4934 	0.045784
39.05 	0.045279 	4925 	0.044922
39.07 	0.048944 	4924 	0.048468
39.09 	0.047735 	4923 	0.047378
39.11 	0.050294 	4931 	0.049700
39.13 	0.052001 	4923 	0.051644
39.15 	0.046796 	4915 	0.045604
39.17 	0.054284 	4937 	0.053572
39.19 	0.050844 	4917 	0.049653
39.21 	0.047251 	4910 	0.046773
39.23 	0.050355 	4925 	0.049047
39.25 	0.048557 	4922 	0.048081
39.27 	0.052953 	4910 	0.052118
39.29 	0.048357 	4901 	0.047999
39.31 	0.047707 	4884 	0.046987
39.33 	0.046238 	4931 	0.045288
39.35 	0.047822 	4935 	0.046872
39.37 	0.046865 	4929 	0.046390
39.39 	0.049300 	4929 	0.048468
39.41 	0.043602 	4931 	0.043107
39.43 	0.046219 	4933 	0.045507
39.45 	0.047513 	4925 	0.046799
39.47 	0.045907 	4923 	0.044836
39.49 	0.047436 	4933 	0.046367
39.51 	0.048538 	4924 	0.047923
39.53 	0.046110 	4923 	0.045515
39.55 	0.048994 	4919 	0.047446
39.57 	0.050071 	4933 	0.049358
39.59 	0.050285 	4912 	0.049331
39.61 	0.049766 	4923 	0.049052
39.63 	0.048151 	4922 	0.047675
39.65 	0.049533 	4926 	0.049176
39.67 	0.058009 	4913 	0.057652
39.69 	0.050041 	4916 	0.048968
39.71 	0.044740 	4895 	0.044261
39.73 	0.046862 	4908 	0.046007
39.75 	0.059050 	4928 	0.057624
39.77 	0.049037 	4935 	0.048207
39.79 	0.047300 	4926 	0.046824
39.81 	0.049929 	4927 	0.048740
39.83 	0.050061 	4934 	0.049348
39.85 	0.047087 	4927 	0.046493
39.87 	0.045685 	4925 	0.045091
39.89 	0.051480 	4934 	0.050510
39.91 	0.044900 	4922 	0.044186
39.93 	0.044156 	4937 	0.043326
39.95 	0.048830 	4915 	0.048353
39.97 	0.045252 	4928 	0.045014
39.99 	0.045215 	4932 	0.044859
40.01 	0.053884 	4918 	0.053288
40.03 	0.043831 	4928 	0.043237
40.05 	0.045353 	4917 	0.045115
40.07 	0.043673 	4923 	0.043078
40.09 	0.047193 	4916 	0.046835
40.11 	0.043124 	4916 	0.042529
40.13 	0.046160 	4896 	0.045442
40.15 	0.049257 	4913 	0.048542
40.17 	0.045455 	4928 	0.044860
40.19 	0.046257 	4929 	0.045187
40.21 	0.048430 	4935 	0.047480
40.23 	0.052311 	4932 	0.052074
40.25 	0.051220 	4920 	0.050624
40.27 	0.045777 	4937 	0.045184
40.29 	0.045667 	4927 	0.045072
40.31 	0.051427 	4939 	0.050953
40.33 	0.049878 	4932 	0.048453
40.35 	0.050010 	4919 	0.049415
40.37 	0.048083 	4929 	0.047251
40.39 	0.046238 	4931 	0.045882
40.41 	0.042437 	4925 	0.041842
40.43 	0.043072 	4922 	0.042596
40.45 	0.045814 	4933 	0.044389
40.47 	0.051240 	4918 	0.051002
40.49 	0.048924 	4926 	0.048448
40.51 	0.041040 	4922 	0.040921
40.53 	0.046176 	4916 	0.045103
40.55 	0.042991 	4908 	0.041917
40.57 	0.047853 	4890 	0.047254
40.59 	0.046587 	4937 	0.045994
40.61 	0.044985 	4935 	0.044391
40.63 	0.047262 	4930 	0.046549
40.65 	0.046790 	4937 	0.046434
40.67 	0.043390 	4932 	0.042559
40.69 	0.047600 	4937 	0.047125
40.71 	0.044201 	4932 	0.043370
40.73 	0.050345 	4926 	0.050107
40.75 	0.049280 	4931 	0.048686
40.77 	0.048390 	4939 	0.047916
40.79 	0.047522 	4924 	0.046928
40.81 	0.046752 	4941 	0.046159
40.83 	0.041193 	4928 	0.040599
40.85 	0.045898 	4924 	0.044926
40.87 	0.046469 	4928 	0.046113
40.89 	0.041168 	4931 	0.040455
40.91 	0.048751 	4923 	0.048156
40.93 	0.047629 	4934 	0.046916
40.95 	0.054142 	4913 	0.053069
40.97 	0.047116 	4924 	0.046640
40.99 	0.044882 	4924 	0.044168
41.01 	0.046621 	4912 	0.045786
41.03 	0.050561 	4905 	0.050063
41.05 	0.047407 	4936 	0.046813
41.07 	0.049290 	4930 	0.048815
41.09 	0.047176 	4939 	0.046583
41.11 	0.043566 	4935 	0.042973
41.13 	0.043558 	4936 	0.043083
41.15 	0.041287 	4941 	0.040932
41.17 	0.045197 	4934 	0.044840
41.19 	0.044828 	4930 	0.043877
41.21 	0.051448 	4937 	0.050736
41.23 	0.041101 	4939 	0.040627
41.25 	0.045611 	4933 	0.045017
41.27 	0.048266 	4931 	0.047672
41.29 	0.047078 	4928 	0.046602
41.31 	0.045611 	4933 	0.044542
41.33 	0.045169 	4937 	0.044339
41.35 	0.045362 	4938 	0.045244
41.37 	0.044882 	4924 	0.044049
41.39 	0.044598 	4933 	0.044004
41.41 	0.048721 	4926 	0.047413
41.43 	0.047271 	4929 	0.046677
41.45 	0.042939 	4914 	0.042204
41.47 	0.042428 	4926 	0.042190
41.49 	0.041496 	4892 	0.040419
41.51 	0.049393 	4940 	0.048543
41.53 	0.044498 	4944 	0.043650
41.55 	0.041337 	4935 	0.040981
41.57 	0.042704 	4941 	0.041874
41.59 	0.043787 	4933 	0.043312
41.61 	0.044821 	4953 	0.044230
41.63 	0.049818 	4938 	0.049580
41.65 	0.040373 	4929 	0.040017
41.67 	0.042915 	4940 	0.042322
41.69 	0.039014 	4947 	0.038540
41.71 	0.041751 	4934 	0.041039
41.73 	0.047002 	4936 	0.046389
41.75 	0.040576 	4929 	0.039863
41.77 	0.045942 	4941 	0.045231
41.79 	0.045307 	4944 	0.044459
41.81 	0.043152 	4936 	0.042559
41.83 	0.043831 	4928 	0.043118
41.85 	0.041911 	4939 	0.040943
41.87 	0.044174 	4935 	0.043225
41.89 	0.042570 	4933 	0.042095
41.91 	0.040316 	4936 	0.039960
41.93 	0.042985 	4932 	0.042628
41.95 	0.047860 	4931 	0.047385
41.97 	0.043753 	4914 	0.043157
41.99 	0.044037 	4905 	0.043559
42.01 	0.039862 	4942 	0.039151
42.03 	0.040494 	4939 	0.040257
42.05 	0.039580 	4952 	0.038989
42.07 	0.043751 	4937 	0.043158
42.09 	0.044665 	4948 	0.043580
42.11 	0.048129 	4945 	0.047182
42.13 	0.042872 	4945 	0.042635
42.15 	0.037870 	4938 	0.037514
42.17 	0.047784 	4918 	0.046930
42.19 	0.040139 	4908 	0.039780
42.21 	0.039380 	4901 	0.038782
42.23 	0.042927 	4892 	0.042807
42.25 	0.037431 	4889 	0.037191
42.27 	0.042881 	4874 	0.042159
42.29 	0.041949 	4863 	0.041708
42.31 	0.040577 	4855 	0.040456
42.33 	0.035788 	4834 	0.035425
42.35 	0.042993 	4838 	0.042509
42.37 	0.042857 	4830 	0.042372
42.39 	0.043297 	4804 	0.043053
42.41 	0.039759 	4804 	0.039149
42.43 	0.043823 	4792 	0.043334
42.45 	0.045645 	4776 	0.045400
42.47 	0.043442 	4765 	0.042581
42.49 	0.046590 	4765 	0.045852
42.51 	0.041535 	4743 	0.040794
42.53 	0.042724 	4728 	0.042105
42.55 	0.040569 	4708 	0.040196
42.57 	0.033404 	4730 	0.033032
42.59 	0.039966 	4729 	0.039471
42.61 	0.043755 	4708 	0.043258
42.63 	0.043534 	4709 	0.042891
42.65 	0.045037 	4685 	0.044037
42.67 	0.043980 	4684 	0.043729
42.69 	0.039795 	4674 	0.039419
42.71 	0.040746 	4663 	0.040369
42.73 	0.043319 	4640 	0.042561
42.75 	0.041152 	4617 	0.040645
42.77 	0.041087 	4600 	0.040323
42.79 	0.042994 	4582 	0.042739
42.81 	0.043402 	4562 	0.042888
42.83 	0.041446 	4536 	0.040650
42.85 	0.040636 	4528 	0.039989
42.87 	0.043121 	4499 	0.042188
42.89 	0.038839 	4480 	0.038447
42.91 	0.041741 	4456 	0.041347
42.93 	0.038462 	4446 	0.037803
42.95 	0.035779 	4416 	0.035381
42.97 	0.044308 	4401 	0.043909
42.99 	0.041049 	4385 	0.040626
43.01 	0.045840 	4363 	0.045840
43.03 	0.042926 	4333 	0.042115
43.05 	0.042312 	4325 	0.041364
43.07 	0.042132 	4296 	0.041178
43.09 	0.043428 	4283 	0.042470
43.11 	0.045123 	4255 	0.044435
43.13 	0.040123 	4237 	0.039431
43.15 	0.045411 	4206 	0.045411
43.17 	0.038047 	4179 	0.037767
43.19 	0.042442 	4194 	0.042000
43.21 	0.047699 	4172 	0.047137
43.23 	0.035628 	4154 	0.035628
43.25 	0.037969 	4135 	0.037827
43.27 	0.039220 	4105 	0.038792
43.29 	0.036341 	4100 	0.036056
43.31 	0.037754 	4079 	0.037324
43.33 	0.044680 	4051 	0.044536
43.35 	0.039435 	4032 	0.037934
43.37 	0.044334 	4015 	0.043750
43.39 	0.046477 	4002 	0.046330
43.41 	0.038771 	3972 	0.037887
43.43 	0.044444 	3960 	0.044149
43.45 	0.039136 	3935 	0.038838
43.47 	0.041571 	3921 	0.040973
43.49 	0.043880 	3897 	0.043429
43.51 	0.038690 	3877 	0.038236
43.53 	0.047373 	3863 	0.047069
43.55 	0.045209 	2964 	0.044616
43.57 	0.045576 	2238 	0.044529
43.59 	0.039519 	1746 	0.039183
43.61 	0.038490 	1351 	0.037189
43.63 	0.050949 	1001 	0.049779
43.65 	0.034934 	687 	0.034082
43.67 	0.039841 	502 	0.039841
43.69 	0.054496 	367 	0.052900
43.71 	0.058577 	239 	0.058577
43.73 	0.041667 	120 	0.041667
43.75 	0.000000 	16 	0.000000