File: Example_Data/25SC_s1_0014.002.dat
#F C:\frames\spec\25SC_s1_0014.002
#C title =s:14 frm:2 25SC_s1
#C wavelength =0.15406

#S 1  fr_average C:\frames\spec\25SC_s1_0014.002 C:\win32app\speccom\mask.axs chi 0 180 0 360 0.02
#C 2 theta =0.000000 to 180 deg
#C   q   =0.000000 to 81.568 nm^-1
#C  chi  =0.000000 to 360 deg
#C collumns:
#C  1 position (2theta or chi in degrees)
#C  2 average intensity (sum of all counts in the region divided with number of pixels)
#C  3 Number of pixels in region)
#C  4 error (sum of sqrt(intensity) for all pixels divided by number)
#N 4
#L TTh  Int  N_pix  Err
32.99 	0.032787 	61 	0.032787
33.01 	0.049255 	873 	0.047913
33.03 	0.056794 	1391 	0.056373
33.05 	0.052931 	1757 	0.051598
33.07 	0.063415 	2050 	0.062557
33.09 	0.066468 	2347 	0.064970
33.11 	0.061652 	2579 	0.060289
33.13 	0.055496 	2793 	0.053818
33.15 	0.060687 	2999 	0.059906
33.17 	0.059981 	3201 	0.058517
33.19 	0.048474 	3342 	0.048299
33.21 	0.055588 	3436 	0.054054
33.23 	0.065285 	3523 	0.063955
33.25 	0.057863 	3612 	0.056539
33.27 	0.057025 	3630 	0.056057
33.29 	0.058936 	3648 	0.058294
33.31 	0.059563 	3660 	0.058603
33.33 	0.053445 	3686 	0.052810
33.35 	0.059015 	3694 	0.057746
33.37 	0.058966 	3714 	0.058152
33.39 	0.058997 	3729 	0.057897
33.41 	0.059626 	3740 	0.058529
33.43 	0.058229 	3761 	0.056827
33.45 	0.062020 	3773 	0.060441
33.47 	0.053449 	3798 	0.052678
33.49 	0.065371 	3809 	0.063987
33.51 	0.060550 	3815 	0.058401
33.53 	0.058058 	3841 	0.056685
33.55 	0.059329 	3843 	0.058414
33.57 	0.063193 	3877 	0.061984
33.59 	0.055928 	3880 	0.054091
33.61 	0.057815 	3909 	0.056467
33.63 	0.064047 	3919 	0.062851
33.65 	0.064360 	3931 	0.062870
33.67 	0.056146 	3954 	0.054516
33.69 	0.058690 	3953 	0.057652
33.71 	0.058616 	3975 	0.057585
33.73 	0.063437 	4004 	0.062266
33.75 	0.060515 	3999 	0.059636
33.77 	0.060621 	4025 	0.059457
33.79 	0.063846 	4041 	0.062251
33.81 	0.065379 	4038 	0.064654
33.83 	0.062963 	4050 	0.061517
33.85 	0.054404 	4099 	0.054404
33.87 	0.058137 	4111 	0.057424
33.89 	0.063577 	4121 	0.062582
33.91 	0.056881 	4149 	0.055870
33.93 	0.063358 	4151 	0.062229
33.95 	0.058120 	4181 	0.056859
33.97 	0.059666 	4190 	0.058664
33.99 	0.061905 	4200 	0.060650
34.01 	0.061239 	4213 	0.059710
34.03 	0.057493 	4244 	0.056090
34.05 	0.065146 	4252 	0.063194
34.07 	0.055061 	4268 	0.054649
34.09 	0.051097 	4286 	0.050277
34.11 	0.054393 	4302 	0.053576
34.13 	0.054318 	4308 	0.053037
34.15 	0.055645 	4331 	0.055104
34.17 	0.065977 	4350 	0.065034
34.19 	0.055938 	4362 	0.055266
34.21 	0.057653 	4371 	0.056447
34.23 	0.057136 	4393 	0.056203
34.25 	0.056767 	4404 	0.055969
34.27 	0.060832 	4422 	0.059618
34.29 	0.055468 	4435 	0.053883
34.31 	0.060117 	4458 	0.058408
34.33 	0.053679 	4471 	0.053024
34.35 	0.057538 	4484 	0.056493
34.37 	0.060566 	4491 	0.059392
34.39 	0.054865 	4502 	0.054214
34.41 	0.052364 	4526 	0.051846
34.43 	0.053536 	4539 	0.052891
34.45 	0.063065 	4535 	0.062290
34.47 	0.058798 	4592 	0.057650
34.49 	0.055253 	4597 	0.054107
34.51 	0.056448 	4606 	0.055283
34.53 	0.060521 	4643 	0.059890
34.55 	0.061167 	4643 	0.059906
34.57 	0.058584 	4660 	0.058081
34.59 	0.059037 	4675 	0.058662
34.61 	0.056845 	4697 	0.055203
34.63 	0.062208 	4710 	0.060840
34.65 	0.061004 	4721 	0.059722
34.67 	0.057794 	4741 	0.056311
34.69 	0.054901 	4754 	0.053915
34.71 	0.057700 	4766 	0.056717
34.73 	0.056194 	4787 	0.055215
34.75 	0.057820 	4808 	0.056724
34.77 	0.058323 	4818 	0.057350
34.79 	0.060323 	4824 	0.058725
34.81 	0.056140 	4845 	0.055415
34.83 	0.056767 	4862 	0.055923
34.85 	0.061204 	4869 	0.060602
34.87 	0.061627 	4868 	0.060544
34.89 	0.056329 	4882 	0.055009
34.91 	0.061041 	4882 	0.060081
34.93 	0.059196 	4899 	0.057382
34.95 	0.062372 	4890 	0.061534
34.97 	0.060180 	4902 	0.058985
34.99 	0.064734 	4897 	0.064016
35.01 	0.066626 	4923 	0.066031
35.03 	0.060490 	4943 	0.058811
35.05 	0.061856 	4947 	0.060790
35.07 	0.055263 	4940 	0.054433
35.09 	0.065617 	4953 	0.064316
35.11 	0.060441 	4947 	0.059612
35.13 	0.055869 	4958 	0.054787
35.15 	0.058132 	4937 	0.057065
35.17 	0.053983 	4946 	0.053154
35.19 	0.055645 	4942 	0.054816
35.21 	0.060061 	4945 	0.058995
35.23 	0.061072 	4945 	0.059868
35.25 	0.056241 	4943 	0.054662
35.27 	0.060226 	4948 	0.059753
35.29 	0.053792 	4945 	0.052962
35.31 	0.055950 	4933 	0.054762
35.33 	0.051183 	4943 	0.050828
35.35 	0.060299 	4942 	0.059470
35.37 	0.049403 	4939 	0.048810
35.39 	0.055814 	4945 	0.055222
35.41 	0.061713 	4926 	0.060762
35.43 	0.062031 	4933 	0.061319
35.45 	0.061373 	4937 	0.059712
35.47 	0.060231 	4931 	0.058212
35.49 	0.059878 	4910 	0.058446
35.51 	0.055623 	4926 	0.054791
35.53 	0.055769 	4949 	0.054348
35.55 	0.057027 	4945 	0.056435
35.57 	0.061626 	4933 	0.060775
35.59 	0.057836 	4945 	0.057125
35.61 	0.060907 	4942 	0.059583
35.63 	0.061097 	4943 	0.059418
35.65 	0.062083 	4945 	0.060898
35.67 	0.056253 	4942 	0.055067
35.69 	0.059038 	4946 	0.058327
35.71 	0.059145 	4937 	0.058552
35.73 	0.054700 	4936 	0.053988
35.75 	0.059826 	4931 	0.058400
35.77 	0.061402 	4951 	0.060455
35.79 	0.057786 	4932 	0.056479
35.81 	0.062031 	4933 	0.061319
35.83 	0.060453 	4946 	0.059505
35.85 	0.060993 	4935 	0.059925
35.87 	0.058298 	4923 	0.057465
35.89 	0.069112 	4934 	0.068400
35.91 	0.057642 	4927 	0.056928
35.93 	0.056830 	4927 	0.056235
35.95 	0.063860 	4917 	0.063026
35.97 	0.056393 	4912 	0.055538
35.99 	0.063576 	4939 	0.062508
36.01 	0.061055 	4930 	0.060579
36.03 	0.056646 	4943 	0.055579
36.05 	0.055814 	4945 	0.054748
36.07 	0.060539 	4939 	0.059827
36.09 	0.057895 	4940 	0.056828
36.11 	0.056807 	4929 	0.056094
36.13 	0.059692 	4942 	0.058132
36.15 	0.063981 	4939 	0.062656
36.17 	0.058883 	4925 	0.058051
36.19 	0.060729 	4940 	0.059780
36.21 	0.053966 	4929 	0.053491
36.23 	0.055117 	4935 	0.054286
36.25 	0.056466 	4941 	0.055044
36.27 	0.059289 	4925 	0.057743
36.29 	0.058000 	4931 	0.057525
36.31 	0.056209 	4928 	0.055853
36.33 	0.060207 	4933 	0.059019
36.35 	0.063705 	4929 	0.062516
36.37 	0.058704 	4923 	0.057971
36.39 	0.055070 	4921 	0.054118
36.41 	0.060049 	4896 	0.059092
36.43 	0.059862 	4928 	0.058297
36.45 	0.061258 	4930 	0.059713
36.47 	0.059765 	4936 	0.058697
36.49 	0.059490 	4942 	0.058167
36.51 	0.057977 	4933 	0.057146
36.53 	0.049970 	4943 	0.049022
36.55 	0.053785 	4927 	0.052953
36.57 	0.050872 	4934 	0.050397
36.59 	0.057097 	4939 	0.055911
36.61 	0.063476 	4931 	0.062644
36.63 	0.054958 	4931 	0.054602
36.65 	0.052514 	4932 	0.052158
36.67 	0.057404 	4930 	0.056572
36.69 	0.053966 	4929 	0.053372
36.71 	0.052225 	4921 	0.051273
36.73 	0.052792 	4925 	0.051484
36.75 	0.055623 	4944 	0.054794
36.77 	0.058548 	4919 	0.057715
36.79 	0.058118 	4921 	0.056809
36.81 	0.055330 	4916 	0.054257
36.83 	0.053713 	4915 	0.053117
36.85 	0.052062 	4898 	0.051344
36.87 	0.058859 	4944 	0.058030
36.89 	0.065704 	4916 	0.064393
36.91 	0.056871 	4941 	0.056397
36.93 	0.058012 	4930 	0.056567
36.95 	0.052909 	4933 	0.051821
36.97 	0.057762 	4934 	0.056694
36.99 	0.054306 	4935 	0.053712
37.01 	0.057571 	4933 	0.056721
37.03 	0.055849 	4924 	0.055254
37.05 	0.059062 	4927 	0.058111
37.07 	0.055522 	4935 	0.054928
37.09 	0.052557 	4928 	0.051487
37.11 	0.061601 	4935 	0.060295
37.13 	0.057474 	4924 	0.056760
37.15 	0.056427 	4909 	0.054876
37.17 	0.054925 	4934 	0.054331
37.19 	0.056244 	4925 	0.055411
37.21 	0.054098 	4917 	0.053383
37.23 	0.058357 	4918 	0.057523
37.25 	0.059051 	4911 	0.058335
37.27 	0.051083 	4894 	0.050724
37.29 	0.055375 	4930 	0.054900
37.31 	0.053495 	4935 	0.052665
37.33 	0.056830 	4927 	0.056116
37.35 	0.058526 	4938 	0.057933
37.37 	0.054394 	4927 	0.053919
37.39 	0.051511 	4931 	0.050323
37.41 	0.051916 	4931 	0.051204
37.43 	0.054745 	4932 	0.053794
37.45 	0.056864 	4924 	0.055794
37.47 	0.057010 	4929 	0.056059
37.49 	0.053626 	4923 	0.053150
37.51 	0.057166 	4933 	0.056097
37.53 	0.057939 	4919 	0.056847
37.55 	0.051116 	4930 	0.050522
37.57 	0.053604 	4925 	0.052633
37.59 	0.056968 	4915 	0.056373
37.61 	0.052824 	4922 	0.051991
37.63 	0.058752 	4919 	0.057918
37.65 	0.057340 	4918 	0.055911
37.67 	0.058320 	4904 	0.057603
37.69 	0.046345 	4898 	0.045728
37.71 	0.055995 	4929 	0.055044
37.73 	0.053358 	4929 	0.052882
37.75 	0.052024 	4940 	0.050819
37.77 	0.051423 	4920 	0.050827
37.79 	0.056795 	4930 	0.055726
37.81 	0.052301 	4933 	0.051707
37.83 	0.056504 	4920 	0.055552
37.85 	0.050996 	4922 	0.050043
37.87 	0.050415 	4939 	0.049941
37.89 	0.052792 	4925 	0.051959
37.91 	0.051318 	4930 	0.050487
37.93 	0.046757 	4919 	0.046400
37.95 	0.057712 	4921 	0.056760
37.97 	0.052546 	4929 	0.051833
37.99 	0.053542 	4912 	0.052330
38.01 	0.054586 	4928 	0.053278
38.03 	0.060094 	4909 	0.059497
38.05 	0.048934 	4925 	0.047982
38.07 	0.050723 	4909 	0.049411
38.09 	0.056786 	4878 	0.056065
38.11 	0.050051 	4935 	0.048745
38.13 	0.054487 	4937 	0.053893
38.15 	0.055510 	4918 	0.054915
38.17 	0.051318 	4930 	0.051200
38.19 	0.054767 	4930 	0.053816
38.21 	0.047938 	4923 	0.047343
38.23 	0.057716 	4938 	0.057123
38.25 	0.051658 	4917 	0.050704
38.27 	0.055984 	4930 	0.055152
38.29 	0.054427 	4924 	0.053238
38.31 	0.056830 	4927 	0.055760
38.33 	0.055240 	4924 	0.054288
38.35 	0.056209 	4928 	0.055496
38.37 	0.048944 	4924 	0.048349
38.39 	0.058871 	4909 	0.058017
38.41 	0.059923 	4923 	0.059090
38.43 	0.057974 	4916 	0.056882
38.45 	0.054494 	4918 	0.053660
38.47 	0.054820 	4907 	0.053865
38.49 	0.061103 	4877 	0.059782
38.51 	0.061030 	4932 	0.060317
38.53 	0.065328 	4929 	0.064258
38.55 	0.057536 	4936 	0.056231
38.57 	0.062157 	4923 	0.060967
38.59 	0.058489 	4924 	0.057775
38.61 	0.058144 	4936 	0.057314
38.63 	0.063160 	4924 	0.062089
38.65 	0.062220 	4918 	0.061029
38.67 	0.066437 	4937 	0.065607
38.69 	0.060138 	4922 	0.059305
38.71 	0.058489 	4924 	0.058132
38.73 	0.066490 	4918 	0.064942
38.75 	0.063122 	4927 	0.062052
38.77 	0.057079 	4923 	0.056722
38.79 	0.066477 	4934 	0.065646
38.81 	0.055171 	4912 	0.054694
38.83 	0.056922 	4919 	0.055116
38.85 	0.052321 	4912 	0.051725
38.87 	0.050092 	4911 	0.049376
38.89 	0.051868 	4897 	0.051151
38.91 	0.054660 	4903 	0.053804
38.93 	0.056096 	4938 	0.055127
38.95 	0.052257 	4918 	0.051185
38.97 	0.051308 	4931 	0.050101
38.99 	0.053879 	4937 	0.052910
39.01 	0.052257 	4918 	0.051046
39.03 	0.049047 	4934 	0.048216
39.05 	0.045076 	4925 	0.044481
39.07 	0.047929 	4924 	0.047929
39.09 	0.044079 	4923 	0.043603
39.11 	0.047049 	4931 	0.046812
39.13 	0.050579 	4923 	0.049746
39.15 	0.048627 	4915 	0.047912
39.17 	0.045372 	4937 	0.044403
39.19 	0.049420 	4917 	0.048229
39.21 	0.050713 	4910 	0.049997
39.23 	0.048528 	4925 	0.047933
39.25 	0.050386 	4922 	0.050386
39.27 	0.048880 	4910 	0.048403
39.29 	0.048153 	4901 	0.047675
39.31 	0.049550 	4884 	0.048350
39.33 	0.052525 	4931 	0.051436
39.35 	0.043972 	4935 	0.043259
39.37 	0.047880 	4929 	0.047167
39.39 	0.048083 	4929 	0.047251
39.41 	0.045630 	4931 	0.044798
39.43 	0.043381 	4933 	0.042431
39.45 	0.045076 	4925 	0.044600
39.47 	0.042048 	4923 	0.040858
39.49 	0.047436 	4933 	0.046367
39.51 	0.042242 	4924 	0.041290
39.53 	0.050985 	4923 	0.050033
39.55 	0.047571 	4919 	0.046856
39.57 	0.043381 	4933 	0.043025
39.59 	0.046417 	4912 	0.045463
39.61 	0.047329 	4923 	0.046615
39.63 	0.046323 	4922 	0.045847
39.65 	0.048721 	4926 	0.048008
39.67 	0.047018 	4913 	0.045826
39.69 	0.044548 	4916 	0.044191
39.71 	0.052707 	4895 	0.051749
39.73 	0.051956 	4908 	0.051001
39.75 	0.049716 	4928 	0.049478
39.77 	0.051064 	4935 	0.050589
39.79 	0.045879 	4926 	0.045403
39.81 	0.045870 	4927 	0.044919
39.83 	0.051074 	4934 	0.050718
39.85 	0.046073 	4927 	0.045359
39.87 	0.049746 	4925 	0.048676
39.89 	0.042359 	4934 	0.041647
39.91 	0.047745 	4922 	0.047507
39.93 	0.049018 	4937 	0.048543
39.95 	0.047813 	4915 	0.047455
39.97 	0.042817 	4928 	0.041984
39.99 	0.046634 	4932 	0.046397
40.01 	0.046767 	4918 	0.045794
40.03 	0.046266 	4928 	0.045910
40.05 	0.045149 	4917 	0.044554
40.07 	0.045094 	4923 	0.044381
40.09 	0.046583 	4916 	0.045610
40.11 	0.045769 	4916 	0.045173
40.13 	0.037582 	4896 	0.036983
40.15 	0.046000 	4913 	0.045523
40.17 	0.041599 	4928 	0.041104
40.19 	0.042199 	4929 	0.041724
40.21 	0.041337 	4935 	0.040744
40.23 	0.046229 	4932 	0.045516
40.25 	0.040854 	4920 	0.040496
40.27 	0.043954 	4937 	0.043717
40.29 	0.043840 	4927 	0.043127
40.31 	0.047378 	4939 	0.046904
40.33 	0.039335 	4932 	0.038979
40.35 	0.047977 	4919 	0.047620
40.37 	0.040170 	4929 	0.039814
40.39 	0.039343 	4931 	0.039105
40.41 	0.045279 	4925 	0.044684
40.43 	0.039415 	4922 	0.038463
40.45 	0.043381 	4933 	0.042788
40.47 	0.043514 	4918 	0.043156
40.49 	0.045879 	4926 	0.045027
40.51 	0.045307 	4922 	0.044950
40.53 	0.048617 	4916 	0.048021
40.55 	0.041972 	4908 	0.041475
40.57 	0.041513 	4890 	0.041034
40.59 	0.045979 	4937 	0.045505
40.61 	0.037082 	4935 	0.036963
40.63 	0.044219 	4930 	0.043625
40.65 	0.043144 	4937 	0.042550
40.67 	0.041363 	4932 	0.041125
40.69 	0.044359 	4937 	0.043647
40.71 	0.041971 	4932 	0.041377
40.73 	0.040804 	4926 	0.040566
40.75 	0.046441 	4931 	0.045491
40.77 	0.042316 	4939 	0.041723
40.79 	0.045491 	4924 	0.044659
40.81 	0.042906 	4941 	0.042432
40.83 	0.046469 	4928 	0.046113
40.85 	0.043054 	4924 	0.042341
40.87 	0.048295 	4928 	0.047701
40.89 	0.038532 	4931 	0.038057
40.91 	0.043673 	4923 	0.043316
40.93 	0.042764 	4934 	0.042270
40.95 	0.042947 	4913 	0.042232
40.97 	0.042242 	4924 	0.041766
40.99 	0.046913 	4924 	0.046437
41.01 	0.042345 	4912 	0.041749
41.03 	0.037920 	4905 	0.037443
41.05 	0.041532 	4936 	0.041176
41.07 	0.043002 	4930 	0.042527
41.09 	0.038874 	4939 	0.038518
41.11 	0.043161 	4935 	0.042686
41.13 	0.047204 	4936 	0.046611
41.15 	0.043716 	4941 	0.043123
41.17 	0.043575 	4934 	0.042625
41.19 	0.045233 	4930 	0.044877
41.21 	0.041726 	4937 	0.041370
41.23 	0.039077 	4939 	0.038484
41.25 	0.038516 	4933 	0.038160
41.27 	0.046035 	4931 	0.045560
41.29 	0.042614 	4928 	0.041782
41.31 	0.043584 	4933 	0.043228
41.33 	0.044156 	4937 	0.043444
41.35 	0.040907 	4938 	0.040314
41.37 	0.048944 	4924 	0.048349
41.39 	0.044800 	4933 	0.043850
41.41 	0.046488 	4926 	0.045517
41.43 	0.038344 	4929 	0.037988
41.45 	0.038462 	4914 	0.038342
41.47 	0.039180 	4926 	0.038585
41.49 	0.042927 	4892 	0.042448
41.51 	0.048583 	4940 	0.047872
41.53 	0.041464 	4944 	0.041109
41.55 	0.044580 	4935 	0.044223
41.57 	0.045740 	4941 	0.045266
41.59 	0.049260 	4933 	0.048904
41.61 	0.043408 	4953 	0.042817
41.63 	0.045362 	4938 	0.044532
41.65 	0.040170 	4929 	0.039933
41.67 	0.040486 	4940 	0.040130
41.69 	0.043461 	4947 	0.043461
41.71 	0.040332 	4934 	0.039620
41.73 	0.044368 	4936 	0.043656
41.75 	0.041185 	4929 	0.040828
41.77 	0.038251 	4941 	0.037777
41.79 	0.046521 	4944 	0.045554
41.81 	0.038290 	4936 	0.037697
41.83 	0.034294 	4928 	0.033818
41.85 	0.043531 	4939 	0.042938
41.87 	0.041945 	4935 	0.041589
41.89 	0.045003 	4933 	0.044409
41.91 	0.040519 	4936 	0.040281
41.93 	0.037105 	4932 	0.036610
41.95 	0.038937 	4931 	0.038343
41.97 	0.037444 	4914 	0.037086
41.99 	0.040367 	4905 	0.039889
42.01 	0.039660 	4942 	0.038949
42.03 	0.040696 	4939 	0.039866
42.05 	0.043417 	4952 	0.042944
42.07 	0.038687 	4937 	0.038332
42.09 	0.042846 	4948 	0.042254
42.11 	0.042063 	4945 	0.041589
42.13 	0.041658 	4945 	0.041303
42.15 	0.039287 	4938 	0.038694
42.17 	0.042294 	4918 	0.042055
42.19 	0.039527 	4908 	0.039289
42.21 	0.040400 	4901 	0.040041
42.23 	0.036182 	4892 	0.035942
42.25 	0.036817 	4889 	0.036578
42.27 	0.039598 	4874 	0.038997
42.29 	0.035986 	4863 	0.035384
42.31 	0.040577 	4855 	0.040094
42.33 	0.041994 	4834 	0.041752
42.35 	0.041546 	4838 	0.041062
42.37 	0.036025 	4830 	0.035661
42.39 	0.037052 	4804 	0.036321
42.41 	0.040799 	4804 	0.040434
42.43 	0.039023 	4792 	0.038412
42.45 	0.043551 	4776 	0.042672
42.47 	0.039244 	4765 	0.038507
42.49 	0.039874 	4765 	0.039505
42.51 	0.038583 	4743 	0.037966
42.53 	0.040186 	4728 	0.039691
42.55 	0.045879 	4708 	0.045382
42.57 	0.040592 	4730 	0.040468
42.59 	0.041235 	4729 	0.040987
42.61 	0.040782 	4708 	0.039890
42.63 	0.037588 	4709 	0.037588
42.65 	0.045037 	4685 	0.045037
42.67 	0.045687 	4684 	0.045062
42.69 	0.037869 	4674 	0.037618
42.71 	0.039674 	4663 	0.039172
42.73 	0.040733 	4640 	0.040354
42.75 	0.036820 	4617 	0.036440
42.77 	0.041739 	4600 	0.041081
42.79 	0.042340 	4582 	0.041700
42.81 	0.042087 	4562 	0.041445
42.83 	0.039683 	4536 	0.039145
42.85 	0.038207 	4528 	0.037948
42.87 	0.042898 	4499 	0.042486
42.89 	0.041295 	4480 	0.040772
42.91 	0.042639 	4456 	0.041982
42.93 	0.044534 	4446 	0.043854
42.95 	0.037817 	4416 	0.037132
42.97 	0.036583 	4401 	0.036316
42.99 	0.042873 	4385 	0.041938
43.01 	0.039422 	4363 	0.039020
43.03 	0.038080 	4333 	0.037404
43.05 	0.040925 	4325 	0.040112
43.07 	0.041667 	4296 	0.040849
43.09 	0.038991 	4283 	0.038308
43.11 	0.044888 	4255 	0.044200
43.13 	0.037055 	4237 	0.037055
43.15 	0.038279 	4206 	0.037722
43.17 	0.039962 	4179 	0.039238
43.19 	0.036958 	4194 	0.036818
43.21 	0.035235 	4172 	0.034673
43.23 	0.041406 	4154 	0.040983
43.25 	0.041354 	4135 	0.040646
43.27 	0.045554 	4105 	0.044983
43.29 	0.043171 	4100 	0.042313
43.31 	0.036529 	4079 	0.036241
43.33 	0.037275 	4051 	0.036986
43.35 	0.034722 	4032 	0.034117
43.37 	0.037360 	4015 	0.036922
43.39 	0.038731 	4002 	0.037852
43.41 	0.046576 	3972 	0.045691
43.43 	0.040152 	3960 	0.039856
43.45 	0.039390 	3935 	0.038795
43.47 	0.038766 	3921 	0.038317
43.49 	0.036695 	3897 	0.036244
43.51 	0.030952 	3877 	0.030650
43.53 	0.037536 	3863 	0.036929
43.55 	0.040486 	2964 	0.039893
43.57 	0.035299 	2238 	0.035038
43.59 	0.038373 	1746 	0.037031
43.61 	0.044412 	1351 	0.043544
43.63 	0.041958 	1001 	0.040788
43.65 	0.026201 	687 	0.026201
43.67 	0.043825 	502 	0.043825
43.69 	0.029973 	367 	0.029973
43.71 	0.041841 	239 	0.041841
43.73 	0.033333 	120 	0.033333
43.75 	0.062500 	16 	0.062500