File: Example_Data/25SC_s1_0051.000.dat
#F C:\frames\spec\25SC_s1_0051.000
#C title =s:51 frm:0 25SC_s1
#C wavelength =0.15406

#S 1  fr_average C:\frames\spec\25SC_s1_0051.000 C:\win32app\speccom\mask.axs chi 0 180 0 360 0.02
#C 2 theta =0.000000 to 180 deg
#C   q   =0.000000 to 81.568 nm^-1
#C  chi  =0.000000 to 360 deg
#C collumns:
#C  1 position (2theta or chi in degrees)
#C  2 average intensity (sum of all counts in the region divided with number of pixels)
#C  3 Number of pixels in region)
#C  4 error (sum of sqrt(intensity) for all pixels divided by number)
#N 4
#L TTh  Int  N_pix  Err
32.99 	0.032787 	61 	0.032787
33.01 	0.056128 	873 	0.055457
33.03 	0.053918 	1391 	0.053076
33.05 	0.063176 	1757 	0.062509
33.07 	0.060000 	2050 	0.059429
33.09 	0.058372 	2347 	0.057873
33.11 	0.067080 	2579 	0.065490
33.13 	0.061941 	2793 	0.059634
33.15 	0.052684 	2999 	0.051708
33.17 	0.055608 	3201 	0.054327
33.19 	0.060144 	3342 	0.059267
33.21 	0.057625 	3436 	0.056432
33.23 	0.058189 	3523 	0.057856
33.25 	0.057863 	3612 	0.057376
33.27 	0.059780 	3630 	0.058489
33.29 	0.051535 	3648 	0.051375
33.31 	0.061475 	3660 	0.059715
33.33 	0.056430 	3686 	0.056430
33.35 	0.063617 	3694 	0.062507
33.37 	0.057351 	3714 	0.056404
33.39 	0.062215 	3729 	0.061587
33.41 	0.055615 	3740 	0.054832
33.43 	0.053975 	3761 	0.053040
33.45 	0.049828 	3773 	0.049672
33.47 	0.056345 	3798 	0.054752
33.49 	0.061433 	3809 	0.060818
33.51 	0.052163 	3815 	0.051241
33.53 	0.067951 	3841 	0.066731
33.55 	0.059068 	3843 	0.058306
33.57 	0.057003 	3877 	0.056096
33.59 	0.063402 	3880 	0.061741
33.61 	0.057559 	3909 	0.056660
33.63 	0.060219 	3919 	0.059173
33.65 	0.056983 	3931 	0.055170
33.67 	0.061204 	3954 	0.060167
33.69 	0.066279 	3953 	0.064945
33.71 	0.058365 	3975 	0.057186
33.73 	0.057443 	4004 	0.057004
33.75 	0.057764 	3999 	0.057471
33.77 	0.052919 	4025 	0.052046
33.79 	0.062856 	4041 	0.061696
33.81 	0.060426 	4038 	0.058516
33.83 	0.056543 	4050 	0.055241
33.85 	0.051720 	4099 	0.051148
33.87 	0.061542 	4111 	0.059524
33.89 	0.061150 	4121 	0.059729
33.91 	0.056640 	4149 	0.055511
33.93 	0.065767 	4151 	0.064356
33.95 	0.058838 	4181 	0.057857
33.97 	0.063962 	4190 	0.062424
33.99 	0.060952 	4200 	0.060116
34.01 	0.062426 	4213 	0.061453
34.03 	0.062912 	4244 	0.061647
34.05 	0.060677 	4252 	0.059851
34.07 	0.053655 	4268 	0.052694
34.09 	0.063462 	4286 	0.062073
34.11 	0.063459 	4302 	0.062642
34.13 	0.054318 	4308 	0.052958
34.15 	0.054953 	4331 	0.053578
34.17 	0.060230 	4350 	0.059287
34.19 	0.057084 	4362 	0.055987
34.21 	0.057195 	4371 	0.055933
34.23 	0.058275 	4393 	0.057341
34.25 	0.061989 	4404 	0.061191
34.27 	0.059475 	4422 	0.058681
34.29 	0.055242 	4435 	0.054296
34.31 	0.057873 	4458 	0.056822
34.33 	0.056811 	4471 	0.055893
34.35 	0.058207 	4484 	0.057292
34.37 	0.057448 	4491 	0.056535
34.39 	0.053754 	4502 	0.052843
34.41 	0.055678 	4526 	0.054902
34.43 	0.057061 	4539 	0.056545
34.45 	0.052260 	4535 	0.051206
34.47 	0.052918 	4592 	0.052153
34.49 	0.055253 	4597 	0.054361
34.51 	0.056882 	4606 	0.055865
34.53 	0.060306 	4643 	0.059423
34.55 	0.057506 	4643 	0.056875
34.57 	0.050644 	4660 	0.049010
34.59 	0.057540 	4675 	0.056412
34.61 	0.056845 	4697 	0.055972
34.63 	0.054565 	4710 	0.054316
34.65 	0.057615 	4721 	0.056498
34.67 	0.052310 	4741 	0.050951
34.69 	0.057005 	4754 	0.056512
34.71 	0.052455 	4766 	0.051349
34.73 	0.053896 	4787 	0.053284
34.75 	0.054285 	4808 	0.053675
34.77 	0.053964 	4818 	0.053356
34.79 	0.057629 	4824 	0.056779
34.81 	0.054489 	4845 	0.053623
34.83 	0.053887 	4862 	0.053646
34.85 	0.058123 	4869 	0.057521
34.87 	0.050740 	4868 	0.050018
34.89 	0.049570 	4882 	0.048710
34.91 	0.054281 	4882 	0.053561
34.93 	0.053684 	4899 	0.052847
34.95 	0.049489 	4890 	0.048650
34.97 	0.062628 	4902 	0.061552
34.99 	0.060241 	4897 	0.059404
35.01 	0.060735 	4923 	0.060140
35.03 	0.054623 	4943 	0.053912
35.05 	0.055185 	4947 	0.054356
35.07 	0.057692 	4940 	0.056269
35.09 	0.058147 	4953 	0.056727
35.11 	0.052961 	4947 	0.051659
35.13 	0.054861 	4958 	0.054034
35.15 	0.057120 	4937 	0.056487
35.17 	0.056005 	4946 	0.055176
35.19 	0.059085 	4942 	0.057070
35.21 	0.055005 	4945 	0.054057
35.23 	0.058847 	4945 	0.058018
35.25 	0.055027 	4943 	0.054553
35.27 	0.055376 	4948 	0.054883
35.29 	0.057836 	4945 	0.056652
35.31 	0.052504 	4933 	0.051554
35.33 	0.061097 	4943 	0.060267
35.35 	0.056860 	4942 	0.056385
35.37 	0.061146 	4939 	0.060434
35.39 	0.057836 	4945 	0.057125
35.41 	0.059886 	4926 	0.058459
35.43 	0.052706 	4933 	0.051875
35.45 	0.056715 	4937 	0.056121
35.47 	0.051308 	4931 	0.050338
35.49 	0.050102 	4910 	0.049744
35.51 	0.058871 	4926 	0.057682
35.53 	0.054354 	4949 	0.053151
35.55 	0.056421 	4945 	0.055591
35.57 	0.057571 	4933 	0.056146
35.59 	0.054398 	4945 	0.053806
35.61 	0.056050 	4942 	0.055220
35.63 	0.062917 	4943 	0.061140
35.65 	0.056016 	4945 	0.055542
35.67 	0.056050 	4942 	0.055102
35.69 	0.055600 	4946 	0.054653
35.71 	0.052866 	4937 	0.051798
35.73 	0.055916 	4936 	0.054966
35.75 	0.063476 	4931 	0.062506
35.77 	0.062816 	4951 	0.061632
35.79 	0.061638 	4932 	0.060213
35.81 	0.058180 	4933 	0.056873
35.83 	0.062475 	4946 	0.061152
35.85 	0.052077 	4935 	0.051246
35.87 	0.059110 	4923 	0.057801
35.89 	0.055736 	4934 	0.055023
35.91 	0.052365 	4927 	0.051889
35.93 	0.056221 	4927 	0.054913
35.95 	0.059182 	4917 	0.058468
35.97 	0.057207 	4912 	0.055776
35.99 	0.052642 	4939 	0.052286
36.01 	0.058418 	4930 	0.056873
36.03 	0.062108 	4943 	0.061160
36.05 	0.058038 	4945 	0.057565
36.07 	0.059729 	4939 	0.058305
36.09 	0.061336 	4940 	0.059676
36.11 	0.055792 	4929 	0.054604
36.13 	0.060097 	4942 	0.058892
36.15 	0.052237 	4939 	0.051407
36.17 	0.057665 	4925 	0.056832
36.19 	0.057692 	4940 	0.057099
36.21 	0.056198 	4929 	0.055604
36.23 	0.063425 	4935 	0.062356
36.25 	0.059705 	4941 	0.059230
36.27 	0.060305 	4925 	0.058758
36.29 	0.060434 	4931 	0.059840
36.31 	0.060674 	4928 	0.059703
36.33 	0.059801 	4933 	0.058357
36.35 	0.052343 	4929 	0.051511
36.37 	0.060329 	4923 	0.059020
36.39 	0.061166 	4921 	0.059381
36.41 	0.056577 	4896 	0.055859
36.43 	0.059456 	4928 	0.058605
36.45 	0.055984 	4930 	0.055014
36.47 	0.056321 	4936 	0.055253
36.49 	0.050384 	4942 	0.049792
36.51 	0.056761 	4933 	0.055692
36.53 	0.060085 	4943 	0.059492
36.55 	0.053582 	4927 	0.052988
36.57 	0.057560 	4934 	0.056610
36.59 	0.063171 	4939 	0.062558
36.61 	0.051511 	4931 	0.050560
36.63 	0.058406 	4931 	0.056842
36.65 	0.053528 	4932 	0.052934
36.67 	0.054767 	4930 	0.053341
36.69 	0.059241 	4929 	0.058172
36.71 	0.057102 	4921 	0.056269
36.73 	0.056853 	4925 	0.055882
36.75 	0.053600 	4944 	0.053008
36.77 	0.060581 	4919 	0.060105
36.79 	0.059744 	4921 	0.059268
36.81 	0.063263 	4916 	0.062190
36.83 	0.059003 	4915 	0.058030
36.85 	0.063699 	4898 	0.062982
36.87 	0.057848 	4944 	0.056051
36.89 	0.056143 	4916 	0.055190
36.91 	0.054240 	4941 	0.053766
36.93 	0.062272 	4930 	0.060608
36.95 	0.059801 	4933 	0.059208
36.97 	0.055533 	4934 	0.054821
36.99 	0.056332 	4935 	0.055363
37.01 	0.055139 	4933 	0.054189
37.03 	0.061129 	4924 	0.059682
37.05 	0.062513 	4927 	0.061562
37.07 	0.058359 	4935 	0.057765
37.09 	0.058847 	4928 	0.057540
37.11 	0.056332 	4935 	0.055739
37.13 	0.056864 	4924 	0.055675
37.15 	0.060705 	4909 	0.059989
37.17 	0.056952 	4934 	0.056477
37.19 	0.056244 	4925 	0.055173
37.21 	0.056742 	4917 	0.055312
37.23 	0.062220 	4918 	0.061387
37.25 	0.057829 	4911 	0.057114
37.27 	0.052105 	4894 	0.051626
37.29 	0.053753 	4930 	0.053277
37.31 	0.057751 	4935 	0.057157
37.33 	0.060686 	4927 	0.059854
37.35 	0.061563 	4938 	0.060496
37.37 	0.053785 	4927 	0.053191
37.39 	0.054958 	4931 	0.054602
37.41 	0.055161 	4931 	0.054191
37.43 	0.053731 	4932 	0.052662
37.45 	0.063363 	4924 	0.063006
37.47 	0.057618 	4929 	0.056430
37.49 	0.056470 	4923 	0.055994
37.51 	0.056355 	4933 	0.055286
37.53 	0.057735 	4919 	0.056049
37.55 	0.057606 	4930 	0.055943
37.57 	0.057868 	4925 	0.057273
37.59 	0.054527 	4915 	0.054050
37.61 	0.058919 	4922 	0.058205
37.63 	0.058955 	4919 	0.058241
37.65 	0.051444 	4918 	0.050372
37.67 	0.061582 	4904 	0.060507
37.69 	0.056350 	4898 	0.054675
37.71 	0.054778 	4929 	0.054302
37.73 	0.064922 	4929 	0.063377
37.75 	0.059919 	4940 	0.058852
37.77 	0.057927 	4920 	0.056974
37.79 	0.050710 	4930 	0.050591
37.81 	0.049463 	4933 	0.049107
37.83 	0.061789 	4920 	0.061193
37.85 	0.055059 	4922 	0.054107
37.87 	0.057502 	4939 	0.056671
37.89 	0.052386 	4925 	0.051672
37.91 	0.054361 	4930 	0.053767
37.93 	0.047571 	4919 	0.046856
37.95 	0.055477 	4921 	0.054643
37.97 	0.054778 	4929 	0.053708
37.99 	0.061686 	4912 	0.060235
38.01 	0.063718 	4928 	0.062053
38.03 	0.057038 	4909 	0.055845
38.05 	0.064772 	4925 	0.063463
38.07 	0.059890 	4909 	0.058180
38.09 	0.059246 	4878 	0.058285
38.11 	0.056535 	4935 	0.056416
38.13 	0.057727 	4937 	0.056897
38.15 	0.058560 	4918 	0.057250
38.17 	0.055781 	4930 	0.054593
38.19 	0.058418 	4930 	0.057467
38.21 	0.065001 	4923 	0.063811
38.23 	0.067639 	4938 	0.066334
38.25 	0.068944 	4917 	0.067157
38.27 	0.069574 	4930 	0.067891
38.29 	0.072096 	4924 	0.071144
38.31 	0.070834 	4927 	0.069368
38.33 	0.074736 	4924 	0.073289
38.35 	0.072240 	4928 	0.070675
38.37 	0.076767 	4924 	0.075220
38.39 	0.080057 	4909 	0.078386
38.41 	0.084908 	4923 	0.082984
38.43 	0.082587 	4916 	0.080423
38.45 	0.088654 	4918 	0.086609
38.47 	0.077033 	4907 	0.074745
38.49 	0.081403 	4877 	0.079961
38.51 	0.078264 	4932 	0.076958
38.53 	0.077298 	4929 	0.075396
38.55 	0.079011 	4936 	0.077330
38.57 	0.073532 	4923 	0.071252
38.59 	0.069050 	4924 	0.067622
38.61 	0.067464 	4936 	0.065565
38.63 	0.067425 	4924 	0.065521
38.65 	0.066287 	4918 	0.065215
38.67 	0.066842 	4937 	0.065300
38.69 	0.064405 	4922 	0.063076
38.71 	0.064175 	4924 	0.062986
38.73 	0.054087 	4918 	0.053253
38.75 	0.057845 	4927 	0.056893
38.77 	0.052610 	4923 	0.051777
38.79 	0.059789 	4934 	0.058839
38.81 	0.059853 	4912 	0.058899
38.83 	0.047164 	4919 	0.046450
38.85 	0.057614 	4912 	0.056898
38.87 	0.050499 	4911 	0.050022
38.89 	0.054932 	4897 	0.053855
38.91 	0.049561 	4903 	0.048367
38.93 	0.053868 	4938 	0.053275
38.95 	0.049410 	4918 	0.049172
38.97 	0.047860 	4931 	0.047266
38.99 	0.051246 	4937 	0.050652
39.01 	0.040260 	4918 	0.039903
39.03 	0.052493 	4934 	0.051781
39.05 	0.047107 	4925 	0.046750
39.07 	0.049756 	4924 	0.049280
39.09 	0.050376 	4923 	0.049305
39.11 	0.047252 	4931 	0.046658
39.13 	0.045298 	4923 	0.044465
39.15 	0.047406 	4915 	0.046691
39.17 	0.045169 	4937 	0.044457
39.19 	0.045353 	4917 	0.044995
39.21 	0.044807 	4910 	0.044210
39.23 	0.047513 	4925 	0.046323
39.25 	0.043681 	4922 	0.042729
39.27 	0.045621 	4910 	0.045502
39.29 	0.048153 	4901 	0.047436
39.31 	0.042793 	4884 	0.042193
39.33 	0.046441 	4931 	0.045609
39.35 	0.048024 	4935 	0.047668
39.37 	0.044025 	4929 	0.043550
39.39 	0.045242 	4929 	0.044886
39.41 	0.041979 	4931 	0.041504
39.43 	0.042570 	4933 	0.041977
39.45 	0.042843 	4925 	0.042129
39.47 	0.042657 	4923 	0.042419
39.49 	0.047841 	4933 	0.047485
39.51 	0.042648 	4924 	0.041934
39.53 	0.039813 	4923 	0.039337
39.55 	0.043098 	4919 	0.042364
39.57 	0.045814 	4933 	0.045101
39.59 	0.042142 	4912 	0.042022
39.61 	0.040219 	4923 	0.039743
39.63 	0.045307 	4922 	0.044474
39.65 	0.047503 	4926 	0.047265
39.67 	0.047018 	4913 	0.046541
39.69 	0.044345 	4916 	0.043988
39.71 	0.042697 	4895 	0.042577
39.73 	0.041972 	4908 	0.041734
39.75 	0.040787 	4928 	0.039698
39.77 	0.046403 	4935 	0.045810
39.79 	0.040195 	4926 	0.039600
39.81 	0.043840 	4927 	0.043721
39.83 	0.047426 	4934 	0.046595
39.85 	0.041607 	4927 	0.041013
39.87 	0.049340 	4925 	0.048508
39.89 	0.048237 	4934 	0.047287
39.91 	0.045916 	4922 	0.045202
39.93 	0.044967 	4937 	0.044848
39.95 	0.044761 	4915 	0.043927
39.97 	0.044237 	4928 	0.043762
39.99 	0.045418 	4932 	0.044943
40.01 	0.045750 	4918 	0.045274
40.03 	0.040990 	4928 	0.040753
40.05 	0.039252 	4917 	0.038894
40.07 	0.043266 	4923 	0.042414
40.09 	0.043328 	4916 	0.042494
40.11 	0.043328 	4916 	0.042613
40.13 	0.044935 	4896 	0.044576
40.15 	0.040098 	4913 	0.039382
40.17 	0.043019 	4928 	0.042663
40.19 	0.037533 	4929 	0.036800
40.21 	0.043566 	4935 	0.042973
40.23 	0.041363 	4932 	0.040531
40.25 	0.045732 	4920 	0.044898
40.27 	0.043549 	4937 	0.042718
40.29 	0.044246 	4927 	0.043652
40.31 	0.042721 	4939 	0.042721
40.33 	0.035483 	4932 	0.034632
40.35 	0.043708 	4919 	0.042994
40.37 	0.041591 	4929 	0.040878
40.39 	0.042993 	4931 	0.042637
40.41 	0.043046 	4925 	0.042570
40.43 	0.041650 	4922 	0.041412
40.45 	0.037300 	4933 	0.036944
40.47 	0.038837 	4918 	0.038241
40.49 	0.044052 	4926 	0.043576
40.51 	0.038196 	4922 	0.037601
40.53 	0.043328 	4916 	0.042732
40.55 	0.041565 	4908 	0.041326
40.57 	0.039673 	4890 	0.039313
40.59 	0.040308 	4937 	0.040071
40.61 	0.043161 	4935 	0.042686
40.63 	0.042799 	4930 	0.042067
40.65 	0.039093 	4937 	0.038737
40.67 	0.037105 	4932 	0.036748
40.69 	0.041928 	4937 	0.041098
40.71 	0.038929 	4932 	0.038573
40.73 	0.044052 	4926 	0.043338
40.75 	0.036707 	4931 	0.036588
40.77 	0.041911 	4939 	0.041911
40.79 	0.041227 	4924 	0.040751
40.81 	0.042906 	4941 	0.042314
40.83 	0.038961 	4928 	0.038367
40.85 	0.046913 	4924 	0.046794
40.87 	0.043019 	4928 	0.042187
40.89 	0.046035 	4931 	0.045679
40.91 	0.041641 	4923 	0.041284
40.93 	0.043981 	4934 	0.043031
40.95 	0.042947 	4913 	0.042232
40.97 	0.042039 	4924 	0.041444
40.99 	0.039805 	4924 	0.039210
41.01 	0.037663 	4912 	0.037067
41.03 	0.045668 	4905 	0.044593
41.05 	0.043152 	4936 	0.042440
41.07 	0.043408 	4930 	0.042932
41.09 	0.040292 	4939 	0.039699
41.11 	0.038906 	4935 	0.038431
41.13 	0.041532 	4936 	0.041057
41.15 	0.040275 	4941 	0.040038
41.17 	0.042562 	4934 	0.042443
41.19 	0.041988 	4930 	0.041394
41.21 	0.044561 	4937 	0.044206
41.23 	0.032598 	4939 	0.032479
41.25 	0.045611 	4933 	0.045374
41.27 	0.046846 	4931 	0.045777
41.29 	0.040179 	4928 	0.039822
41.31 	0.042773 	4933 	0.042536
41.33 	0.044359 	4937 	0.044003
41.35 	0.039895 	4938 	0.039302
41.37 	0.042039 	4924 	0.041682
41.39 	0.036692 	4933 	0.036335
41.41 	0.042022 	4926 	0.041546
41.43 	0.039562 	4929 	0.039205
41.45 	0.038462 	4914 	0.037985
41.47 	0.036744 	4926 	0.036030
41.49 	0.040474 	4892 	0.039995
41.51 	0.044939 	4940 	0.044228
41.53 	0.040049 	4944 	0.039930
41.55 	0.041135 	4935 	0.040522
41.57 	0.039466 	4941 	0.038873
41.59 	0.036692 	4933 	0.036217
41.61 	0.043610 	4953 	0.042782
41.63 	0.035844 	4938 	0.035726
41.65 	0.035910 	4929 	0.035316
41.67 	0.046356 	4940 	0.045645
41.69 	0.040429 	4947 	0.040073
41.71 	0.035874 	4934 	0.035755
41.73 	0.039911 	4936 	0.039555
41.75 	0.037330 	4929 	0.036974
41.77 	0.041692 	4941 	0.041336
41.79 	0.036812 	4944 	0.036575
41.81 	0.038493 	4936 	0.037899
41.83 	0.037744 	4928 	0.037625
41.85 	0.042519 	4939 	0.041807
41.87 	0.039514 	4935 	0.039158
41.89 	0.040543 	4933 	0.039950
41.91 	0.034846 	4936 	0.034490
41.93 	0.041565 	4932 	0.040496
41.95 	0.033056 	4931 	0.032819
41.97 	0.036834 	4914 	0.036238
41.99 	0.037309 	4905 	0.036712
42.01 	0.039458 	4942 	0.038964
42.03 	0.041709 	4939 	0.040760
42.05 	0.037561 	4952 	0.037087
42.07 	0.039903 	4937 	0.039784
42.09 	0.040016 	4948 	0.039187
42.11 	0.037209 	4945 	0.037091
42.13 	0.042265 	4945 	0.041910
42.15 	0.034022 	4938 	0.033785
42.17 	0.038634 	4918 	0.038395
42.19 	0.036879 	4908 	0.036620
42.21 	0.043461 	4901 	0.043221
42.23 	0.042110 	4892 	0.041990
42.25 	0.038249 	4889 	0.037650
42.27 	0.040624 	4874 	0.039542
42.29 	0.039276 	4863 	0.038794
42.31 	0.041195 	4855 	0.040229
42.33 	0.034961 	4834 	0.033991
42.35 	0.035138 	4838 	0.034654
42.37 	0.041615 	4830 	0.041130
42.39 	0.034555 	4804 	0.034189
42.41 	0.038926 	4804 	0.038316
42.43 	0.036311 	4792 	0.035944
42.45 	0.034757 	4776 	0.034389
42.47 	0.037985 	4765 	0.037002
42.49 	0.038825 	4765 	0.038333
42.51 	0.037951 	4743 	0.037457
42.53 	0.036802 	4728 	0.036306
42.55 	0.037808 	4708 	0.037559
42.57 	0.039323 	4730 	0.038828
42.59 	0.034468 	4729 	0.034220
42.61 	0.034622 	4708 	0.034373
42.63 	0.039924 	4709 	0.039426
42.65 	0.034152 	4685 	0.033901
42.67 	0.038856 	4684 	0.037835
42.69 	0.034018 	4674 	0.033893
42.71 	0.039888 	4663 	0.039260
42.73 	0.037284 	4640 	0.037284
42.75 	0.034438 	4617 	0.034184
42.77 	0.033043 	4600 	0.032916
42.79 	0.039502 	4582 	0.038970
42.81 	0.035511 	4562 	0.035126
42.83 	0.032628 	4536 	0.032499
42.85 	0.036882 	4528 	0.036494
42.87 	0.037786 	4499 	0.037526
42.89 	0.037946 	4480 	0.037816
42.91 	0.037926 	4456 	0.037401
42.93 	0.037112 	4446 	0.036980
42.95 	0.035326 	4416 	0.034663
42.97 	0.035446 	4401 	0.035047
42.99 	0.036488 	4385 	0.036221
43.01 	0.038506 	4363 	0.038237
43.03 	0.036464 	4333 	0.035924
43.05 	0.036532 	4325 	0.035855
43.07 	0.035847 	4296 	0.035575
43.09 	0.036657 	4283 	0.036383
43.11 	0.035488 	4255 	0.035350
43.13 	0.042011 	4237 	0.041458
43.15 	0.032810 	4206 	0.032810
43.17 	0.037090 	4179 	0.036810
43.19 	0.036958 	4194 	0.036678
43.21 	0.035235 	4172 	0.034954
43.23 	0.031295 	4154 	0.031295
43.25 	0.038210 	4135 	0.038069
43.27 	0.036054 	4105 	0.035911
43.29 	0.035122 	4100 	0.035122
43.31 	0.036774 	4079 	0.036343
43.33 	0.040484 	4051 	0.039905
43.35 	0.038194 	4032 	0.037759
43.37 	0.031382 	4015 	0.031382
43.39 	0.033983 	4002 	0.033690
43.41 	0.034240 	3972 	0.034092
43.43 	0.038384 	3960 	0.037940
43.45 	0.028208 	3935 	0.028060
43.47 	0.039786 	3921 	0.039338
43.49 	0.042340 	3897 	0.041739
43.51 	0.033789 	3877 	0.033336
43.53 	0.040383 	3863 	0.040080
43.55 	0.039811 	2964 	0.039613
43.57 	0.037534 	2238 	0.037534
43.59 	0.040664 	1746 	0.039658
43.61 	0.029608 	1351 	0.029174
43.63 	0.030969 	1001 	0.030384
43.65 	0.027656 	687 	0.027656
43.67 	0.047809 	502 	0.047809
43.69 	0.040872 	367 	0.039276
43.71 	0.037657 	239 	0.037657
43.73 	0.025000 	120 	0.025000
43.75 	0.000000 	16 	0.000000