File: Example_Data/25SC_s1_0026.002.dat
#F C:\frames\spec\25SC_s1_0026.002
#C title =s:26 frm:2 25SC_s1
#C wavelength =0.15406

#S 1  fr_average C:\frames\spec\25SC_s1_0026.002 C:\win32app\speccom\mask.axs chi 0 180 0 360 0.02
#C 2 theta =0.000000 to 180 deg
#C   q   =0.000000 to 81.568 nm^-1
#C  chi  =0.000000 to 360 deg
#C collumns:
#C  1 position (2theta or chi in degrees)
#C  2 average intensity (sum of all counts in the region divided with number of pixels)
#C  3 Number of pixels in region)
#C  4 error (sum of sqrt(intensity) for all pixels divided by number)
#N 4
#L TTh  Int  N_pix  Err
32.99 	0.049180 	61 	0.049180
33.01 	0.061856 	873 	0.061185
33.03 	0.055356 	1391 	0.054092
33.05 	0.055777 	1757 	0.054443
33.07 	0.044390 	2050 	0.043533
33.09 	0.059225 	2347 	0.058226
33.11 	0.061264 	2579 	0.060583
33.13 	0.063373 	2793 	0.062534
33.15 	0.059687 	2999 	0.058124
33.17 	0.056857 	3201 	0.056308
33.19 	0.057451 	3342 	0.056370
33.21 	0.055879 	3436 	0.055197
33.23 	0.055067 	3523 	0.053903
33.25 	0.060078 	3612 	0.058780
33.27 	0.056749 	3630 	0.055109
33.29 	0.057840 	3648 	0.056395
33.31 	0.065027 	3660 	0.064387
33.33 	0.061313 	3686 	0.060360
33.35 	0.059556 	3694 	0.058446
33.37 	0.061928 	3714 	0.060351
33.39 	0.060606 	3729 	0.059978
33.41 	0.051337 	3740 	0.050397
33.43 	0.065142 	3761 	0.063896
33.45 	0.065730 	3773 	0.064463
33.47 	0.057662 	3798 	0.055965
33.49 	0.055133 	3809 	0.054671
33.51 	0.046134 	3815 	0.045519
33.53 	0.060401 	3841 	0.059791
33.55 	0.062711 	3843 	0.061492
33.57 	0.055197 	3877 	0.054442
33.59 	0.062113 	3880 	0.061057
33.61 	0.060373 	3909 	0.059749
33.63 	0.064047 	3919 	0.061805
33.65 	0.058001 	3931 	0.057106
33.67 	0.061963 	3954 	0.061074
33.69 	0.060966 	3953 	0.060077
33.71 	0.064906 	3975 	0.063285
33.73 	0.057193 	4004 	0.056608
33.75 	0.057764 	3999 	0.056422
33.77 	0.057143 	4025 	0.056270
33.79 	0.055184 	4041 	0.054025
33.81 	0.056464 	4038 	0.055883
33.83 	0.057778 	4050 	0.056765
33.85 	0.059527 	4099 	0.058241
33.87 	0.069813 	4111 	0.068673
33.89 	0.057025 	4121 	0.055604
33.91 	0.055435 	4149 	0.054424
33.93 	0.056131 	4151 	0.055284
33.95 	0.055489 	4181 	0.054345
33.97 	0.061575 	4190 	0.060736
33.99 	0.055714 	4200 	0.054738
34.01 	0.050558 	4213 	0.050141
34.03 	0.056786 	4244 	0.055958
34.05 	0.062794 	4252 	0.061554
34.07 	0.062090 	4268 	0.061129
34.09 	0.054830 	4286 	0.054556
34.11 	0.058577 	4302 	0.057760
34.13 	0.059656 	4308 	0.058977
34.15 	0.061879 	4331 	0.060933
34.17 	0.058621 	4350 	0.057409
34.19 	0.056396 	4362 	0.054919
34.21 	0.057195 	4371 	0.056257
34.23 	0.051901 	4393 	0.050434
34.25 	0.055404 	4404 	0.054052
34.27 	0.062641 	4422 	0.061317
34.29 	0.048478 	4435 	0.048082
34.31 	0.056303 	4458 	0.055778
34.33 	0.058376 	4471 	0.057066
34.35 	0.058876 	4484 	0.057809
34.37 	0.058116 	4491 	0.056790
34.39 	0.060195 	4502 	0.059155
34.41 	0.051038 	4526 	0.050391
34.43 	0.055299 	4539 	0.054653
34.45 	0.057332 	4535 	0.056686
34.47 	0.055314 	4592 	0.054676
34.49 	0.058081 	4597 	0.057699
34.51 	0.053626 	4606 	0.052354
34.53 	0.055137 	4643 	0.054506
34.55 	0.049322 	4643 	0.048691
34.57 	0.057511 	4660 	0.056736
34.59 	0.060749 	4675 	0.059496
34.61 	0.065148 	4697 	0.064524
34.63 	0.060722 	4710 	0.058981
34.65 	0.055285 	4721 	0.053776
34.67 	0.054419 	4741 	0.053430
34.69 	0.059950 	4754 	0.058964
34.71 	0.058749 	4766 	0.057643
34.73 	0.055776 	4787 	0.054308
34.75 	0.061356 	4808 	0.060138
34.77 	0.052511 	4818 	0.051397
34.79 	0.064677 	4824 	0.063341
34.81 	0.055728 	4845 	0.054760
34.83 	0.055533 	4862 	0.054569
34.85 	0.051140 	4869 	0.050899
34.87 	0.055875 	4868 	0.054171
34.89 	0.054691 	4882 	0.053731
34.91 	0.057968 	4882 	0.057008
34.93 	0.056542 	4899 	0.056064
34.95 	0.057669 	4890 	0.056710
34.97 	0.055488 	4902 	0.055010
34.99 	0.054319 	4897 	0.052505
35.01 	0.055048 	4923 	0.054334
35.03 	0.063322 	4943 	0.061525
35.05 	0.051344 	4947 	0.050989
35.07 	0.050810 	4940 	0.050098
35.09 	0.057137 	4953 	0.055954
35.11 	0.056196 	4947 	0.055722
35.13 	0.056273 	4958 	0.054954
35.15 	0.049423 	4937 	0.048474
35.17 	0.059240 	4946 	0.058648
35.19 	0.061311 	4942 	0.060244
35.21 	0.059656 	4945 	0.058590
35.23 	0.054196 	4945 	0.053722
35.25 	0.054623 	4943 	0.053793
35.27 	0.053557 	4948 	0.052847
35.29 	0.056623 	4945 	0.056130
35.31 	0.066491 	4933 	0.064710
35.33 	0.057657 	4943 	0.057183
35.35 	0.061918 	4942 	0.060377
35.37 	0.055072 	4939 	0.053411
35.39 	0.064105 	4945 	0.062802
35.41 	0.056841 	4926 	0.056247
35.43 	0.061220 	4933 	0.060152
35.45 	0.052056 	4937 	0.051225
35.47 	0.056581 	4931 	0.055274
35.49 	0.059674 	4910 	0.058839
35.51 	0.056435 	4926 	0.055841
35.53 	0.055365 	4949 	0.054299
35.55 	0.063094 	4945 	0.062265
35.57 	0.062437 	4933 	0.061368
35.59 	0.057432 	4945 	0.056839
35.61 	0.054027 	4942 	0.053434
35.63 	0.063322 	4943 	0.062492
35.65 	0.059858 	4945 	0.058654
35.67 	0.054634 	4942 	0.053448
35.69 	0.056207 	4946 	0.055260
35.71 	0.055904 	4937 	0.054817
35.73 	0.058549 	4936 	0.057837
35.75 	0.057189 	4931 	0.056239
35.77 	0.056958 	4951 	0.056012
35.79 	0.056367 	4932 	0.055298
35.81 	0.056355 	4933 	0.055643
35.83 	0.060857 	4946 	0.059791
35.85 	0.054306 	4935 	0.053356
35.87 	0.051595 	4923 	0.050881
35.89 	0.058979 	4934 	0.058029
35.91 	0.058250 	4927 	0.057656
35.93 	0.058656 	4927 	0.057824
35.95 	0.059386 	4917 	0.058552
35.97 	0.060261 	4912 	0.059307
35.99 	0.057299 	4939 	0.056232
36.01 	0.057201 	4930 	0.056726
36.03 	0.053004 	4943 	0.052037
36.05 	0.058241 	4945 	0.057767
36.07 	0.056287 	4939 	0.055575
36.09 	0.057287 	4940 	0.056339
36.11 	0.060661 	4929 	0.059354
36.13 	0.055038 	4942 	0.053834
36.15 	0.058109 	4939 	0.056785
36.17 	0.060914 	4925 	0.059843
36.19 	0.058097 	4940 	0.056437
36.21 	0.054778 	4929 	0.053689
36.23 	0.050253 	4935 	0.049185
36.25 	0.047359 	4941 	0.046292
36.27 	0.055025 	4925 	0.053717
36.29 	0.059420 	4931 	0.058707
36.31 	0.063312 	4928 	0.062004
36.33 	0.055342 	4933 	0.054629
36.35 	0.058024 	4929 	0.057073
36.37 	0.055251 	4923 	0.054299
36.39 	0.054054 	4921 	0.052983
36.41 	0.052492 	4896 	0.051415
36.43 	0.059253 	4928 	0.058283
36.45 	0.055781 	4930 	0.055424
36.47 	0.057131 	4936 	0.056182
36.49 	0.056050 	4942 	0.054845
36.51 	0.058585 	4933 	0.057754
36.53 	0.049160 	4943 	0.048094
36.55 	0.056627 	4927 	0.056151
36.57 	0.064451 	4934 	0.063145
36.59 	0.057502 	4939 	0.056197
36.61 	0.055770 	4931 	0.054919
36.63 	0.061042 	4931 	0.059854
36.65 	0.059002 	4932 	0.057439
36.67 	0.057404 	4930 	0.056453
36.69 	0.053358 	4929 	0.052763
36.71 	0.056086 	4921 	0.055491
36.73 	0.054416 	4925 	0.053703
36.75 	0.057443 	4944 	0.056140
36.77 	0.058142 	4919 	0.056832
36.79 	0.054664 	4921 	0.053830
36.81 	0.052278 	4916 	0.051563
36.83 	0.048627 	4915 	0.048011
36.85 	0.053287 	4898 	0.052091
36.87 	0.056432 	4944 	0.055247
36.89 	0.052685 	4916 	0.051613
36.91 	0.050597 	4941 	0.049748
36.93 	0.056187 	4930 	0.055355
36.95 	0.051693 	4933 	0.051336
36.97 	0.055533 	4934 	0.054821
36.99 	0.051672 	4935 	0.051197
37.01 	0.055342 	4933 	0.053917
37.03 	0.051381 	4924 	0.050905
37.05 	0.053582 	4927 	0.052750
37.07 	0.054711 	4935 	0.053880
37.09 	0.052151 	4928 	0.051200
37.11 	0.056130 	4935 	0.055180
37.13 	0.051990 	4924 	0.050781
37.15 	0.060297 	4909 	0.059581
37.17 	0.052493 	4934 	0.051543
37.19 	0.050152 	4925 	0.049162
37.21 	0.054301 	4917 	0.052991
37.23 	0.053680 	4918 	0.052470
37.25 	0.055182 	4911 	0.054467
37.27 	0.056191 	4894 	0.055593
37.29 	0.052333 	4930 	0.051620
37.31 	0.052482 	4935 	0.051889
37.33 	0.055206 	4927 	0.054612
37.35 	0.053868 	4938 	0.053512
37.37 	0.051350 	4927 	0.049923
37.39 	0.052119 	4931 	0.051050
37.41 	0.053336 	4931 	0.052742
37.43 	0.052717 	4932 	0.051886
37.45 	0.060926 	4924 	0.059836
37.47 	0.047271 	4929 	0.046439
37.49 	0.051188 	4923 	0.050712
37.51 	0.056152 	4933 	0.055321
37.53 	0.054483 	4919 	0.053272
37.55 	0.048884 	4930 	0.048171
37.57 	0.055838 	4925 	0.055243
37.59 	0.057375 	4915 	0.056779
37.61 	0.060341 	4922 	0.059746
37.63 	0.051433 	4919 	0.050838
37.65 	0.053680 	4918 	0.052847
37.67 	0.048940 	4904 	0.048462
37.69 	0.051858 	4898 	0.050782
37.71 	0.050314 	4929 	0.049344
37.73 	0.046054 	4929 	0.045697
37.75 	0.050810 	4940 	0.050098
37.77 	0.057114 	4920 	0.056161
37.79 	0.054767 	4930 	0.054410
37.81 	0.047436 	4933 	0.046842
37.83 	0.055081 	4920 	0.054486
37.85 	0.055872 	4922 	0.055039
37.87 	0.052237 	4939 	0.051526
37.89 	0.052589 	4925 	0.051994
37.91 	0.054767 	4930 	0.054173
37.93 	0.056516 	4919 	0.056039
37.95 	0.052632 	4921 	0.051679
37.97 	0.050720 	4929 	0.049512
37.99 	0.049471 	4912 	0.048517
38.01 	0.051948 	4928 	0.051116
38.03 	0.053779 	4909 	0.053421
38.05 	0.052386 	4925 	0.051672
38.07 	0.052557 	4909 	0.051483
38.09 	0.053916 	4878 	0.052955
38.11 	0.054306 	4935 	0.053831
38.13 	0.057120 	4937 	0.056289
38.15 	0.049614 	4918 	0.049256
38.17 	0.054970 	4930 	0.054138
38.19 	0.062069 	4930 	0.061218
38.21 	0.049766 	4923 	0.049052
38.23 	0.057513 	4938 	0.056920
38.25 	0.053691 	4917 	0.052976
38.27 	0.058215 	4930 	0.057146
38.29 	0.063769 	4924 	0.062699
38.31 	0.059874 	4927 	0.058685
38.33 	0.053818 	4924 	0.052509
38.35 	0.056615 	4928 	0.055902
38.37 	0.054833 	4924 	0.054358
38.39 	0.060297 	4909 	0.059343
38.41 	0.064798 	4923 	0.063132
38.43 	0.060822 	4916 	0.059511
38.45 	0.066490 	4918 	0.064466
38.47 	0.063583 	4907 	0.062369
38.49 	0.061923 	4877 	0.060482
38.51 	0.063463 	4932 	0.061563
38.53 	0.067965 	4929 	0.066064
38.55 	0.061994 	4936 	0.061025
38.57 	0.057079 	4923 	0.055889
38.59 	0.058489 	4924 	0.057161
38.61 	0.056524 	4936 	0.055811
38.63 	0.057880 	4924 	0.056452
38.65 	0.066490 	4918 	0.064803
38.67 	0.058335 	4937 	0.057623
38.69 	0.057091 	4922 	0.056377
38.71 	0.056864 	4924 	0.055794
38.73 	0.054900 	4918 	0.053352
38.75 	0.053379 	4927 	0.052409
38.77 	0.051798 	4923 	0.050727
38.79 	0.052088 	4934 	0.051256
38.81 	0.050081 	4912 	0.049485
38.83 	0.049400 	4919 	0.048448
38.85 	0.052524 	4912 	0.051570
38.87 	0.052331 	4911 	0.051238
38.89 	0.048397 	4897 	0.047918
38.91 	0.050785 	4903 	0.049352
38.93 	0.049008 	4938 	0.048296
38.95 	0.046970 	4918 	0.046375
38.97 	0.046035 	4931 	0.045679
38.99 	0.045777 	4937 	0.045302
39.01 	0.046157 	4918 	0.045323
39.03 	0.050872 	4934 	0.049289
39.05 	0.048325 	4925 	0.047373
39.07 	0.046913 	4924 	0.045485
39.09 	0.050985 	4923 	0.049914
39.11 	0.043196 	4931 	0.042602
39.13 	0.045298 	4923 	0.045298
39.15 	0.050458 	4915 	0.049981
39.17 	0.049828 	4937 	0.048879
39.19 	0.051047 	4917 	0.050571
39.21 	0.045825 	4910 	0.045467
39.23 	0.042437 	4925 	0.042080
39.25 	0.042462 	4922 	0.041986
39.27 	0.048676 	4910 	0.048080
39.29 	0.044481 	4901 	0.043883
39.31 	0.047502 	4884 	0.046423
39.33 	0.044818 	4931 	0.044581
39.35 	0.044580 	4935 	0.043749
39.37 	0.046663 	4929 	0.045712
39.39 	0.045445 	4929 	0.044613
39.41 	0.044818 	4931 	0.044818
39.43 	0.038922 	4933 	0.038447
39.45 	0.045888 	4925 	0.045650
39.47 	0.050173 	4923 	0.049935
39.49 	0.052504 	4933 	0.051554
39.51 	0.050569 	4924 	0.049498
39.53 	0.045704 	4923 	0.044752
39.55 	0.045131 	4919 	0.044417
39.57 	0.050274 	4933 	0.049442
39.59 	0.045195 	4912 	0.044718
39.61 	0.047532 	4923 	0.047056
39.63 	0.048557 	4922 	0.048200
39.65 	0.045676 	4926 	0.044963
39.67 	0.041115 	4913 	0.040996
39.69 	0.045769 	4916 	0.045292
39.71 	0.043105 	4895 	0.042627
39.73 	0.049104 	4908 	0.048387
39.75 	0.045049 	4928 	0.044454
39.77 	0.043161 	4935 	0.042330
39.79 	0.047503 	4926 	0.047384
39.81 	0.042419 	4927 	0.041706
39.83 	0.050466 	4934 	0.049635
39.85 	0.041810 	4927 	0.041335
39.87 	0.045279 	4925 	0.044447
39.89 	0.044386 	4934 	0.043792
39.91 	0.055059 	4922 	0.054583
39.93 	0.045574 	4937 	0.045456
39.95 	0.045168 	4915 	0.044314
39.97 	0.046266 	4928 	0.045672
39.99 	0.042376 	4932 	0.041664
40.01 	0.046157 	4918 	0.045323
40.03 	0.045455 	4928 	0.045098
40.05 	0.048403 	4917 	0.047808
40.07 	0.049157 	4923 	0.048562
40.09 	0.049430 	4916 	0.049311
40.11 	0.047396 	4916 	0.046800
40.13 	0.040850 	4896 	0.040251
40.15 	0.044372 	4913 	0.043537
40.17 	0.049513 	4928 	0.049038
40.19 	0.045445 	4929 	0.044732
40.21 	0.042148 	4935 	0.041792
40.23 	0.047851 	4932 	0.047494
40.25 	0.044309 	4920 	0.044071
40.27 	0.039903 	4937 	0.039547
40.29 	0.049117 	4927 	0.047928
40.31 	0.040292 	4939 	0.040054
40.33 	0.044201 	4932 	0.043726
40.35 	0.046757 	4919 	0.045805
40.37 	0.039765 	4929 	0.039646
40.39 	0.048266 	4931 	0.047672
40.41 	0.038782 	4925 	0.038544
40.43 	0.042259 	4922 	0.041664
40.45 	0.045206 	4933 	0.044850
40.47 	0.042090 	4918 	0.041733
40.49 	0.043443 	4926 	0.043086
40.51 	0.044088 	4922 	0.043969
40.53 	0.046176 	4916 	0.045818
40.55 	0.042787 	4908 	0.042191
40.57 	0.042740 	4890 	0.041902
40.59 	0.037675 	4937 	0.037556
40.61 	0.042553 	4935 	0.041960
40.63 	0.040974 	4930 	0.040122
40.65 	0.037675 	4937 	0.037319
40.67 	0.039335 	4932 	0.038979
40.69 	0.042536 	4937 	0.042061
40.71 	0.042782 	4932 	0.042188
40.73 	0.039992 	4926 	0.039397
40.75 	0.038126 	4931 	0.037889
40.77 	0.047176 	4939 	0.046464
40.79 	0.041227 	4924 	0.040989
40.81 	0.037644 	4941 	0.037051
40.83 	0.043831 	4928 	0.043475
40.85 	0.040820 	4924 	0.040702
40.87 	0.041193 	4928 	0.040837
40.89 	0.044616 	4931 	0.043547
40.91 	0.039001 	4923 	0.038644
40.93 	0.039724 	4934 	0.039249
40.95 	0.042540 	4913 	0.041944
40.97 	0.045695 	4924 	0.044604
40.99 	0.042039 	4924 	0.041563
41.01 	0.041938 	4912 	0.041342
41.03 	0.041794 	4905 	0.041316
41.05 	0.046191 	4936 	0.045717
41.07 	0.039148 	4930 	0.038673
41.09 	0.040494 	4939 	0.040138
41.11 	0.042553 	4935 	0.041960
41.13 	0.034846 	4936 	0.034609
41.15 	0.047561 	4941 	0.046731
41.17 	0.042562 	4934 	0.041849
41.19 	0.038134 	4930 	0.037659
41.21 	0.042333 	4937 	0.041621
41.23 	0.038874 	4939 	0.038281
41.25 	0.035678 	4933 	0.035322
41.27 	0.041574 	4931 	0.040742
41.29 	0.038555 	4928 	0.037961
41.31 	0.041760 	4933 	0.041166
41.33 	0.039295 	4937 	0.039295
41.35 	0.044755 	4938 	0.044518
41.37 	0.035540 	4924 	0.035064
41.39 	0.039732 	4933 	0.039020
41.41 	0.040601 	4926 	0.040363
41.43 	0.042402 	4929 	0.041689
41.45 	0.041514 	4914 	0.041395
41.47 	0.040398 	4926 	0.039684
41.49 	0.038635 	4892 	0.038395
41.51 	0.043117 	4940 	0.042880
41.53 	0.043285 	4944 	0.043048
41.55 	0.040122 	4935 	0.039765
41.57 	0.039263 	4941 	0.038908
41.59 	0.039732 	4933 	0.039257
41.61 	0.044821 	4953 	0.043875
41.63 	0.041312 	4938 	0.040838
41.65 	0.036113 	4929 	0.035637
41.67 	0.041700 	4940 	0.041226
41.69 	0.042854 	4947 	0.042262
41.71 	0.039927 	4934 	0.039195
41.73 	0.037885 	4936 	0.037292
41.75 	0.042605 	4929 	0.041773
41.77 	0.045133 	4941 	0.044303
41.79 	0.040453 	4944 	0.039861
41.81 	0.038695 	4936 	0.038339
41.83 	0.042005 	4928 	0.041529
41.85 	0.033813 	4939 	0.033813
41.87 	0.040324 	4935 	0.039493
41.89 	0.040138 	4933 	0.039663
41.91 	0.039911 	4936 	0.039317
41.93 	0.040349 	4932 	0.039755
41.95 	0.039140 	4931 	0.039140
41.97 	0.039479 	4914 	0.039360
41.99 	0.035066 	4905 	0.034350
42.01 	0.037030 	4942 	0.036555
42.03 	0.039684 	4939 	0.039447
42.05 	0.038570 	4952 	0.038097
42.07 	0.040916 	4937 	0.040322
42.09 	0.039814 	4948 	0.039341
42.11 	0.041860 	4945 	0.041387
42.13 	0.036805 	4945 	0.036568
42.15 	0.041717 	4938 	0.041243
42.17 	0.033957 	4918 	0.033361
42.19 	0.039527 	4908 	0.039050
42.21 	0.036319 	4901 	0.035961
42.23 	0.034546 	4892 	0.034067
42.25 	0.039067 	4889 	0.038588
42.27 	0.041239 	4874 	0.040999
42.29 	0.037425 	4863 	0.036823
42.31 	0.037281 	4855 	0.037040
42.33 	0.037029 	4834 	0.036423
42.35 	0.035138 	4838 	0.034896
42.37 	0.039130 	4830 	0.038888
42.39 	0.037052 	4804 	0.036687
42.41 	0.042048 	4804 	0.041317
42.43 	0.037771 	4792 	0.037282
42.45 	0.043551 	4776 	0.043306
42.47 	0.037356 	4765 	0.036618
42.49 	0.041343 	4765 	0.040851
42.51 	0.033945 	4743 	0.033698
42.53 	0.043993 	4728 	0.043126
42.55 	0.039720 	4708 	0.039471
42.57 	0.034884 	4730 	0.034884
42.59 	0.036794 	4729 	0.036670
42.61 	0.038658 	4708 	0.038284
42.63 	0.045445 	4709 	0.045196
42.65 	0.037353 	4685 	0.036853
42.67 	0.037575 	4684 	0.037325
42.69 	0.036585 	4674 	0.036460
42.71 	0.040317 	4663 	0.040066
42.73 	0.041379 	4640 	0.041127
42.75 	0.037254 	4617 	0.037127
42.77 	0.036739 	4600 	0.036739
42.79 	0.037756 	4582 	0.037501
42.81 	0.040772 	4562 	0.040108
42.83 	0.042989 	4536 	0.042085
42.85 	0.040857 	4528 	0.040339
42.87 	0.035786 	4499 	0.035395
42.89 	0.041964 	4480 	0.041441
42.91 	0.037029 	4456 	0.036371
42.93 	0.038462 	4446 	0.038066
42.95 	0.035326 	4416 	0.035193
42.97 	0.038173 	4401 	0.036975
42.99 	0.041961 	4385 	0.041293
43.01 	0.047215 	4363 	0.046812
43.03 	0.036464 	4333 	0.036329
43.05 	0.041850 	4325 	0.041443
43.07 	0.041667 	4296 	0.041258
43.09 	0.035489 	4283 	0.034942
43.11 	0.038778 	4255 	0.038365
43.13 	0.039179 	4237 	0.038487
43.15 	0.038754 	4206 	0.038058
43.17 	0.034219 	4179 	0.033658
43.19 	0.040534 	4194 	0.040115
43.21 	0.037872 	4172 	0.037450
43.23 	0.036351 	4154 	0.036068
43.25 	0.043047 	4135 	0.042197
43.27 	0.040682 	4105 	0.040254
43.29 	0.040488 	4100 	0.040202
43.31 	0.039961 	4079 	0.039243
43.33 	0.046408 	4051 	0.045830
43.35 	0.037202 	4032 	0.036767
43.37 	0.042590 	4015 	0.042153
43.39 	0.035732 	4002 	0.035732
43.41 	0.038016 	3972 	0.037574
43.43 	0.037879 	3960 	0.037435
43.45 	0.041677 	3935 	0.040908
43.47 	0.045652 	3921 	0.044755
43.49 	0.037465 	3897 	0.037465
43.51 	0.035852 	3877 	0.035223
43.53 	0.037018 	3863 	0.036715
43.55 	0.042848 	2964 	0.042452
43.57 	0.041555 	2238 	0.041555
43.59 	0.040092 	1746 	0.040092
43.61 	0.040711 	1351 	0.040277
43.63 	0.036963 	1001 	0.036378
43.65 	0.043668 	687 	0.041110
43.67 	0.043825 	502 	0.043825
43.69 	0.038147 	367 	0.038147
43.71 	0.037657 	239 	0.037657
43.73 	0.050000 	120 	0.050000
43.75 	0.000000 	16 	0.000000