File: Example_Data/25SC_s1_0033.000.dat
#F C:\frames\spec\25SC_s1_0033.000
#C title =s:33 frm:0 25SC_s1
#C wavelength =0.15406

#S 1  fr_average C:\frames\spec\25SC_s1_0033.000 C:\win32app\speccom\mask.axs chi 0 180 0 360 0.02
#C 2 theta =0.000000 to 180 deg
#C   q   =0.000000 to 81.568 nm^-1
#C  chi  =0.000000 to 360 deg
#C collumns:
#C  1 position (2theta or chi in degrees)
#C  2 average intensity (sum of all counts in the region divided with number of pixels)
#C  3 Number of pixels in region)
#C  4 error (sum of sqrt(intensity) for all pixels divided by number)
#N 4
#L TTh  Int  N_pix  Err
32.99 	0.065574 	61 	0.065574
33.01 	0.059565 	873 	0.058894
33.03 	0.058231 	1391 	0.057389
33.05 	0.068867 	1757 	0.067867
33.07 	0.067805 	2050 	0.065425
33.09 	0.058372 	2347 	0.056376
33.11 	0.074447 	2579 	0.072593
33.13 	0.065879 	2793 	0.064830
33.15 	0.057686 	2999 	0.057491
33.17 	0.066542 	3201 	0.064529
33.19 	0.051167 	3342 	0.050641
33.21 	0.057334 	3436 	0.055942
33.23 	0.061028 	3523 	0.060529
33.25 	0.055648 	3612 	0.055161
33.27 	0.062810 	3630 	0.062003
33.29 	0.064419 	3648 	0.063616
33.31 	0.058470 	3660 	0.057670
33.33 	0.059685 	3686 	0.058732
33.35 	0.059827 	3694 	0.059192
33.37 	0.061389 	3714 	0.060285
33.39 	0.070260 	3729 	0.068689
33.41 	0.064438 	3740 	0.062690
33.43 	0.057697 	3761 	0.056582
33.45 	0.060959 	3773 	0.059873
33.47 	0.071090 	3798 	0.069548
33.49 	0.059333 	3809 	0.058564
33.51 	0.072608 	3815 	0.071840
33.53 	0.058839 	3841 	0.057924
33.55 	0.054124 	3843 	0.053515
33.57 	0.058808 	3877 	0.057600
33.59 	0.057474 	3880 	0.057172
33.61 	0.059606 	3909 	0.058257
33.63 	0.060730 	3919 	0.059833
33.65 	0.061308 	3931 	0.060091
33.67 	0.061204 	3954 	0.060019
33.69 	0.067797 	3953 	0.066315
33.71 	0.068428 	3975 	0.067101
33.73 	0.057692 	4004 	0.056229
33.75 	0.065766 	3999 	0.064009
33.77 	0.059876 	4025 	0.059003
33.79 	0.067805 	4041 	0.066645
33.81 	0.064388 	4038 	0.063663
33.83 	0.065679 	4050 	0.063775
33.85 	0.062454 	4099 	0.060716
33.87 	0.058623 	4111 	0.057911
33.89 	0.060180 	4121 	0.059327
33.91 	0.067486 	4149 	0.066192
33.93 	0.061913 	4151 	0.061631
33.95 	0.065295 	4181 	0.063171
33.97 	0.060382 	4190 	0.059520
33.99 	0.057143 	4200 	0.056445
34.01 	0.059340 	4213 	0.057672
34.03 	0.062677 	4244 	0.061412
34.05 	0.065616 	4252 	0.064790
34.07 	0.062559 	4268 	0.061163
34.09 	0.050863 	4286 	0.050043
34.11 	0.063924 	4302 	0.062812
34.13 	0.054550 	4308 	0.053326
34.15 	0.053106 	4331 	0.052565
34.17 	0.062529 	4350 	0.061317
34.19 	0.054333 	4362 	0.053930
34.21 	0.061313 	4371 	0.060509
34.23 	0.056453 	4393 	0.055253
34.25 	0.056994 	4404 	0.056329
34.27 	0.058797 	4422 	0.058113
34.29 	0.060428 	4435 	0.060032
34.31 	0.058995 	4458 	0.057681
34.33 	0.055916 	4471 	0.055130
34.35 	0.061552 	4484 	0.060747
34.37 	0.062124 	4491 	0.061603
34.39 	0.059085 	4502 	0.058174
34.41 	0.057225 	4526 	0.056319
34.43 	0.058383 	4539 	0.057480
34.45 	0.061522 	4535 	0.060876
34.47 	0.062936 	4592 	0.062043
34.49 	0.056124 	4597 	0.055486
34.51 	0.053843 	4606 	0.052571
34.53 	0.058798 	4643 	0.057663
34.55 	0.057721 	4643 	0.056817
34.57 	0.066524 	4660 	0.064764
34.59 	0.061390 	4675 	0.060513
34.61 	0.053864 	4697 	0.053095
34.63 	0.057962 	4710 	0.057091
34.65 	0.053802 	4721 	0.053306
34.67 	0.056106 	4741 	0.055118
34.69 	0.058687 	4754 	0.057825
34.71 	0.058120 	4766 	0.057628
34.73 	0.059954 	4787 	0.059832
34.75 	0.058236 	4808 	0.057211
34.77 	0.057908 	4818 	0.057037
34.79 	0.058250 	4824 	0.057400
34.81 	0.067079 	4845 	0.065387
34.83 	0.054093 	4862 	0.052647
34.85 	0.059971 	4869 	0.058407
34.87 	0.050123 	4868 	0.049642
34.89 	0.060836 	4882 	0.059756
34.91 	0.057558 	4882 	0.056459
34.93 	0.060216 	4899 	0.059738
34.95 	0.058282 	4890 	0.057084
34.97 	0.056304 	4902 	0.055348
34.99 	0.059016 	4897 	0.058398
35.01 	0.057282 	4923 	0.056687
35.03 	0.054825 	4943 	0.053995
35.05 	0.060643 	4947 	0.059814
35.07 	0.049190 	4940 	0.048835
35.09 	0.058752 	4953 	0.057688
35.11 	0.054174 	4947 	0.053345
35.13 	0.056273 	4958 	0.055564
35.15 	0.061171 	4937 	0.059609
35.17 	0.054994 	4946 	0.054402
35.19 	0.058276 	4942 	0.057446
35.21 	0.055814 	4945 	0.054985
35.23 	0.056623 	4945 	0.056149
35.25 	0.060692 	4943 	0.060573
35.27 	0.051334 	4948 	0.050742
35.29 	0.056016 	4945 	0.055542
35.31 	0.054733 	4933 	0.054140
35.33 	0.062917 	4943 	0.062088
35.35 	0.058276 	4942 	0.056972
35.37 	0.053452 	4939 	0.052859
35.39 	0.053792 	4945 	0.053081
35.41 	0.062931 	4926 	0.061148
35.43 	0.067707 	4933 	0.066481
35.45 	0.059348 	4937 	0.058399
35.47 	0.052119 	4931 	0.051050
35.49 	0.061507 	4910 	0.060553
35.51 	0.056841 	4926 	0.056366
35.53 	0.057992 	4949 	0.057045
35.55 	0.051972 	4945 	0.051379
35.57 	0.058382 	4933 	0.057551
35.59 	0.057634 	4945 	0.056923
35.61 	0.056050 	4942 	0.055220
35.63 	0.055027 	4943 	0.054435
35.65 	0.053387 	4945 	0.052913
35.67 	0.052408 	4942 	0.051223
35.69 	0.053983 	4946 	0.053391
35.71 	0.057930 	4937 	0.056981
35.73 	0.056118 	4936 	0.054932
35.75 	0.052119 	4931 	0.051169
35.77 	0.055948 	4951 	0.055712
35.79 	0.051703 	4932 	0.051109
35.81 	0.052706 	4933 	0.051123
35.83 	0.053781 	4946 	0.053426
35.85 	0.060182 	4935 	0.058857
35.87 	0.063782 	4923 	0.062949
35.89 	0.052898 	4934 	0.051691
35.91 	0.055409 	4927 	0.054458
35.93 	0.061701 	4927 	0.060155
35.95 	0.059182 	4917 	0.058706
35.97 	0.057207 	4912 	0.056372
35.99 	0.056084 	4939 	0.055135
36.01 	0.063083 	4930 	0.061657
36.03 	0.053409 	4943 	0.052935
36.05 	0.051567 	4945 	0.050501
36.07 	0.056489 	4939 	0.056015
36.09 	0.057287 	4940 	0.056457
36.11 	0.056198 	4929 	0.055247
36.13 	0.058276 	4942 	0.057565
36.15 	0.056287 	4939 	0.054982
36.17 	0.057868 	4925 	0.056560
36.19 	0.056073 	4940 	0.055124
36.21 	0.051532 	4929 	0.050700
36.23 	0.056738 	4935 	0.055432
36.25 	0.054038 	4941 	0.053208
36.27 	0.058883 	4925 	0.057912
36.29 	0.055161 	4931 	0.054448
36.31 	0.058442 	4928 	0.057966
36.33 	0.064464 	4933 	0.063395
36.35 	0.057010 	4929 	0.056296
36.37 	0.061345 	4923 	0.059798
36.39 	0.064621 	4921 	0.063312
36.41 	0.052696 	4896 	0.051978
36.43 	0.056615 	4928 	0.055764
36.45 	0.052130 	4930 	0.051536
36.47 	0.060373 	4936 	0.059423
36.49 	0.053015 	4942 	0.052304
36.51 	0.057977 	4933 	0.057264
36.53 	0.057455 	4943 	0.056724
36.55 	0.053176 	4927 	0.052582
36.57 	0.052696 	4934 	0.051746
36.59 	0.056084 	4939 	0.055610
36.61 	0.055364 	4931 	0.054295
36.63 	0.060231 	4931 	0.059043
36.65 	0.060422 	4932 	0.059234
36.67 	0.060649 	4930 	0.059936
36.69 	0.062284 	4929 	0.061453
36.71 	0.058118 	4921 	0.056908
36.73 	0.055025 	4925 	0.053360
36.75 	0.059264 	4944 	0.058316
36.77 	0.059362 	4919 	0.057913
36.79 	0.057305 	4921 	0.056710
36.81 	0.050651 	4916 	0.050055
36.83 	0.057782 	4915 	0.056829
36.85 	0.055941 	4898 	0.055104
36.87 	0.051982 	4944 	0.051153
36.89 	0.057974 	4916 	0.056544
36.91 	0.057478 	4941 	0.056411
36.93 	0.051318 	4930 	0.049873
36.95 	0.055342 	4933 	0.054392
36.97 	0.063032 	4934 	0.061707
36.99 	0.057345 	4935 	0.056277
37.01 	0.062842 	4933 	0.061892
37.03 	0.056864 	4924 	0.055794
37.05 	0.054800 	4927 	0.053968
37.07 	0.057751 	4935 	0.057039
37.09 	0.051542 	4928 	0.050829
37.11 	0.060182 	4935 	0.058620
37.13 	0.057271 	4924 	0.056557
37.15 	0.056427 	4909 	0.055592
37.17 	0.061005 	4934 	0.059937
37.19 	0.061523 	4925 	0.060571
37.21 	0.056539 	4917 	0.055208
37.23 	0.058357 	4918 	0.056690
37.25 	0.054368 	4911 	0.053652
37.27 	0.052309 	4894 	0.051092
37.29 	0.059229 	4930 	0.058279
37.31 	0.057143 	4935 	0.056193
37.33 	0.057845 	4927 	0.056418
37.35 	0.061766 	4938 	0.060817
37.37 	0.055206 	4927 	0.054730
37.39 	0.054350 	4931 	0.053637
37.41 	0.052322 	4931 	0.051471
37.43 	0.058597 	4932 	0.058122
37.45 	0.055443 	4924 	0.054134
37.47 	0.057415 	4929 	0.056702
37.49 	0.055454 	4923 	0.054364
37.51 	0.057977 	4933 	0.056295
37.53 	0.059565 	4919 	0.058136
37.55 	0.055172 	4930 	0.054222
37.57 	0.054416 	4925 	0.053584
37.59 	0.055341 	4915 	0.054268
37.61 	0.056278 	4922 	0.054830
37.63 	0.046351 	4919 	0.045517
37.65 	0.051444 	4918 	0.050491
37.67 	0.058116 	4904 	0.057280
37.69 	0.049408 	4898 	0.048571
37.71 	0.057821 	4929 	0.056870
37.73 	0.057821 	4929 	0.056633
37.75 	0.052834 	4940 	0.051767
37.77 	0.051220 	4920 	0.050386
37.79 	0.055984 	4930 	0.055033
37.81 	0.055950 	4933 	0.055099
37.83 	0.052846 	4920 	0.051893
37.85 	0.059529 	4922 	0.058696
37.87 	0.059931 	4939 	0.058745
37.89 	0.056041 	4925 	0.054613
37.91 	0.053753 	4930 	0.053158
37.93 	0.058345 	4919 	0.057750
37.95 	0.059338 	4921 	0.058266
37.97 	0.058430 	4929 	0.057004
37.99 	0.053135 	4912 	0.052777
38.01 	0.053977 	4928 	0.053621
38.03 	0.050519 	4909 	0.049803
38.05 	0.061523 	4925 	0.060690
38.07 	0.061316 	4909 	0.059765
38.09 	0.055351 	4878 	0.054630
38.11 	0.056332 	4935 	0.055027
38.13 	0.057322 	4937 	0.055642
38.15 	0.058560 	4918 	0.057727
38.17 	0.060243 	4930 	0.059768
38.19 	0.052535 	4930 	0.051585
38.21 	0.059720 	4923 	0.058510
38.23 	0.063791 	4938 	0.062367
38.25 	0.066707 	4917 	0.065754
38.27 	0.067140 	4930 	0.065595
38.29 	0.070471 	4924 	0.069282
38.31 	0.069413 	4927 	0.067967
38.33 	0.068440 	4924 	0.066894
38.35 	0.066356 	4928 	0.064454
38.37 	0.070674 	4924 	0.068751
38.39 	0.070686 	4909 	0.069851
38.41 	0.081861 	4923 	0.080076
38.43 	0.074247 	4916 	0.073056
38.45 	0.072794 	4918 	0.071464
38.47 	0.081312 	4907 	0.079621
38.49 	0.075046 	4877 	0.072624
38.51 	0.077859 	4932 	0.075840
38.53 	0.076283 	4929 	0.074263
38.55 	0.086507 	4936 	0.085083
38.57 	0.076579 	4923 	0.074775
38.59 	0.075345 	4924 	0.074136
38.61 	0.075365 	4936 	0.073565
38.63 	0.084890 	4924 	0.082630
38.65 	0.075641 	4918 	0.074330
38.67 	0.075552 	4937 	0.074365
38.69 	0.068874 	4922 	0.067665
38.71 	0.071080 	4924 	0.069038
38.73 	0.070557 	4918 	0.069108
38.75 	0.069819 	4927 	0.067898
38.77 	0.070689 	4923 	0.069261
38.79 	0.069518 	4934 	0.068449
38.81 	0.065554 	4912 	0.063884
38.83 	0.058548 	4919 	0.057596
38.85 	0.058225 	4912 	0.057390
38.87 	0.056200 	4911 	0.054869
38.89 	0.058607 	4897 	0.057531
38.91 	0.060575 	4903 	0.059261
38.93 	0.055893 	4938 	0.055063
38.95 	0.052664 	4918 	0.052068
38.97 	0.054147 	4931 	0.053791
38.99 	0.054487 	4937 	0.053636
39.01 	0.053680 	4918 	0.052727
39.03 	0.053912 	4934 	0.053081
39.05 	0.049137 	4925 	0.048661
39.07 	0.045085 	4924 	0.044728
39.09 	0.050376 	4923 	0.049781
39.11 	0.056378 	4931 	0.054952
39.13 	0.047735 	4923 	0.047021
39.15 	0.047406 	4915 	0.046333
39.17 	0.051246 	4937 	0.050652
39.19 	0.046573 	4917 	0.045977
39.21 	0.047454 	4910 	0.047216
39.23 	0.044467 	4925 	0.043753
39.25 	0.045916 	4922 	0.045440
39.27 	0.043788 	4910 	0.043430
39.29 	0.046521 	4901 	0.045924
39.31 	0.044636 	4884 	0.044156
39.33 	0.046238 	4931 	0.045525
39.35 	0.051874 	4935 	0.051043
39.37 	0.044025 	4929 	0.043550
39.39 	0.045648 	4929 	0.045054
39.41 	0.044210 	4931 	0.043854
39.43 	0.046219 	4933 	0.045606
39.45 	0.054822 	4925 	0.053990
39.47 	0.047735 	4923 	0.047259
39.49 	0.049868 	4933 	0.049631
39.51 	0.048944 	4924 	0.048468
39.53 	0.047126 	4923 	0.046650
39.55 	0.049400 	4919 	0.048448
39.57 	0.047436 	4933 	0.046961
39.59 	0.052932 	4912 	0.052097
39.61 	0.049970 	4923 	0.049613
39.63 	0.046323 	4922 	0.045252
39.65 	0.047706 	4926 	0.046874
39.67 	0.048239 	4913 	0.048120
39.69 	0.047193 	4916 	0.046716
39.71 	0.046987 	4895 	0.046029
39.73 	0.048696 	4908 	0.048577
39.75 	0.046063 	4928 	0.045469
39.77 	0.047822 	4935 	0.046734
39.79 	0.044661 	4926 	0.043710
39.81 	0.043840 	4927 	0.043364
39.83 	0.043778 	4934 	0.043303
39.85 	0.047696 	4927 	0.046864
39.87 	0.043249 	4925 	0.042773
39.89 	0.046210 	4934 	0.045141
39.91 	0.040837 	4922 	0.039885
39.93 	0.045777 	4937 	0.045302
39.95 	0.040285 	4915 	0.039689
39.97 	0.045860 	4928 	0.045147
39.99 	0.041768 	4932 	0.040917
40.01 	0.049817 	4918 	0.048845
40.03 	0.046672 	4928 	0.046078
40.05 	0.043726 	4917 	0.043130
40.07 	0.045907 	4923 	0.044955
40.09 	0.049430 	4916 	0.048358
40.11 	0.042921 	4916 	0.042564
40.13 	0.044118 	4896 	0.043500
40.15 	0.049461 	4913 	0.049103
40.17 	0.045657 	4928 	0.045301
40.19 	0.044431 	4929 	0.043718
40.21 	0.042553 	4935 	0.042316
40.23 	0.042782 	4932 	0.041832
40.25 	0.044512 	4920 	0.043917
40.27 	0.044967 	4937 	0.044255
40.29 	0.044246 	4927 	0.043889
40.31 	0.043126 	4939 	0.042770
40.33 	0.045418 	4932 	0.044586
40.35 	0.039845 	4919 	0.038873
40.37 	0.049909 	4929 	0.049295
40.39 	0.044818 	4931 	0.044225
40.41 	0.050558 	4925 	0.049607
40.43 	0.040228 	4922 	0.039751
40.45 	0.038313 	4933 	0.038313
40.47 	0.045140 	4918 	0.044545
40.49 	0.046082 	4926 	0.045230
40.51 	0.039821 	4922 	0.039345
40.53 	0.039666 	4916 	0.039309
40.55 	0.041565 	4908 	0.041207
40.57 	0.045603 	4890 	0.045603
40.59 	0.045372 	4937 	0.044422
40.61 	0.042351 	4935 	0.041757
40.63 	0.044422 	4930 	0.043828
40.65 	0.045169 	4937 	0.044813
40.67 	0.043796 	4932 	0.043321
40.69 	0.041321 	4937 	0.040965
40.71 	0.036294 	4932 	0.035819
40.73 	0.041007 	4926 	0.040174
40.75 	0.043602 	4931 	0.043602
40.77 	0.042924 	4939 	0.042568
40.79 	0.042242 	4924 	0.041766
40.81 	0.040882 	4941 	0.039697
40.83 	0.043425 	4928 	0.042831
40.85 	0.045085 	4924 	0.044609
40.87 	0.040584 	4928 	0.039990
40.89 	0.044210 	4931 	0.043616
40.91 	0.040016 	4923 	0.039183
40.93 	0.038103 	4934 	0.037747
40.95 	0.038469 	4913 	0.038112
40.97 	0.042445 	4924 	0.041612
40.99 	0.038993 	4924 	0.038517
41.01 	0.038070 	4912 	0.037354
41.03 	0.045872 	4905 	0.045274
41.05 	0.038493 	4936 	0.038018
41.07 	0.037120 	4930 	0.036763
41.09 	0.039279 	4939 	0.038805
41.11 	0.044377 	4935 	0.044258
41.13 	0.038290 	4936 	0.038171
41.15 	0.047156 	4941 	0.046327
41.17 	0.045399 	4934 	0.044687
41.19 	0.042191 	4930 	0.041715
41.21 	0.047397 	4937 	0.047041
41.23 	0.044746 	4939 	0.044390
41.25 	0.038719 	4933 	0.038006
41.27 	0.037721 	4931 	0.036869
41.29 	0.041599 	4928 	0.041124
41.31 	0.038111 	4933 	0.037992
41.33 	0.036257 	4937 	0.036020
41.35 	0.035642 	4938 	0.035405
41.37 	0.039602 	4924 	0.039364
41.39 	0.041557 	4933 	0.041201
41.41 	0.037962 	4926 	0.037248
41.43 	0.047474 	4929 	0.046761
41.45 	0.040090 	4914 	0.039732
41.47 	0.036338 	4926 	0.035862
41.49 	0.042723 	4892 	0.042244
41.51 	0.038866 	4940 	0.038273
41.53 	0.043285 	4944 	0.042811
41.55 	0.042958 	4935 	0.042108
41.57 	0.036632 	4941 	0.036277
41.59 	0.039935 	4933 	0.039698
41.61 	0.036745 	4953 	0.036627
41.63 	0.042325 	4938 	0.042206
41.65 	0.038547 	4929 	0.038310
41.67 	0.042510 	4940 	0.042154
41.69 	0.040631 	4947 	0.040039
41.71 	0.040738 	4934 	0.040263
41.73 	0.040113 	4936 	0.039401
41.75 	0.037533 	4929 	0.037176
41.77 	0.046954 	4941 	0.046243
41.79 	0.041464 	4944 	0.040753
41.81 	0.042139 	4936 	0.042139
41.83 	0.042208 	4928 	0.041851
41.85 	0.036850 	4939 	0.036257
41.87 	0.040324 	4935 	0.039849
41.89 	0.042773 	4933 	0.042061
41.91 	0.037682 	4936 	0.037445
41.93 	0.045012 	4932 	0.044537
41.95 	0.042385 	4931 	0.042029
41.97 	0.043956 	4914 	0.043122
41.99 	0.036290 	4905 	0.036170
42.01 	0.047147 	4942 	0.046673
42.03 	0.042519 	4939 	0.042044
42.05 	0.037964 	4952 	0.037255
42.07 	0.041118 	4937 	0.040762
42.09 	0.041229 	4948 	0.040637
42.11 	0.038018 	4945 	0.037663
42.13 	0.032154 	4945 	0.031917
42.15 	0.035844 	4938 	0.035489
42.17 	0.037820 	4918 	0.037344
42.19 	0.040139 	4908 	0.039780
42.21 	0.042848 	4901 	0.042131
42.23 	0.043540 	4892 	0.042942
42.25 	0.041931 	4889 	0.041452
42.27 	0.036931 	4874 	0.036810
42.29 	0.034135 	4863 	0.034135
42.31 	0.036869 	4855 	0.036507
42.33 	0.038271 	4834 	0.038028
42.35 	0.034725 	4838 	0.034362
42.37 	0.038302 	4830 	0.037555
42.39 	0.039550 	4804 	0.039063
42.41 	0.037261 	4804 	0.036529
42.43 	0.035476 	4792 	0.034987
42.45 	0.041248 	4776 	0.040757
42.47 	0.038825 	4765 	0.038190
42.49 	0.038615 	4765 	0.037877
42.51 	0.039637 	4743 	0.039390
42.53 	0.039552 	4728 	0.039304
42.55 	0.040569 	4708 	0.039947
42.57 	0.035941 	4730 	0.035322
42.59 	0.034468 	4729 	0.033973
42.61 	0.033135 	4708 	0.032637
42.63 	0.044171 	4709 	0.043424
42.65 	0.038634 	4685 	0.038009
42.67 	0.033945 	4684 	0.033820
42.69 	0.034874 	4674 	0.034498
42.71 	0.038816 	4663 	0.038314
42.73 	0.039224 	4640 	0.038845
42.75 	0.035954 	4617 	0.035700
42.77 	0.037609 	4600 	0.037481
42.79 	0.035356 	4582 	0.035100
42.81 	0.040991 	4562 	0.040456
42.83 	0.043210 	4536 	0.042048
42.85 	0.032906 	4528 	0.032518
42.87 	0.038231 	4499 	0.037059
42.89 	0.041295 	4480 	0.040772
42.91 	0.040844 	4456 	0.040581
42.93 	0.040261 	4446 	0.039997
42.95 	0.038723 	4416 	0.038192
42.97 	0.037946 	4401 	0.037147
42.99 	0.035804 	4385 	0.035403
43.01 	0.038506 	4363 	0.037700
43.03 	0.036926 	4333 	0.036791
43.05 	0.040694 	4325 	0.040152
43.07 	0.035149 	4296 	0.035149
43.09 	0.032687 	4283 	0.032140
43.11 	0.037133 	4255 	0.036995
43.13 	0.038471 	4237 	0.037918
43.15 	0.034712 	4206 	0.034294
43.17 	0.038287 	4179 	0.037866
43.19 	0.041726 	4194 	0.041307
43.21 	0.035714 	4172 	0.035293
43.23 	0.042369 	4154 	0.041946
43.25 	0.043773 	4135 	0.043348
43.27 	0.037759 	4105 	0.037188
43.29 	0.035854 	4100 	0.035568
43.31 	0.037264 	4079 	0.036690
43.33 	0.037768 	4051 	0.037768
43.35 	0.043651 	4032 	0.043215
43.37 	0.041843 	4015 	0.041114
43.39 	0.043478 	4002 	0.042746
43.41 	0.042296 	3972 	0.041854
43.43 	0.035859 	3960 	0.035563
43.45 	0.036341 	3935 	0.035596
43.47 	0.039021 	3921 	0.038572
43.49 	0.036438 	3897 	0.035987
43.51 	0.034047 	3877 	0.033594
43.53 	0.033394 	3863 	0.032939
43.55 	0.037449 	2964 	0.036856
43.57 	0.032172 	2238 	0.031910
43.59 	0.035510 	1746 	0.035174
43.61 	0.038490 	1351 	0.035888
43.63 	0.044955 	1001 	0.044955
43.65 	0.029112 	687 	0.029112
43.67 	0.029880 	502 	0.028714
43.69 	0.019074 	367 	0.019074
43.71 	0.033473 	239 	0.031022
43.73 	0.025000 	120 	0.025000
43.75 	0.187500 	16 	0.150888