File: Example_Data/25SC_s1_0052.005.dat
#F C:\frames\spec\25SC_s1_0052.005
#C title =s:52 frm:5 25SC_s1
#C wavelength =0.15406

#S 1  fr_average C:\frames\spec\25SC_s1_0052.005 C:\win32app\speccom\mask.axs chi 0 180 0 360 0.02
#C 2 theta =0.000000 to 180 deg
#C   q   =0.000000 to 81.568 nm^-1
#C  chi  =0.000000 to 360 deg
#C collumns:
#C  1 position (2theta or chi in degrees)
#C  2 average intensity (sum of all counts in the region divided with number of pixels)
#C  3 Number of pixels in region)
#C  4 error (sum of sqrt(intensity) for all pixels divided by number)
#N 4
#L TTh  Int  N_pix  Err
32.99 	0.065574 	61 	0.065574
33.01 	0.053837 	873 	0.053837
33.03 	0.072610 	1391 	0.070925
33.05 	0.077405 	1757 	0.075738
33.07 	0.071220 	2050 	0.068648
33.09 	0.074563 	2347 	0.072526
33.11 	0.065529 	2579 	0.064166
33.13 	0.078052 	2793 	0.076794
33.15 	0.071357 	2999 	0.070739
33.17 	0.075914 	3201 	0.073901
33.19 	0.056852 	3342 	0.055801
33.21 	0.067520 	3436 	0.066668
33.23 	0.063014 	3523 	0.061684
33.25 	0.070321 	3612 	0.069186
33.27 	0.069421 	3630 	0.068131
33.29 	0.067434 	3648 	0.066471
33.31 	0.072131 	3660 	0.070344
33.33 	0.065383 	3686 	0.064111
33.35 	0.060097 	3694 	0.058803
33.37 	0.070005 	3714 	0.068270
33.39 	0.073746 	3729 	0.072647
33.41 	0.065508 	3740 	0.063759
33.43 	0.071524 	3761 	0.070122
33.45 	0.076067 	3773 	0.074359
33.47 	0.070037 	3798 	0.069086
33.49 	0.072460 	3809 	0.071230
33.51 	0.077851 	3815 	0.075854
33.53 	0.070294 	3841 	0.069074
33.55 	0.069997 	3843 	0.068016
33.57 	0.071447 	3877 	0.069609
33.59 	0.068299 	3880 	0.066185
33.61 	0.070350 	3909 	0.069601
33.63 	0.070936 	3919 	0.069292
33.65 	0.069957 	3931 	0.068914
33.67 	0.069297 	3954 	0.067964
33.69 	0.073868 	3953 	0.072238
33.71 	0.067170 	3975 	0.065967
33.73 	0.078921 	4004 	0.077897
33.75 	0.075519 	3999 	0.073908
33.77 	0.067578 	4025 	0.066268
33.79 	0.069042 	4041 	0.067738
33.81 	0.069094 	4038 	0.067643
33.83 	0.069383 	4050 	0.067647
33.85 	0.068065 	4099 	0.066922
33.87 	0.063975 	4111 	0.062407
33.89 	0.061150 	4121 	0.059705
33.91 	0.077609 	4149 	0.076056
33.93 	0.067935 	4151 	0.067089
33.95 	0.073906 	4181 	0.072505
33.97 	0.074940 	4190 	0.073542
33.99 	0.067381 	4200 	0.066684
34.01 	0.072395 	4213 	0.070843
34.03 	0.067154 	4244 	0.065475
34.05 	0.079962 	4252 	0.077896
34.07 	0.063027 	4268 	0.061517
34.09 	0.071395 	4286 	0.069733
34.11 	0.069735 	4302 	0.067556
34.13 	0.071263 	4308 	0.070447
34.15 	0.063727 	4331 	0.062509
34.17 	0.063218 	4350 	0.062141
34.19 	0.069693 	4362 	0.068328
34.21 	0.075269 	4371 	0.073929
34.23 	0.069429 	4393 	0.067140
34.25 	0.070618 	4404 	0.069554
34.27 	0.077793 	4422 	0.076203
34.29 	0.065840 	4435 	0.064058
34.31 	0.072678 	4458 	0.071496
34.33 	0.069559 	4471 	0.067671
34.35 	0.073372 	4484 	0.072719
34.37 	0.061456 	4491 	0.060543
34.39 	0.065082 	4502 	0.063911
34.41 	0.070261 	4526 	0.068708
34.43 	0.066755 	4539 	0.065572
34.45 	0.059537 	4535 	0.058504
34.47 	0.071211 	4592 	0.070573
34.49 	0.062867 	4597 	0.061848
34.51 	0.067738 	4606 	0.066975
34.53 	0.065690 	4643 	0.064429
34.55 	0.064829 	4643 	0.063946
34.57 	0.067811 	4660 	0.066408
34.59 	0.062246 	4675 	0.061369
34.61 	0.067703 	4697 	0.065832
34.63 	0.071338 	4710 	0.069452
34.65 	0.069053 	4721 	0.066303
34.67 	0.065176 	4741 	0.063570
34.69 	0.063315 	4754 	0.062083
34.71 	0.066513 	4766 	0.065407
34.73 	0.071652 	4787 	0.070551
34.75 	0.062812 	4808 	0.061594
34.77 	0.058738 	4818 	0.058009
34.79 	0.064677 	4824 	0.064069
34.81 	0.061920 	4845 	0.060328
34.83 	0.065611 	4862 	0.064286
34.85 	0.066954 	4869 	0.065270
34.87 	0.072720 	4868 	0.071256
34.89 	0.069644 	4882 	0.067704
34.91 	0.072511 	4882 	0.070831
34.93 	0.065115 	4899 	0.063322
34.95 	0.074438 	4890 	0.072142
34.97 	0.072827 	4902 	0.071015
34.99 	0.064325 	4897 	0.063607
35.01 	0.072923 	4923 	0.071019
35.03 	0.065547 	4943 	0.063770
35.05 	0.066505 	4947 	0.065439
35.07 	0.069231 	4940 	0.067926
35.09 	0.065617 	4953 	0.064907
35.11 	0.068122 	4947 	0.066820
35.13 	0.068374 	4958 	0.067902
35.15 	0.075147 	4937 	0.072636
35.17 	0.066114 	4946 	0.064436
35.19 	0.074059 	4942 	0.071432
35.21 	0.069565 	4945 	0.067670
35.23 	0.068756 	4945 	0.067216
35.25 	0.065750 	4943 	0.064683
35.27 	0.073969 	4948 	0.072075
35.29 	0.067947 	4945 	0.067000
35.31 	0.068518 	4933 	0.067924
35.33 	0.071010 	4943 	0.069943
35.35 	0.069810 	4942 	0.068150
35.37 	0.066208 	4939 	0.064666
35.39 	0.064307 	4945 	0.062649
35.41 	0.065570 	4926 	0.064500
35.43 	0.067505 	4933 	0.066298
35.45 	0.065222 	4937 	0.064391
35.47 	0.066315 	4931 	0.064890
35.49 	0.071487 	4910 	0.070055
35.51 	0.070646 	4926 	0.068981
35.53 	0.066276 	4949 	0.064718
35.55 	0.067745 	4945 	0.065949
35.57 	0.065477 	4933 	0.063696
35.59 	0.073003 	4945 	0.071818
35.61 	0.064346 	4942 	0.063517
35.63 	0.065547 	4943 	0.063612
35.65 	0.066532 	4945 	0.065703
35.67 	0.065965 	4942 	0.064879
35.69 	0.068338 	4946 	0.066443
35.71 	0.064412 	4937 	0.063106
35.73 	0.069084 	4936 	0.067660
35.75 	0.064084 	4931 	0.063134
35.77 	0.066047 	4951 	0.064273
35.79 	0.073601 	4932 	0.071938
35.81 	0.071964 	4933 	0.070896
35.83 	0.060251 	4946 	0.058593
35.85 	0.063627 	4935 	0.062440
35.87 	0.063985 	4923 	0.062657
35.89 	0.071544 	4934 	0.070081
35.91 	0.072458 	4927 	0.070556
35.93 	0.068399 	4927 	0.067685
35.95 	0.070368 	4917 	0.068700
35.97 	0.067997 	4912 	0.066427
35.99 	0.061551 	4939 	0.059416
36.01 	0.062677 	4930 	0.061113
36.03 	0.066761 	4943 	0.065932
36.05 	0.070981 	4945 	0.068967
36.07 	0.066613 	4939 	0.065407
36.09 	0.077733 	4940 	0.075005
36.11 	0.069182 	4929 	0.067856
36.13 	0.068596 	4942 	0.067292
36.15 	0.064386 	4939 	0.063199
36.17 	0.062132 	4925 	0.061042
36.19 	0.068421 	4940 	0.066880
36.21 	0.061473 	4929 	0.060047
36.23 	0.059980 	4935 	0.058911
36.25 	0.065574 	4941 	0.063539
36.27 	0.070457 	4925 	0.069129
36.29 	0.067532 	4931 	0.066225
36.31 	0.065138 	4928 	0.063949
36.33 	0.066896 	4933 	0.064858
36.35 	0.067356 	4929 	0.065673
36.37 	0.068251 	4923 	0.066585
36.39 	0.073969 	4921 	0.072164
36.41 	0.068423 	4896 	0.067466
36.43 	0.064529 	4928 	0.063935
36.45 	0.061460 	4930 	0.061223
36.47 	0.065640 	4936 	0.064453
36.49 	0.069810 	4942 	0.068368
36.51 	0.068315 	4933 	0.067365
36.53 	0.069998 	4943 	0.068201
36.55 	0.069413 	4927 	0.068581
36.57 	0.065261 	4934 	0.064193
36.59 	0.063576 	4939 	0.062390
36.61 	0.063476 	4931 	0.062644
36.63 	0.061245 	4931 	0.060176
36.65 	0.066302 	4932 	0.065352
36.67 	0.063692 	4930 	0.062622
36.69 	0.067559 	4929 	0.066371
36.71 	0.066653 	4921 	0.064749
36.73 	0.063756 	4925 	0.062924
36.75 	0.066343 	4944 	0.064329
36.77 	0.063021 	4919 	0.061949
36.79 	0.062792 	4921 	0.061007
36.81 	0.065500 	4916 	0.064408
36.83 	0.065717 	4915 	0.064009
36.85 	0.059208 	4898 	0.058610
36.87 	0.061084 	4944 	0.060136
36.89 	0.068348 	4916 	0.067157
36.91 	0.062740 	4941 	0.061910
36.93 	0.066126 	4930 	0.064462
36.95 	0.057977 	4933 	0.057264
36.97 	0.068910 	4934 	0.067841
36.99 	0.066464 	4935 	0.064802
37.01 	0.061220 	4933 	0.059895
37.03 	0.073111 	4924 	0.072160
37.05 	0.063325 	4927 	0.061898
37.07 	0.061196 	4935 	0.060721
37.09 	0.060471 	4928 	0.059520
37.11 	0.063222 	4935 	0.061797
37.13 	0.060723 	4924 	0.059414
37.15 	0.066001 	4909 	0.064788
37.17 	0.061816 	4934 	0.060490
37.19 	0.058071 	4925 	0.057595
37.21 	0.062843 	4917 	0.061632
37.23 	0.063237 	4918 	0.062403
37.25 	0.061087 	4911 	0.060113
37.27 	0.065591 	4894 	0.063895
37.29 	0.066734 	4930 	0.065071
37.31 	0.067072 	4935 	0.066004
37.33 	0.069210 	4927 	0.067408
37.35 	0.063791 	4938 	0.062605
37.37 	0.059874 	4927 	0.059161
37.39 	0.070980 	4931 	0.069534
37.41 	0.059217 	4931 	0.057673
37.43 	0.061638 	4932 	0.060926
37.45 	0.062551 	4924 	0.061599
37.47 	0.062487 	4929 	0.061042
37.49 	0.068454 	4923 	0.067007
37.51 	0.060409 	4933 	0.059222
37.53 	0.063224 	4919 	0.061557
37.55 	0.067951 	4930 	0.066763
37.57 	0.055025 	4925 	0.054431
37.59 	0.063886 	4915 	0.063151
37.61 	0.063592 	4922 	0.062759
37.63 	0.069526 	4919 	0.067840
37.65 	0.063644 	4918 	0.062572
37.67 	0.061786 	4904 	0.060214
37.69 	0.060229 	4898 	0.059152
37.71 	0.060256 	4929 	0.059067
37.73 	0.064922 	4929 	0.063833
37.75 	0.058300 	4940 	0.057470
37.77 	0.073984 	4920 	0.072912
37.79 	0.068763 	4930 	0.066961
37.81 	0.064869 	4933 	0.063682
37.83 	0.066260 	4920 	0.065070
37.85 	0.059529 	4922 	0.058815
37.87 	0.062158 	4939 	0.061091
37.89 	0.057259 	4925 	0.056545
37.91 	0.065314 	4930 	0.064245
37.93 	0.064037 	4919 	0.062489
37.95 	0.062182 	4921 	0.060516
37.97 	0.056807 	4929 	0.056450
37.99 	0.063314 	4912 	0.062480
38.01 	0.067370 	4928 	0.066063
38.03 	0.058057 	4909 	0.057341
38.05 	0.060305 	4925 	0.059472
38.07 	0.057242 	4909 	0.056645
38.09 	0.059041 	4878 	0.058440
38.11 	0.058359 	4935 	0.058240
38.13 	0.060766 	4937 	0.060172
38.15 	0.061000 	4918 	0.060048
38.17 	0.064300 	4930 	0.062874
38.19 	0.067951 	4930 	0.066525
38.21 	0.059720 	4923 	0.058530
38.23 	0.068854 	4938 	0.067549
38.25 	0.065690 	4917 	0.064360
38.27 	0.067140 	4930 	0.065714
38.29 	0.071080 	4924 	0.069415
38.31 	0.067587 	4927 	0.065684
38.33 	0.069862 	4924 	0.067721
38.35 	0.070820 	4928 	0.069988
38.37 	0.074330 	4924 	0.072902
38.39 	0.068446 	4909 	0.066775
38.41 	0.077392 	4923 	0.076063
38.43 	0.073027 	4916 	0.070862
38.45 	0.074827 	4918 	0.073279
38.47 	0.073161 	4907 	0.071967
38.49 	0.070330 	4877 	0.069009
38.51 	0.070965 	4932 	0.069302
38.53 	0.077298 	4929 	0.075634
38.55 	0.077796 	4936 	0.076016
38.57 	0.078611 	4923 	0.076112
38.59 	0.073721 	4924 	0.072273
38.61 	0.070300 	4936 	0.069350
38.63 	0.070065 	4924 	0.068637
38.65 	0.071777 	4918 	0.070090
38.67 	0.069273 	4937 	0.067968
38.69 	0.070703 	4922 	0.069513
38.71 	0.066003 	4924 	0.064933
38.73 	0.070150 	4918 	0.068721
38.75 	0.067993 	4927 	0.066328
38.77 	0.067235 	4923 	0.065808
38.79 	0.059384 	4934 	0.058434
38.81 	0.065554 	4912 	0.064719
38.83 	0.053669 	4919 	0.053193
38.85 	0.058021 	4912 	0.057425
38.87 	0.058440 	4911 	0.057605
38.89 	0.058812 	4897 	0.057855
38.91 	0.061187 	4903 	0.059992
38.93 	0.053868 	4938 	0.053275
38.95 	0.051444 	4918 	0.050372
38.97 	0.056986 	4931 	0.055561
38.99 	0.058943 	4937 	0.058587
39.01 	0.055510 	4918 	0.054677
39.03 	0.058370 	4934 	0.056808
39.05 	0.052589 	4925 	0.051875
39.07 	0.060926 	4924 	0.059736
39.09 	0.051391 	4923 	0.050440
39.11 	0.052525 	4931 	0.051931
39.13 	0.050985 	4923 	0.050390
39.15 	0.055544 	4915 	0.055187
39.17 	0.051043 	4937 	0.049600
39.19 	0.057962 	4917 	0.056771
39.21 	0.052953 	4910 	0.052357
39.23 	0.055635 	4925 	0.055020
39.25 	0.060544 	4922 	0.060187
39.27 	0.057841 	4910 	0.056767
39.29 	0.059580 	4901 	0.059102
39.31 	0.055487 	4884 	0.054648
39.33 	0.051511 	4931 	0.050323
39.35 	0.058967 	4935 	0.057542
39.37 	0.059850 	4929 	0.058780
39.39 	0.049300 	4929 	0.048706
39.41 	0.056378 	4931 	0.055032
39.43 	0.054936 	4933 	0.054461
39.45 	0.057665 	4925 	0.057070
39.47 	0.052610 	4923 	0.052253
39.49 	0.056761 	4933 	0.055435
39.51 	0.051178 	4924 	0.050464
39.53 	0.049766 	4923 	0.049528
39.55 	0.053060 	4919 	0.052107
39.57 	0.053517 	4933 	0.052448
39.59 	0.053542 	4912 	0.052350
39.61 	0.057892 	4923 	0.057178
39.63 	0.054043 	4922 	0.053329
39.65 	0.053796 	4926 	0.052964
39.67 	0.049461 	4913 	0.048984
39.69 	0.055126 	4916 	0.054054
39.71 	0.053115 	4895 	0.052756
39.73 	0.060921 	4908 	0.059847
39.75 	0.054789 	4928 	0.053363
39.77 	0.059372 	4935 	0.058066
39.79 	0.049533 	4926 	0.049176
39.81 	0.053785 	4927 	0.052121
39.83 	0.053506 	4934 	0.052675
39.85 	0.052162 	4927 	0.051329
39.87 	0.053198 	4925 	0.051890
39.89 	0.051480 	4934 	0.051123
39.91 	0.053637 	4922 	0.053042
39.93 	0.049625 	4937 	0.048676
39.95 	0.054934 	4915 	0.053861
39.97 	0.057630 	4928 	0.056917
39.99 	0.049270 	4932 	0.048676
40.01 	0.048394 	4918 	0.047917
40.03 	0.048498 	4928 	0.047547
40.05 	0.049827 	4917 	0.049470
40.07 	0.053829 	4923 	0.053115
40.09 	0.051465 	4916 	0.050988
40.11 	0.053092 	4916 	0.052377
40.13 	0.055760 	4896 	0.054803
40.15 	0.057195 	4913 	0.056480
40.17 	0.051542 	4928 	0.050591
40.19 	0.050314 	4929 	0.049720
40.21 	0.052888 	4935 	0.052057
40.23 	0.051095 	4932 	0.050244
40.25 	0.053659 	4920 	0.053063
40.27 	0.050233 	4937 	0.049758
40.29 	0.055815 	4927 	0.054983
40.31 	0.051427 	4939 	0.051072
40.33 	0.047851 	4932 	0.047019
40.35 	0.052246 	4919 	0.051512
40.37 	0.052343 	4929 	0.051373
40.39 	0.050091 	4931 	0.049616
40.41 	0.057868 	4925 	0.057273
40.43 	0.050996 	4922 	0.049686
40.45 	0.047233 	4933 	0.046639
40.47 	0.051444 	4918 	0.050610
40.49 	0.049127 	4926 	0.048295
40.51 	0.052418 	4922 	0.052061
40.53 	0.052278 	4916 	0.050968
40.55 	0.048900 	4908 	0.048542
40.57 	0.054601 	4890 	0.053882
40.59 	0.051651 	4937 	0.051176
40.61 	0.049443 	4935 	0.048731
40.63 	0.051521 	4930 	0.050808
40.65 	0.050030 	4937 	0.049437
40.67 	0.049270 	4932 	0.048201
40.69 	0.056107 	4937 	0.054070
40.71 	0.051095 	4932 	0.050263
40.73 	0.050142 	4926 	0.049072
40.75 	0.047860 	4931 	0.046791
40.77 	0.048188 	4939 	0.047595
40.79 	0.048132 	4924 	0.047656
40.81 	0.048168 	4941 	0.048168
40.83 	0.055195 	4928 	0.054482
40.85 	0.047725 	4924 	0.046655
40.87 	0.055398 	4928 	0.054685
40.89 	0.051105 	4931 	0.050036
40.91 	0.049970 	4923 	0.049355
40.93 	0.054317 	4934 	0.053248
40.95 	0.051496 	4913 	0.050900
40.97 	0.053006 	4924 	0.052530
40.99 	0.047725 	4924 	0.047250
41.01 	0.051099 	4912 	0.050384
41.03 	0.048522 	4905 	0.047805
41.05 	0.054092 	4936 	0.053499
41.07 	0.051318 	4930 	0.051081
41.09 	0.050820 	4939 	0.049990
41.11 	0.051064 	4935 	0.050826
41.13 	0.049838 	4936 	0.048889
41.15 	0.051407 	4941 	0.050577
41.17 	0.053304 	4934 	0.052710
41.19 	0.048479 	4930 	0.047885
41.21 	0.059550 	4937 	0.058364
41.23 	0.047580 	4939 	0.046632
41.25 	0.049057 	4933 	0.048226
41.27 	0.052930 	4931 	0.052218
41.29 	0.046266 	4928 	0.045553
41.31 	0.047638 	4933 	0.047163
41.33 	0.048613 	4937 	0.048138
41.35 	0.049210 	4938 	0.048143
41.37 	0.048335 	4924 	0.047383
41.39 	0.047233 	4933 	0.046995
41.41 	0.052375 	4926 	0.051781
41.43 	0.054778 	4929 	0.054065
41.45 	0.053114 	4914 	0.052041
41.47 	0.051157 	4926 	0.050305
41.49 	0.051717 	4892 	0.051358
41.51 	0.051215 	4940 	0.050385
41.53 	0.046926 	4944 	0.046195
41.55 	0.047619 	4935 	0.046788
41.57 	0.052823 	4941 	0.052349
41.59 	0.045206 	4933 	0.044592
41.61 	0.044216 	4953 	0.043861
41.63 	0.048198 	4938 	0.047011
41.65 	0.052140 	4929 	0.051546
41.67 	0.046964 	4940 	0.046845
41.69 	0.046897 	4947 	0.046542
41.71 	0.047021 	4934 	0.045814
41.73 	0.043152 	4936 	0.042678
41.75 	0.053358 	4929 	0.052407
41.77 	0.047966 	4941 	0.047018
41.79 	0.050566 	4944 	0.049737
41.81 	0.049433 	4936 	0.049195
41.83 	0.051339 	4928 	0.050388
41.85 	0.053452 	4939 	0.052622
41.87 	0.046606 	4935 	0.045538
41.89 	0.040138 	4933 	0.039900
41.91 	0.043963 	4936 	0.043013
41.93 	0.049878 	4932 	0.049284
41.95 	0.050700 	4931 	0.049868
41.97 	0.047823 	4914 	0.047465
41.99 	0.049949 	4905 	0.049352
42.01 	0.048968 	4942 	0.048731
42.03 	0.044948 	4939 	0.044711
42.05 	0.047658 	4952 	0.046948
42.07 	0.047802 	4937 	0.046853
42.09 	0.044058 	4948 	0.043703
42.11 	0.050556 	4945 	0.049490
42.13 	0.043883 	4945 	0.043527
42.15 	0.050425 	4938 	0.049476
42.17 	0.047174 	4918 	0.046201
42.19 	0.048492 	4908 	0.048015
42.21 	0.050398 	4901 	0.049920
42.23 	0.050082 	4892 	0.049723
42.25 	0.048272 	4889 	0.046934
42.27 	0.048831 	4874 	0.048109
42.29 	0.046473 	4863 	0.045992
42.31 	0.049022 	4855 	0.048177
42.33 	0.046132 	4834 	0.045526
42.35 	0.047127 	4838 	0.046400
42.37 	0.047412 	4830 	0.046806
42.39 	0.052040 	4804 	0.051308
42.41 	0.045379 	4804 	0.044769
42.43 	0.046536 	4792 	0.045558
42.45 	0.046901 	4776 	0.046533
42.47 	0.044491 	4765 	0.044122
42.49 	0.045331 	4765 	0.044347
42.51 	0.049968 	4743 	0.049351
42.53 	0.045897 	4728 	0.045277
42.55 	0.043755 	4708 	0.042636
42.57 	0.045877 	4730 	0.045506
42.59 	0.049905 	4729 	0.049162
42.61 	0.045879 	4708 	0.045133
42.63 	0.042897 	4709 	0.042523
42.65 	0.045037 	4685 	0.044287
42.67 	0.044406 	4684 	0.043906
42.69 	0.046213 	4674 	0.045190
42.71 	0.045893 	4663 	0.045014
42.73 	0.046767 	4640 	0.046641
42.75 	0.045917 	4617 	0.045262
42.77 	0.043913 	4600 	0.043658
42.79 	0.046704 	4582 	0.045426
42.81 	0.044279 	4562 	0.043380
42.83 	0.046517 	4536 	0.045871
42.85 	0.043286 	4528 	0.042769
42.87 	0.046455 	4499 	0.045522
42.89 	0.045313 	4480 	0.044789
42.91 	0.042639 	4456 	0.042113
42.93 	0.049933 	4446 	0.049010
42.95 	0.041440 	4416 	0.041042
42.97 	0.048625 	4401 	0.047672
42.99 	0.043330 	4385 	0.042929
43.01 	0.041714 	4363 	0.041177
43.03 	0.046619 	4333 	0.045943
43.05 	0.044162 	4325 	0.043756
43.07 	0.046555 	4296 	0.046282
43.09 	0.050665 	4283 	0.049845
43.11 	0.047944 	4255 	0.046842
43.13 	0.042955 	4237 	0.042103
43.15 	0.048502 	4206 	0.048084
43.17 	0.050491 	4179 	0.049930
43.19 	0.051741 	4194 	0.051322
43.21 	0.042665 	4172 	0.042525
43.23 	0.047424 	4154 	0.046014
43.25 	0.043289 	4135 	0.042581
43.27 	0.041169 	4105 	0.040456
43.29 	0.046585 	4100 	0.046014
43.31 	0.045599 	4079 	0.044594
43.33 	0.049617 	4051 	0.049184
43.35 	0.038194 	4032 	0.037759
43.37 	0.047821 	4015 	0.047529
43.39 	0.047226 	4002 	0.046934
43.41 	0.045569 	3972 	0.045274
43.43 	0.044192 	3960 	0.043896
43.45 	0.045235 	3935 	0.044342
43.47 	0.041571 	3921 	0.041272
43.49 	0.038235 	3897 	0.037483
43.51 	0.046944 	3877 	0.046012
43.53 	0.045560 	3863 	0.045106
43.55 	0.044872 	2964 	0.044279
43.57 	0.036640 	2238 	0.035593
43.59 	0.050974 	1746 	0.050303
43.61 	0.048113 	1351 	0.047679
43.63 	0.055944 	1001 	0.055944
43.65 	0.042213 	687 	0.042213
43.67 	0.053785 	502 	0.053785
43.69 	0.049046 	367 	0.047450
43.71 	0.025105 	239 	0.025105
43.73 	0.033333 	120 	0.033333
43.75 	0.062500 	16 	0.062500