File: Example_Data/25SC_s1_0005.002.dat
#F C:\frames\spec\25SC_s1_0005.002
#C title =s:5 frm:2 25SC_s1
#C wavelength =0.15406

#S 1  fr_average C:\frames\spec\25SC_s1_0005.002 C:\win32app\speccom\mask.axs chi 0 180 0 360 0.02
#C 2 theta =0.000000 to 180 deg
#C   q   =0.000000 to 81.568 nm^-1
#C  chi  =0.000000 to 360 deg
#C collumns:
#C  1 position (2theta or chi in degrees)
#C  2 average intensity (sum of all counts in the region divided with number of pixels)
#C  3 Number of pixels in region)
#C  4 error (sum of sqrt(intensity) for all pixels divided by number)
#N 4
#L TTh  Int  N_pix  Err
32.99 	0.065574 	61 	0.065574
33.01 	0.067583 	873 	0.066241
33.03 	0.064702 	1391 	0.063859
33.05 	0.063745 	1757 	0.063745
33.07 	0.057561 	2050 	0.056704
33.09 	0.063911 	2347 	0.061874
33.11 	0.055448 	2579 	0.054994
33.13 	0.061941 	2793 	0.060263
33.15 	0.056352 	2999 	0.055375
33.17 	0.064355 	3201 	0.063623
33.19 	0.065530 	3342 	0.063251
33.21 	0.055297 	3436 	0.054103
33.23 	0.061311 	3523 	0.059954
33.25 	0.052326 	3612 	0.051028
33.27 	0.058402 	3630 	0.057434
33.29 	0.059759 	3648 	0.058474
33.31 	0.061749 	3660 	0.060628
33.33 	0.057244 	3686 	0.055654
33.35 	0.059285 	3694 	0.058810
33.37 	0.056004 	3714 	0.055216
33.39 	0.061679 	3729 	0.060867
33.41 	0.063904 	3740 	0.062337
33.43 	0.067535 	3761 	0.066445
33.45 	0.059104 	3773 	0.058328
33.47 	0.060821 	3798 	0.059896
33.49 	0.059333 	3809 	0.058410
33.51 	0.063172 	3815 	0.061943
33.53 	0.061442 	3841 	0.060070
33.55 	0.055946 	3843 	0.055793
33.57 	0.056745 	3877 	0.055838
33.59 	0.059021 	3880 	0.058417
33.61 	0.063955 	3909 	0.062132
33.63 	0.064557 	3919 	0.063212
33.65 	0.059018 	3931 	0.058422
33.67 	0.058675 	3954 	0.057786
33.69 	0.060713 	3953 	0.059652
33.71 	0.057107 	3975 	0.056198
33.73 	0.063437 	4004 	0.062559
33.75 	0.065016 	3999 	0.063820
33.77 	0.059130 	4025 	0.057942
33.79 	0.060381 	4041 	0.059366
33.81 	0.062159 	4038 	0.060709
33.83 	0.069136 	4050 	0.067087
33.85 	0.058063 	4099 	0.056634
33.87 	0.057164 	4111 	0.055311
33.89 	0.060665 	4121 	0.060096
33.91 	0.061461 	4149 	0.059343
33.93 	0.062154 	4151 	0.061307
33.95 	0.060990 	4181 	0.059589
33.97 	0.061575 	4190 	0.060736
33.99 	0.060476 	4200 	0.059221
34.01 	0.062901 	4213 	0.062483
34.03 	0.056079 	4244 	0.055665
34.05 	0.060677 	4252 	0.059162
34.07 	0.059044 	4268 	0.058358
34.09 	0.058563 	4286 	0.057879
34.11 	0.052766 	4302 	0.051404
34.13 	0.056407 	4308 	0.055183
34.15 	0.060956 	4331 	0.060122
34.17 	0.055172 	4350 	0.054634
34.19 	0.053874 	4362 	0.053069
34.21 	0.056509 	4371 	0.055839
34.23 	0.053039 	4393 	0.051839
34.25 	0.061308 	4404 	0.060510
34.27 	0.057666 	4422 	0.056606
34.29 	0.063360 	4435 	0.062303
34.31 	0.055182 	4458 	0.054787
34.33 	0.064191 	4471 	0.063274
34.35 	0.055531 	4484 	0.054486
34.37 	0.060788 	4491 	0.059745
34.39 	0.053088 	4502 	0.052307
34.41 	0.066063 	4526 	0.064768
34.43 	0.065653 	4539 	0.065008
34.45 	0.054245 	4535 	0.053082
34.47 	0.054443 	4592 	0.053167
34.49 	0.054818 	4597 	0.053926
34.51 	0.060139 	4606 	0.058867
34.53 	0.060090 	4643 	0.058955
34.55 	0.059014 	4643 	0.057353
34.57 	0.060300 	4660 	0.059420
34.59 	0.053262 	4675 	0.051863
34.61 	0.062167 	4697 	0.061170
34.63 	0.058811 	4710 	0.057816
34.65 	0.053379 	4721 	0.052882
34.67 	0.064754 	4741 	0.064013
34.69 	0.058687 	4754 	0.058071
34.71 	0.054973 	4766 	0.053744
34.73 	0.061625 	4787 	0.060279
34.75 	0.060316 	4808 	0.059585
34.77 	0.059568 	4818 	0.058352
34.79 	0.057836 	4824 	0.056622
34.81 	0.061094 	4845 	0.059885
34.83 	0.052653 	4862 	0.051448
34.85 	0.062230 	4869 	0.061388
34.87 	0.056902 	4868 	0.056060
34.89 	0.058787 	4882 	0.058187
34.91 	0.057149 	4882 	0.056309
34.93 	0.063686 	4899 	0.062371
34.95 	0.058896 	4890 	0.058157
34.97 	0.067931 	4902 	0.066139
34.99 	0.056361 	4897 	0.055284
35.01 	0.061345 	4923 	0.060036
35.03 	0.066154 	4943 	0.064239
35.05 	0.059834 	4947 	0.058887
35.07 	0.063360 	4940 	0.062274
35.09 	0.060973 	4953 	0.060264
35.11 	0.064888 	4947 	0.063941
35.13 	0.067164 	4958 	0.066455
35.15 	0.069678 	4937 	0.068491
35.17 	0.064092 	4946 	0.062908
35.19 	0.052813 	4942 	0.052457
35.21 	0.057230 	4945 	0.056282
35.23 	0.058443 	4945 	0.056903
35.25 	0.059680 	4943 	0.058377
35.27 	0.058205 	4948 	0.056666
35.29 	0.057230 	4945 	0.056400
35.31 	0.062639 	4933 	0.060977
35.33 	0.058062 	4943 	0.057232
35.35 	0.060704 	4942 	0.060230
35.37 	0.062563 	4939 	0.060508
35.39 	0.061072 	4945 	0.060243
35.41 	0.062322 	4926 	0.061728
35.43 	0.065275 	4933 	0.063731
35.45 	0.058538 	4937 	0.057114
35.47 	0.056378 	4931 	0.056259
35.49 	0.054990 	4910 	0.054274
35.51 	0.060495 	4926 	0.059782
35.53 	0.057385 	4949 	0.056557
35.55 	0.058847 	4945 	0.058373
35.57 	0.058382 	4933 	0.057314
35.59 	0.064307 	4945 	0.063360
35.61 	0.053420 	4942 	0.052946
35.63 	0.054016 	4943 	0.052594
35.65 	0.057027 	4945 	0.056435
35.67 	0.057062 	4942 	0.056351
35.69 	0.062070 	4946 	0.060649
35.71 	0.060968 	4937 	0.060612
35.73 	0.066451 	4936 	0.065264
35.75 	0.056378 	4931 	0.056022
35.77 	0.063624 	4951 	0.062046
35.79 	0.060827 	4932 	0.059877
35.81 	0.058585 	4933 	0.056804
35.83 	0.059038 	4946 	0.058682
35.85 	0.055117 	4935 	0.054286
35.87 	0.060532 	4923 	0.059461
35.89 	0.055938 	4934 	0.054751
35.91 	0.056627 	4927 	0.055557
35.93 	0.056221 	4927 	0.055270
35.95 	0.064470 	4917 	0.063636
35.97 	0.060668 	4912 	0.059714
35.99 	0.060741 	4939 	0.059773
36.01 	0.053347 	4930 	0.052396
36.03 	0.057455 	4943 	0.056744
36.05 	0.060465 	4945 	0.059873
36.07 	0.062158 	4939 	0.061091
36.09 	0.058502 	4940 	0.057435
36.11 	0.066545 	4929 	0.065119
36.13 	0.062323 	4942 	0.060901
36.15 	0.059729 	4939 	0.058898
36.17 	0.060305 	4925 	0.058877
36.19 	0.061943 	4940 	0.061113
36.21 	0.058430 	4929 	0.057717
36.23 	0.067882 	4935 	0.066695
36.25 	0.054847 	4941 	0.053899
36.27 	0.061320 	4925 	0.059893
36.29 	0.059217 	4931 	0.058742
36.31 	0.065747 	4928 	0.064915
36.33 	0.063856 	4933 	0.062549
36.35 	0.059647 	4929 	0.058934
36.37 	0.063376 	4923 	0.062067
36.39 	0.062792 	4921 	0.061840
36.41 	0.062704 	4896 	0.061747
36.43 	0.057427 	4928 	0.056714
36.45 	0.061258 	4930 	0.060069
36.47 	0.059360 	4936 	0.058292
36.49 	0.058478 	4942 	0.057412
36.51 	0.061018 	4933 	0.060543
36.53 	0.061501 	4943 	0.060198
36.55 	0.060889 	4927 	0.059819
36.57 	0.062221 	4934 	0.061133
36.59 	0.056287 	4939 	0.055456
36.61 	0.066924 	4931 	0.065736
36.63 	0.052525 	4931 	0.051931
36.65 	0.066707 	4932 	0.065401
36.67 	0.056795 	4930 	0.055488
36.69 	0.060864 	4929 	0.060032
36.71 	0.059338 	4921 	0.058504
36.73 	0.058274 	4925 	0.057323
36.75 	0.060073 	4944 	0.059006
36.77 	0.058548 	4919 	0.057219
36.79 	0.062589 	4921 	0.062113
36.81 	0.059805 	4916 	0.058613
36.83 	0.065717 	4915 	0.063691
36.85 	0.058187 	4898 	0.057709
36.87 	0.059466 	4944 	0.059111
36.89 	0.061229 	4916 	0.060514
36.91 	0.059907 	4941 	0.058840
36.93 	0.060852 	4930 	0.059149
36.95 	0.055139 	4933 	0.054664
36.97 	0.057154 	4934 	0.056442
36.99 	0.059169 	4935 	0.057112
37.01 	0.062437 	4933 	0.061843
37.03 	0.058489 	4924 	0.058013
37.05 	0.067181 	4927 	0.065873
37.07 	0.055319 	4935 	0.054251
37.09 	0.062297 	4928 	0.061227
37.11 	0.057143 	4935 	0.056549
37.13 	0.060520 	4924 	0.059330
37.15 	0.052964 	4909 	0.052487
37.17 	0.064451 	4934 	0.062650
37.19 	0.057259 	4925 	0.056783
37.21 	0.053488 	4917 	0.052396
37.23 	0.065270 	4918 	0.064437
37.25 	0.056811 	4911 	0.055618
37.27 	0.058439 	4894 	0.057960
37.29 	0.057809 	4930 	0.056978
37.31 	0.057548 	4935 	0.056836
37.33 	0.059874 	4927 	0.058923
37.35 	0.061563 	4938 	0.060476
37.37 	0.050538 	4927 	0.049824
37.39 	0.063273 	4931 	0.062204
37.41 	0.056378 	4931 	0.056140
37.43 	0.059813 	4932 	0.058626
37.45 	0.053006 	4924 	0.052411
37.47 	0.060661 	4929 	0.058879
37.49 	0.057892 	4923 	0.056821
37.51 	0.051085 	4933 	0.050728
37.53 	0.055906 	4919 	0.055310
37.55 	0.059838 	4930 	0.058768
37.57 	0.049949 	4925 	0.048879
37.59 	0.058189 	4915 	0.057355
37.61 	0.054856 	4922 	0.054023
37.63 	0.053466 	4919 	0.052275
37.65 	0.060187 	4918 	0.058619
37.67 	0.054241 	4904 	0.052927
37.69 	0.052266 	4898 	0.051190
37.71 	0.054575 	4929 	0.053505
37.73 	0.053155 	4929 	0.052442
37.75 	0.053644 	4940 	0.052932
37.77 	0.053455 	4920 	0.052602
37.79 	0.054361 	4930 	0.053034
37.81 	0.055139 	4933 	0.053951
37.83 	0.053049 	4920 	0.051858
37.85 	0.056481 	4922 	0.055271
37.87 	0.058311 	4939 	0.057363
37.89 	0.060711 	4925 	0.059878
37.91 	0.050913 	4930 	0.050437
37.93 	0.053263 	4919 	0.052787
37.95 	0.054664 	4921 	0.053830
37.97 	0.056198 	4929 	0.055723
37.99 	0.051303 	4912 	0.051064
38.01 	0.053571 	4928 	0.052620
38.03 	0.055408 	4909 	0.054096
38.05 	0.053604 	4925 	0.052890
38.07 	0.052557 	4909 	0.051344
38.09 	0.053711 	4878 	0.053230
38.11 	0.049443 	4935 	0.048830
38.13 	0.056107 	4937 	0.055514
38.15 	0.056934 	4918 	0.056100
38.17 	0.049899 	4930 	0.049067
38.19 	0.054564 	4930 	0.053495
38.21 	0.057485 	4923 	0.056771
38.23 	0.054475 	4938 	0.053882
38.25 	0.055725 	4917 	0.055368
38.27 	0.056592 	4930 	0.055879
38.29 	0.053615 	4924 	0.052901
38.31 	0.063122 	4927 	0.061814
38.33 	0.062551 	4924 	0.061123
38.35 	0.058442 	4928 	0.057471
38.37 	0.062348 	4924 	0.060920
38.39 	0.061723 	4909 	0.060411
38.41 	0.062767 	4923 	0.062053
38.43 	0.064890 	4916 	0.063579
38.45 	0.063237 	4918 	0.061212
38.47 	0.067862 	4907 	0.065952
38.49 	0.058848 	4877 	0.057987
38.51 	0.066099 	4932 	0.064911
38.53 	0.070805 	4929 	0.069260
38.55 	0.060575 	4936 	0.059132
38.57 	0.066626 	4923 	0.065079
38.59 	0.066206 	4924 	0.065136
38.61 	0.061588 	4936 	0.060639
38.63 	0.064175 	4924 	0.063224
38.65 	0.069947 	4918 	0.068994
38.67 	0.065222 	4937 	0.064035
38.69 	0.061560 	4922 	0.060251
38.71 	0.060926 	4924 	0.059974
38.73 	0.065677 	4918 	0.064010
38.75 	0.059671 	4927 	0.058839
38.77 	0.061142 	4923 	0.059714
38.79 	0.055533 	4934 	0.053871
38.81 	0.063925 	4912 	0.062494
38.83 	0.055296 	4919 	0.054581
38.85 	0.060261 	4912 	0.059664
38.87 	0.047241 	4911 	0.046525
38.89 	0.050643 	4897 	0.050165
38.91 	0.050581 	4903 	0.050103
38.93 	0.054273 	4938 	0.053205
38.95 	0.055104 	4918 	0.054032
38.97 	0.049888 	4931 	0.048938
38.99 	0.048613 	4937 	0.048118
39.01 	0.047580 	4918 	0.046985
39.03 	0.048439 	4934 	0.047233
39.05 	0.051371 	4925 	0.050657
39.07 	0.047116 	4924 	0.046759
39.09 	0.044485 	4923 	0.043652
39.11 	0.047049 	4931 	0.046099
39.13 	0.048548 	4923 	0.047695
39.15 	0.048423 	4915 	0.047927
39.17 	0.047802 	4937 	0.047328
39.19 	0.051454 	4917 	0.050739
39.21 	0.041344 	4910 	0.040270
39.23 	0.047107 	4925 	0.046631
39.25 	0.047135 	4922 	0.045945
39.27 	0.040733 	4910 	0.040614
39.29 	0.044889 	4901 	0.043813
39.31 	0.047912 	4884 	0.047552
39.33 	0.044616 	4931 	0.043547
39.35 	0.047214 	4935 	0.046383
39.37 	0.045242 	4929 	0.045005
39.39 	0.044634 	4929 	0.043683
39.41 	0.042182 	4931 	0.041469
39.43 	0.048247 	4933 	0.047653
39.45 	0.047716 	4925 	0.046883
39.47 	0.046313 	4923 	0.045599
39.49 	0.047638 	4933 	0.047045
39.51 	0.047116 	4924 	0.046759
39.53 	0.046313 	4923 	0.045837
39.55 	0.048587 	4919 	0.047853
39.57 	0.046827 	4933 	0.046471
39.59 	0.047231 	4912 	0.046874
39.61 	0.047735 	4923 	0.046783
39.63 	0.045104 	4922 	0.044390
39.65 	0.047300 	4926 	0.046587
39.67 	0.046815 	4913 	0.046099
39.69 	0.045159 	4916 	0.044325
39.71 	0.038202 	4895 	0.037604
39.73 	0.048696 	4908 	0.048199
39.75 	0.048701 	4928 	0.047156
39.77 	0.049240 	4935 	0.048172
39.79 	0.046082 	4926 	0.045250
39.81 	0.046885 	4927 	0.046052
39.83 	0.045805 	4934 	0.045211
39.85 	0.051959 	4927 	0.051245
39.87 	0.046497 	4925 	0.046022
39.89 	0.046413 	4934 	0.045225
39.91 	0.046729 	4922 	0.046491
39.93 	0.044156 	4937 	0.043682
39.95 	0.047406 	4915 	0.047048
39.97 	0.043425 	4928 	0.042593
39.99 	0.046837 	4932 	0.045748
40.01 	0.051444 	4918 	0.050253
40.03 	0.048093 	4928 	0.047379
40.05 	0.047183 	4917 	0.046588
40.07 	0.048141 	4923 	0.047665
40.09 	0.040073 	4916 	0.039477
40.11 	0.048617 	4916 	0.047663
40.13 	0.046773 	4896 	0.046534
40.15 	0.048036 	4913 	0.047917
40.17 	0.049513 	4928 	0.048443
40.19 	0.046257 	4929 	0.045425
40.21 	0.045795 	4935 	0.045439
40.23 	0.039943 	4932 	0.039824
40.25 	0.045122 	4920 	0.044169
40.27 	0.049625 	4937 	0.048795
40.29 	0.048102 	4927 	0.047270
40.31 	0.041709 	4939 	0.041353
40.33 	0.042174 	4932 	0.041342
40.35 	0.043098 	4919 	0.042622
40.37 	0.044837 	4929 	0.044480
40.39 	0.046035 	4931 	0.045798
40.41 	0.047919 	4925 	0.047443
40.43 	0.043072 	4922 	0.042834
40.45 	0.042165 	4933 	0.041809
40.47 	0.049410 	4918 	0.048100
40.49 	0.043849 	4926 	0.043254
40.51 	0.048964 	4922 	0.048250
40.53 	0.041701 	4916 	0.041343
40.55 	0.043806 	4908 	0.042971
40.57 	0.047239 	4890 	0.046401
40.59 	0.048815 	4937 	0.048103
40.61 	0.044377 	4935 	0.043408
40.63 	0.048884 	4930 	0.048171
40.65 	0.052056 	4937 	0.051344
40.67 	0.039943 	4932 	0.039706
40.69 	0.042536 	4937 	0.041824
40.71 	0.039943 	4932 	0.039587
40.73 	0.050548 	4926 	0.050072
40.75 	0.047049 	4931 	0.046218
40.77 	0.041304 	4939 	0.040592
40.79 	0.037571 	4924 	0.036976
40.81 	0.045537 	4941 	0.044688
40.83 	0.044034 	4928 	0.043915
40.85 	0.043664 	4924 	0.043307
40.87 	0.051542 	4928 	0.050829
40.89 	0.045224 	4931 	0.044274
40.91 	0.040219 	4923 	0.039624
40.93 	0.047426 	4934 	0.046832
40.95 	0.046000 	4913 	0.045285
40.97 	0.045695 	4924 	0.045695
40.99 	0.051381 	4924 	0.050172
41.01 	0.045399 	4912 	0.044803
41.03 	0.044444 	4905 	0.043967
41.05 	0.041734 	4936 	0.041022
41.07 	0.047262 	4930 	0.046549
41.09 	0.037659 	4939 	0.037422
41.11 	0.046606 	4935 	0.045538
41.13 	0.044165 	4936 	0.044047
41.15 	0.045537 	4941 	0.045182
41.17 	0.044994 	4934 	0.044638
41.19 	0.043408 	4930 	0.042932
41.21 	0.044764 	4937 	0.044408
41.23 	0.047176 	4939 	0.046464
41.25 	0.045408 	4933 	0.044696
41.27 	0.040560 	4931 	0.040322
41.29 	0.047890 	4928 	0.047652
41.31 	0.044395 	4933 	0.043782
41.33 	0.048005 	4937 	0.047174
41.35 	0.043945 	4938 	0.043470
41.37 	0.040820 	4924 	0.040464
41.39 	0.043584 	4933 	0.042872
41.41 	0.044864 	4926 	0.043913
41.43 	0.041388 	4929 	0.040774
41.45 	0.043346 	4914 	0.041915
41.47 	0.041007 	4926 	0.040531
41.49 	0.040474 	4892 	0.039876
41.51 	0.045951 	4940 	0.045477
41.53 	0.039644 	4944 	0.039289
41.55 	0.037893 	4935 	0.037517
41.57 	0.042097 	4941 	0.041860
41.59 	0.045408 	4933 	0.044933
41.61 	0.040380 	4953 	0.040380
41.63 	0.049615 	4938 	0.049003
41.65 	0.045242 	4929 	0.044292
41.67 	0.051417 	4940 	0.051061
41.69 	0.041641 	4947 	0.041049
41.71 	0.037698 	4934 	0.037579
41.73 	0.045786 	4936 	0.045193
41.75 	0.043214 	4929 	0.042738
41.77 	0.041490 	4941 	0.041490
41.79 	0.038633 	4944 	0.038040
41.81 	0.042342 	4936 	0.041867
41.83 	0.045049 	4928 	0.044573
41.85 	0.042114 	4939 	0.041877
41.87 	0.050456 	4935 	0.049724
41.89 	0.047233 	4933 	0.046758
41.91 	0.040113 	4936 	0.039520
41.93 	0.041971 	4932 	0.041614
41.95 	0.042385 	4931 	0.041553
41.97 	0.040293 	4914 	0.039816
41.99 	0.039755 	4905 	0.038919
42.01 	0.042493 	4942 	0.042019
42.03 	0.042519 	4939 	0.041807
42.05 	0.044225 	4952 	0.043397
42.07 	0.044561 	4937 	0.044087
42.09 	0.042643 	4948 	0.042052
42.11 	0.040445 	4945 	0.039853
42.13 	0.046714 	4945 	0.046358
42.15 	0.042527 	4938 	0.041934
42.17 	0.043310 	4918 	0.042834
42.19 	0.040750 	4908 	0.040034
42.21 	0.039584 	4901 	0.038628
42.23 	0.037204 	4892 	0.036465
42.25 	0.044385 	4889 	0.043666
42.27 	0.046368 	4874 	0.045147
42.29 	0.039893 	4863 	0.039271
42.31 	0.040165 	4855 	0.039441
42.33 	0.044477 	4834 	0.043608
42.35 	0.038652 	4838 	0.038289
42.37 	0.039337 	4830 	0.038852
42.39 	0.045587 	4804 	0.044855
42.41 	0.038510 	4804 	0.038144
42.43 	0.034432 	4792 	0.034046
42.45 	0.043551 	4776 	0.042079
42.47 	0.038825 	4765 	0.038579
42.49 	0.044911 	4765 	0.044788
42.51 	0.036053 	4743 	0.036053
42.53 	0.035533 	4728 	0.035409
42.55 	0.038445 	4708 	0.038072
42.57 	0.046089 	4730 	0.045470
42.59 	0.039543 	4729 	0.038924
42.61 	0.044180 	4708 	0.043682
42.63 	0.041622 	4709 	0.041125
42.65 	0.040555 	4685 	0.040305
42.67 	0.036507 	4684 	0.035632
42.69 	0.034874 	4674 	0.034372
42.71 	0.039674 	4663 	0.038795
42.73 	0.040517 	4640 	0.040139
42.75 	0.039203 	4617 	0.039076
42.77 	0.039130 	4600 	0.038239
42.79 	0.039939 	4582 	0.039683
42.81 	0.036826 	4562 	0.036312
42.83 	0.035494 	4536 	0.035106
42.85 	0.035336 	4528 	0.035336
42.87 	0.040453 	4499 	0.040323
42.89 	0.043080 	4480 	0.042296
42.91 	0.038600 	4456 	0.038468
42.93 	0.042060 	4446 	0.041533
42.95 	0.037364 	4416 	0.037099
42.97 	0.042718 	4401 	0.042318
42.99 	0.036032 	4385 	0.035898
43.01 	0.042173 	4363 	0.041233
43.03 	0.043157 	4333 	0.043022
43.05 	0.043006 	4325 	0.042735
43.07 	0.045391 	4296 	0.044573
43.09 	0.037124 	4283 	0.036713
43.11 	0.039013 	4255 	0.038187
43.13 	0.038235 	4237 	0.037958
43.15 	0.042558 	4206 	0.041862
43.17 	0.041637 	4179 	0.041076
43.19 	0.034096 	4194 	0.033957
43.21 	0.045062 	4172 	0.044782
43.23 	0.041887 	4154 	0.041464
43.25 	0.042080 	4135 	0.041230
43.27 	0.042875 	4105 	0.042304
43.29 	0.041463 	4100 	0.041178
43.31 	0.038245 	4079 	0.037670
43.33 	0.038015 	4051 	0.037871
43.35 	0.040179 	4032 	0.039307
43.37 	0.041345 	4015 	0.041199
43.39 	0.042229 	4002 	0.041643
43.41 	0.048590 	3972 	0.047263
43.43 	0.039646 	3960 	0.038907
43.45 	0.040661 	3935 	0.039916
43.47 	0.040296 	3921 	0.039848
43.49 	0.037721 	3897 	0.037421
43.51 	0.040753 	3877 	0.040300
43.53 	0.038053 	3863 	0.037902
43.55 	0.033738 	2964 	0.033343
43.57 	0.041108 	2238 	0.041108
43.59 	0.039519 	1746 	0.039183
43.61 	0.045892 	1351 	0.045458
43.63 	0.046953 	1001 	0.046368
43.65 	0.040757 	687 	0.040757
43.67 	0.035857 	502 	0.034690
43.69 	0.021798 	367 	0.021798
43.71 	0.037657 	239 	0.037657
43.73 	0.075000 	120 	0.075000
43.75 	0.000000 	16 	0.000000