File: Example_Data/25SC_s1_0007.004.dat
#F C:\frames\spec\25SC_s1_0007.004
#C title =s:7 frm:4 25SC_s1
#C wavelength =0.15406

#S 1  fr_average C:\frames\spec\25SC_s1_0007.004 C:\win32app\speccom\mask.axs chi 0 180 0 360 0.02
#C 2 theta =0.000000 to 180 deg
#C   q   =0.000000 to 81.568 nm^-1
#C  chi  =0.000000 to 360 deg
#C collumns:
#C  1 position (2theta or chi in degrees)
#C  2 average intensity (sum of all counts in the region divided with number of pixels)
#C  3 Number of pixels in region)
#C  4 error (sum of sqrt(intensity) for all pixels divided by number)
#N 4
#L TTh  Int  N_pix  Err
32.99 	0.049180 	61 	0.049180
33.01 	0.065292 	873 	0.065292
33.03 	0.051761 	1391 	0.050077
33.05 	0.060330 	1757 	0.058997
33.07 	0.059024 	2050 	0.057263
33.09 	0.060503 	2347 	0.059005
33.11 	0.058550 	2579 	0.057868
33.13 	0.061224 	2793 	0.059966
33.15 	0.061020 	2999 	0.059458
33.17 	0.061231 	3201 	0.060133
33.19 	0.059545 	3342 	0.058494
33.21 	0.057334 	3436 	0.056454
33.23 	0.051944 	3523 	0.051446
33.25 	0.065338 	3612 	0.063716
33.27 	0.061433 	3630 	0.059980
33.29 	0.054002 	3648 	0.053333
33.31 	0.060383 	3660 	0.059422
33.33 	0.061313 	3686 	0.060518
33.35 	0.060368 	3694 	0.059892
33.37 	0.051696 	3714 	0.050251
33.39 	0.065165 	3729 	0.063751
33.41 	0.063904 	3740 	0.062964
33.43 	0.063015 	3761 	0.062236
33.45 	0.059899 	3773 	0.059123
33.47 	0.058978 	3798 	0.057745
33.49 	0.057495 	3809 	0.056726
33.51 	0.058716 	3815 	0.056515
33.53 	0.056235 	3841 	0.055473
33.55 	0.059849 	3843 	0.059392
33.57 	0.068868 	3877 	0.067810
33.59 	0.060825 	3880 	0.059768
33.61 	0.060885 	3909 	0.059986
33.63 	0.060730 	3919 	0.059385
33.65 	0.064615 	3931 	0.063721
33.67 	0.057663 	3954 	0.056922
33.69 	0.057931 	3953 	0.057190
33.71 	0.060377 	3975 	0.058904
33.73 	0.060190 	4004 	0.059751
33.75 	0.057014 	3999 	0.056575
33.77 	0.058137 	4025 	0.057700
33.79 	0.059144 	4041 	0.058105
33.81 	0.062655 	4038 	0.062075
33.83 	0.065185 	4050 	0.063450
33.85 	0.051720 	4099 	0.050862
33.87 	0.061056 	4111 	0.059488
33.89 	0.063577 	4121 	0.061729
33.91 	0.057845 	4149 	0.056269
33.93 	0.060226 	4151 	0.058228
33.95 	0.063860 	4181 	0.063020
33.97 	0.054654 	4190 	0.054514
33.99 	0.052381 	4200 	0.050986
34.01 	0.058865 	4213 	0.057892
34.03 	0.061263 	4244 	0.060573
34.05 	0.065381 	4252 	0.063866
34.07 	0.062090 	4268 	0.060969
34.09 	0.057396 	4286 	0.056439
34.11 	0.066248 	4302 	0.065295
34.13 	0.058960 	4308 	0.058144
34.15 	0.051489 	4331 	0.051084
34.17 	0.056092 	4350 	0.054880
34.19 	0.061669 	4362 	0.060460
34.21 	0.061542 	4371 	0.060738
34.23 	0.055088 	4393 	0.054154
34.25 	0.057902 	4404 	0.057636
34.27 	0.065129 	4422 	0.064202
34.29 	0.061330 	4435 	0.060010
34.31 	0.059668 	4458 	0.058070
34.33 	0.062178 	4471 	0.060323
34.35 	0.061106 	4484 	0.059125
34.37 	0.055890 	4491 	0.054977
34.39 	0.065304 	4502 	0.064242
34.41 	0.054132 	4526 	0.053485
34.43 	0.056620 	4539 	0.055438
34.45 	0.055347 	4535 	0.054443
34.47 	0.059233 	4592 	0.058468
34.49 	0.058081 	4597 	0.056935
34.51 	0.061007 	4606 	0.060117
34.53 	0.062675 	4643 	0.061666
34.55 	0.059875 	4643 	0.058613
34.57 	0.060300 	4660 	0.059295
34.59 	0.062888 	4675 	0.061865
34.61 	0.061103 	4697 	0.060604
34.63 	0.060297 	4710 	0.059924
34.65 	0.065029 	4721 	0.063643
34.67 	0.058426 	4741 	0.057418
34.69 	0.057005 	4754 	0.056019
34.71 	0.065883 	4766 	0.064777
34.73 	0.061625 	4787 	0.060646
34.75 	0.061356 	4808 	0.060625
34.77 	0.055417 	4818 	0.054181
34.79 	0.057214 	4824 	0.056121
34.81 	0.059236 	4845 	0.058511
34.83 	0.066434 	4862 	0.064867
34.85 	0.054015 	4869 	0.052792
34.87 	0.066146 	4868 	0.064943
34.89 	0.053257 	4882 	0.052057
34.91 	0.062474 	4882 	0.061135
34.93 	0.061237 	4899 	0.059902
34.95 	0.062168 	4890 	0.060970
34.97 	0.057528 	4902 	0.056811
34.99 	0.058607 	4897 	0.057172
35.01 	0.059923 	4923 	0.058376
35.03 	0.061501 	4943 	0.060079
35.05 	0.060845 	4947 	0.060253
35.07 	0.062146 	4940 	0.061553
35.09 	0.065213 	4953 	0.063676
35.11 	0.052557 	4947 	0.052202
35.13 	0.060307 	4958 	0.059361
35.15 	0.056715 	4937 	0.056121
35.17 	0.062677 	4946 	0.061493
35.19 	0.053420 	4942 	0.051760
35.21 	0.062892 	4945 	0.061352
35.23 	0.066127 	4945 	0.065061
35.25 	0.063726 	4943 	0.062897
35.27 	0.062045 	4948 	0.060842
35.29 	0.066330 	4945 	0.064197
35.31 	0.062031 	4933 	0.060725
35.33 	0.057455 	4943 	0.056744
35.35 	0.062525 	4942 	0.061696
35.37 	0.057502 	4939 	0.056671
35.39 	0.062083 	4945 	0.061609
35.41 	0.061916 	4926 	0.061084
35.43 	0.063045 	4933 	0.061620
35.45 	0.059145 	4937 	0.057959
35.47 	0.059826 	4931 	0.058638
35.49 	0.063136 	4910 	0.062540
35.51 	0.061916 	4926 	0.060827
35.53 	0.063245 	4949 	0.062535
35.55 	0.064712 	4945 	0.063883
35.57 	0.063248 	4933 	0.062179
35.59 	0.057027 	4945 	0.056080
35.61 	0.062323 	4942 	0.061019
35.63 	0.066356 	4943 	0.065527
35.65 	0.064712 	4945 	0.063172
35.67 	0.056455 	4942 	0.055270
35.69 	0.058633 	4946 	0.057686
35.71 	0.062386 	4937 	0.061299
35.73 	0.065032 	4936 	0.064439
35.75 	0.064084 	4931 	0.062778
35.77 	0.055948 	4951 	0.054647
35.79 	0.058191 	4932 	0.057598
35.81 	0.064464 	4933 	0.063633
35.83 	0.063283 	4946 	0.062573
35.85 	0.053293 	4935 	0.051987
35.87 	0.060532 	4923 	0.059104
35.89 	0.060803 	4934 	0.059022
35.91 	0.059265 	4927 	0.057839
35.93 	0.062513 	4927 	0.061086
35.95 	0.064877 	4917 	0.063309
35.97 	0.067386 	4912 	0.066193
35.99 	0.069447 	4939 	0.067787
36.01 	0.061460 	4930 	0.060035
36.03 	0.061703 	4943 	0.060025
36.05 	0.061274 	4945 	0.060208
36.07 	0.060539 	4939 	0.060301
36.09 	0.058300 	4940 	0.057232
36.11 	0.058835 	4929 	0.058122
36.13 	0.063537 	4942 	0.062944
36.15 	0.057299 	4939 	0.056232
36.17 	0.060305 	4925 	0.059591
36.19 	0.061741 	4940 	0.061267
36.21 	0.066342 	4929 	0.064916
36.23 	0.066667 	4935 	0.064847
36.25 	0.060716 	4941 	0.060005
36.27 	0.055431 	4925 	0.054718
36.29 	0.056378 	4931 	0.055190
36.31 	0.061891 	4928 	0.060940
36.33 	0.057369 	4933 	0.056419
36.35 	0.059038 	4929 	0.057612
36.37 	0.064595 	4923 	0.063405
36.39 	0.065434 	4921 	0.063172
36.41 	0.061275 	4896 	0.059819
36.43 	0.061485 	4928 	0.060039
36.45 	0.064909 	4930 	0.064315
36.47 	0.063614 	4936 	0.062902
36.49 	0.061109 	4942 	0.059686
36.51 	0.055950 	4933 	0.055000
36.53 	0.059073 	4943 	0.058362
36.55 	0.054191 	4927 	0.053002
36.57 	0.063640 	4934 	0.062315
36.59 	0.060741 	4939 	0.059417
36.61 	0.063679 	4931 	0.062491
36.63 	0.063679 	4931 	0.062491
36.65 	0.065085 	4932 	0.063967
36.67 	0.058824 	4930 	0.057873
36.69 	0.061270 	4929 	0.060181
36.71 	0.058728 	4921 	0.057637
36.73 	0.055228 	4925 	0.054515
36.75 	0.061489 	4944 	0.060896
36.77 	0.052450 	4919 	0.051001
36.79 	0.057102 	4921 	0.056130
36.81 	0.054109 	4916 	0.053394
36.83 	0.055748 	4915 	0.054556
36.85 	0.056758 	4898 	0.055323
36.87 	0.054409 	4944 	0.053580
36.89 	0.062042 	4916 	0.061327
36.91 	0.056871 	4941 	0.055903
36.93 	0.058621 	4930 	0.058145
36.95 	0.061220 	4933 	0.060508
36.97 	0.056344 	4934 	0.055275
36.99 	0.063830 	4935 	0.062524
37.01 	0.059193 	4933 	0.058362
37.03 	0.059098 	4924 	0.058503
37.05 	0.058250 	4927 	0.057062
37.07 	0.054306 	4935 	0.053119
37.09 	0.062906 	4928 	0.061717
37.11 	0.058561 	4935 	0.057493
37.13 	0.055849 	4924 	0.054897
37.15 	0.060297 	4909 	0.059343
37.17 	0.060600 	4934 	0.059274
37.19 	0.062538 	4925 	0.061230
37.21 	0.057759 	4917 	0.056806
37.23 	0.060797 	4918 	0.060202
37.25 	0.060680 	4911 	0.059249
37.27 	0.061504 	4894 	0.060187
37.29 	0.054564 	4930 	0.053218
37.31 	0.059980 	4935 	0.058674
37.33 	0.053379 	4927 	0.052309
37.35 	0.057918 	4938 	0.056969
37.37 	0.063528 	4927 	0.062576
37.39 	0.063273 	4931 	0.062204
37.41 	0.057189 	4931 	0.056833
37.43 	0.056975 	4932 	0.056262
37.45 	0.059301 	4924 	0.058826
37.47 	0.056807 	4929 	0.056094
37.49 	0.056673 	4923 	0.056197
37.51 	0.059396 	4933 	0.058446
37.53 	0.058345 	4919 	0.057273
37.55 	0.055375 	4930 	0.053692
37.57 	0.062944 	4925 	0.061993
37.59 	0.057375 	4915 	0.056303
37.61 	0.054246 	4922 	0.053294
37.63 	0.062411 	4919 	0.061339
37.65 	0.058154 	4918 	0.057082
37.67 	0.054038 	4904 	0.053560
37.69 	0.058391 	4898 	0.057076
37.71 	0.059241 	4929 	0.058409
37.73 	0.059850 	4929 	0.058780
37.75 	0.053644 	4940 	0.052458
37.77 	0.053455 	4920 	0.052979
37.79 	0.056187 	4930 	0.054860
37.81 	0.056761 	4933 	0.056404
37.83 	0.051423 	4920 	0.050470
37.85 	0.054246 	4922 	0.053532
37.87 	0.058109 	4939 	0.057872
37.89 	0.058071 	4925 	0.057476
37.91 	0.051318 	4930 	0.050606
37.93 	0.057735 	4919 	0.056664
37.95 	0.056899 	4921 	0.056284
37.97 	0.059241 	4929 	0.057815
37.99 	0.052524 	4912 	0.052167
38.01 	0.058442 	4928 	0.056996
38.03 	0.052964 	4909 	0.052606
38.05 	0.056650 	4925 	0.055817
38.07 	0.055205 	4909 	0.054489
38.09 	0.056786 	4878 	0.055224
38.11 	0.057953 	4935 	0.057241
38.13 	0.059145 	4937 	0.056871
38.15 	0.057544 	4918 	0.056114
38.17 	0.057404 	4930 	0.056334
38.19 	0.059432 	4930 	0.058224
38.21 	0.066626 	4923 	0.065079
38.23 	0.064601 	4938 	0.063652
38.25 	0.063860 	4917 	0.061547
38.27 	0.062677 	4930 	0.062202
38.29 	0.065394 	4924 	0.064442
38.31 	0.068805 	4927 	0.067497
38.33 	0.067222 	4924 	0.066270
38.35 	0.062703 	4928 	0.061633
38.37 	0.072908 	4924 	0.071243
38.39 	0.070686 	4909 	0.069732
38.41 	0.066829 	4923 	0.065282
38.43 	0.071806 	4916 	0.070119
38.45 	0.071370 	4918 	0.069822
38.47 	0.077644 	4907 	0.076212
38.49 	0.069510 	4877 	0.068309
38.51 	0.060624 	4932 	0.059437
38.53 	0.063502 	4929 	0.062432
38.55 	0.068679 	4936 	0.066879
38.57 	0.067642 	4923 	0.066571
38.59 	0.067831 	4924 	0.065532
38.61 	0.063412 	4936 	0.062818
38.63 	0.068034 	4924 	0.066607
38.65 	0.066084 	4918 	0.065012
38.67 	0.062184 	4937 	0.061234
38.69 	0.060748 	4922 	0.059677
38.71 	0.067222 	4924 	0.065556
38.73 	0.062424 	4918 	0.061709
38.75 	0.059468 	4927 	0.057923
38.77 	0.061345 	4923 	0.060393
38.79 	0.052696 	4934 	0.051983
38.81 	0.054764 	4912 	0.053571
38.83 	0.056312 	4919 	0.055360
38.85 	0.056596 	4912 	0.056000
38.87 	0.061698 	4911 	0.060983
38.89 	0.059424 	4897 	0.058587
38.91 	0.055272 	4903 	0.054794
38.93 	0.055488 	4938 	0.054776
38.95 	0.058560 	4918 	0.057488
38.97 	0.058609 	4931 	0.056827
38.99 	0.055297 	4937 	0.054585
39.01 	0.056730 	4918 	0.055897
39.03 	0.056952 	4934 	0.056239
39.05 	0.057868 	4925 	0.056203
39.07 	0.052803 	4924 	0.051970
39.09 	0.054032 	4923 	0.052961
39.11 	0.057595 	4931 	0.055694
39.13 	0.053829 	4923 	0.052619
39.15 	0.061445 	4915 	0.060134
39.17 	0.059955 	4937 	0.059362
39.19 	0.052471 	4917 	0.051518
39.21 	0.050916 	4910 	0.050439
39.23 	0.049746 	4925 	0.049033
39.25 	0.048761 	4922 	0.048642
39.27 	0.053564 	4910 	0.052848
39.29 	0.049378 	4901 	0.048661
39.31 	0.056102 	4884 	0.055262
39.33 	0.056175 	4931 	0.054868
39.35 	0.051469 	4935 	0.050519
39.37 	0.053358 	4929 	0.052526
39.39 	0.058430 	4929 	0.057004
39.41 	0.058406 	4931 	0.057337
39.43 	0.055950 	4933 	0.055356
39.45 	0.055431 	4925 	0.054599
39.47 	0.055251 	4923 	0.054299
39.49 	0.052301 	4933 	0.051707
39.51 	0.059911 	4924 	0.058959
39.53 	0.053423 	4923 	0.053066
39.55 	0.051637 	4919 	0.050803
39.57 	0.056761 	4933 	0.055791
39.59 	0.050489 	4912 	0.049654
39.61 	0.057892 	4923 	0.057059
39.63 	0.054246 	4922 	0.053651
39.65 	0.056232 	4926 	0.054924
39.67 	0.056992 	4913 	0.056038
39.69 	0.056550 	4916 	0.055597
39.71 	0.057814 	4895 	0.056598
39.73 	0.051345 	4908 	0.050748
39.75 	0.057630 	4928 	0.056798
39.77 	0.061196 	4935 	0.060009
39.79 	0.052984 	4926 	0.052033
39.81 	0.061498 	4927 	0.061003
39.83 	0.056952 	4934 	0.056002
39.85 	0.057845 	4927 	0.057012
39.87 	0.060102 	4925 	0.059507
39.89 	0.062627 	4934 	0.061519
39.91 	0.060341 	4922 	0.059270
39.93 	0.053879 	4937 	0.053048
39.95 	0.055341 	4915 	0.054745
39.97 	0.053166 	4928 	0.051977
39.99 	0.060016 	4932 	0.059185
40.01 	0.058764 	4918 	0.058526
40.03 	0.056209 	4928 	0.055496
40.05 	0.057352 	4917 	0.056876
40.07 	0.060938 	4923 	0.059729
40.09 	0.051261 	4916 	0.050070
40.11 	0.056347 	4916 	0.055870
40.13 	0.057394 	4896 	0.056796
40.15 	0.050071 	4913 	0.049475
40.17 	0.053774 	4928 	0.053061
40.19 	0.052952 	4929 	0.052239
40.21 	0.055117 	4935 	0.054029
40.23 	0.056975 	4932 	0.056025
40.25 	0.055894 	4920 	0.055061
40.27 	0.056309 	4937 	0.055479
40.29 	0.045667 	4927 	0.045072
40.31 	0.050820 	4939 	0.050464
40.33 	0.052717 	4932 	0.051767
40.35 	0.056516 	4919 	0.054948
40.37 	0.057821 	4929 	0.057346
40.39 	0.051105 	4931 	0.050392
40.41 	0.052792 	4925 	0.052078
40.43 	0.050386 	4922 	0.049434
40.45 	0.049260 	4933 	0.048785
40.47 	0.057950 	4918 	0.056878
40.49 	0.053390 	4926 	0.052320
40.51 	0.054449 	4922 	0.053378
40.53 	0.053092 	4916 	0.052854
40.55 	0.052771 	4908 	0.051816
40.57 	0.053579 	4890 	0.052620
40.59 	0.051651 	4937 	0.050445
40.61 	0.056738 	4935 	0.056144
40.63 	0.054970 	4930 	0.054613
40.65 	0.053879 	4937 	0.052574
40.67 	0.050081 	4932 	0.049250
40.69 	0.051246 	4937 	0.050771
40.71 	0.050081 	4932 	0.049250
40.73 	0.055826 	4926 	0.054855
40.75 	0.053742 	4931 	0.052791
40.77 	0.057704 	4939 	0.056755
40.79 	0.052193 	4924 	0.051599
40.81 	0.055454 	4941 	0.054624
40.83 	0.054789 	4928 	0.053838
40.85 	0.056052 	4924 	0.054624
40.87 	0.054789 	4928 	0.053700
40.89 	0.056175 	4931 	0.054730
40.91 	0.054235 	4923 	0.053759
40.93 	0.051682 	4934 	0.050376
40.95 	0.053735 	4913 	0.053139
40.97 	0.055443 	4924 	0.054610
40.99 	0.051381 	4924 	0.050548
41.01 	0.051099 	4912 	0.050622
41.03 	0.049337 	4905 	0.048979
41.05 	0.052472 	4936 	0.051285
41.07 	0.053753 	4930 	0.052307
41.09 	0.049200 	4939 	0.049082
41.11 	0.056332 	4935 	0.054671
41.13 	0.056321 	4936 	0.055609
41.15 	0.053228 	4941 	0.052004
41.17 	0.052290 	4934 	0.051697
41.19 	0.052535 	4930 	0.052179
41.21 	0.054892 	4937 	0.053942
41.23 	0.049403 	4939 	0.049166
41.25 	0.053112 	4933 	0.052637
41.27 	0.049888 	4931 	0.048938
41.29 	0.055195 	4928 	0.054819
41.31 	0.057977 	4933 	0.057146
41.33 	0.052461 	4937 	0.051749
41.35 	0.051033 	4938 	0.049708
41.37 	0.049756 	4924 	0.048924
41.39 	0.053517 	4933 	0.052686
41.41 	0.052984 	4926 	0.052271
41.43 	0.049909 	4929 	0.048839
41.45 	0.056166 	4914 	0.055332
41.47 	0.050142 	4926 	0.049548
41.49 	0.048446 	4892 	0.047848
41.51 	0.053036 	4940 	0.052681
41.53 	0.050566 	4944 	0.049382
41.55 	0.055117 	4935 	0.054048
41.57 	0.051811 	4941 	0.051337
41.59 	0.044192 	4933 	0.043598
41.61 	0.053099 	4953 	0.052153
41.63 	0.049413 	4938 	0.048938
41.65 	0.050314 	4929 	0.049839
41.67 	0.052632 	4940 	0.051920
41.69 	0.054781 	4947 	0.053360
41.71 	0.050872 	4934 	0.050397
41.73 	0.046799 	4936 	0.046324
41.75 	0.045040 	4929 	0.044445
41.77 	0.054038 	4941 	0.052615
41.79 	0.050769 	4944 	0.050394
41.81 	0.046191 	4936 	0.045479
41.83 	0.048904 	4928 	0.048429
41.85 	0.048188 	4939 	0.047120
41.87 	0.048430 	4935 	0.047599
41.89 	0.051895 	4933 	0.050945
41.91 	0.048825 	4936 	0.048232
41.93 	0.046634 	4932 	0.046397
41.95 	0.049483 	4931 	0.049008
41.97 	0.055556 	4914 	0.054483
41.99 	0.048522 	4905 	0.048044
42.01 	0.050587 	4942 	0.050350
42.03 	0.047783 	4939 	0.046953
42.05 	0.047052 	4952 	0.046579
42.07 	0.052461 	4937 	0.051512
42.09 	0.047898 	4948 	0.047069
42.11 	0.050152 	4945 	0.049915
42.13 	0.045298 	4945 	0.044588
42.15 	0.051438 	4938 	0.050726
42.17 	0.047377 	4918 	0.046424
42.19 	0.042176 	4908 	0.041699
42.21 	0.049174 	4901 	0.048815
42.23 	0.047220 	4892 	0.046980
42.25 	0.045817 	4889 	0.045578
42.27 	0.049856 	4874 	0.049135
42.29 	0.049764 	4863 	0.049282
42.31 	0.047992 	4855 	0.047630
42.33 	0.049441 	4834 	0.048714
42.35 	0.046300 	4838 	0.045816
42.37 	0.047205 	4830 	0.046720
42.39 	0.052040 	4804 	0.051430
42.41 	0.047669 	4804 	0.046937
42.43 	0.047997 	4792 	0.047385
42.45 	0.053183 	4776 	0.052815
42.47 	0.045331 	4765 	0.044962
42.49 	0.046800 	4765 	0.046042
42.51 	0.046384 	4743 	0.046137
42.53 	0.041667 	4728 	0.041295
42.55 	0.044180 	4708 	0.043434
42.57 	0.041015 	4730 	0.040396
42.59 	0.048002 	4729 	0.047630
42.61 	0.043118 	4708 	0.042620
42.63 	0.050117 	4709 	0.049619
42.65 	0.046531 	4685 	0.045656
42.67 	0.048036 	4684 	0.047411
42.69 	0.045999 	4674 	0.045748
42.71 	0.048681 	4663 	0.047550
42.73 	0.050647 	4640 	0.050247
42.75 	0.049599 	4617 	0.048457
42.77 	0.047391 	4600 	0.046373
42.79 	0.047141 	4582 	0.046118
42.81 	0.045375 	4562 	0.044476
42.83 	0.047399 	4536 	0.046086
42.85 	0.041740 	4528 	0.040964
42.87 	0.047344 	4499 	0.046042
42.89 	0.047768 	4480 	0.046853
42.91 	0.043761 	4456 	0.043235
42.93 	0.048583 	4446 	0.047924
42.95 	0.043252 	4416 	0.042456
42.97 	0.052034 	4401 	0.051235
42.99 	0.043786 	4385 	0.042583
43.01 	0.048132 	4363 	0.047863
43.03 	0.044311 	4333 	0.043365
43.05 	0.049942 	4325 	0.049400
43.07 	0.047020 	4296 	0.046475
43.09 	0.043428 	4283 	0.043154
43.11 	0.049824 	4255 	0.049411
43.13 	0.052160 	4237 	0.051054
43.15 	0.043272 	4206 	0.043272
43.17 	0.051208 	4179 	0.050087
43.19 	0.043157 	4194 	0.042459
43.21 	0.046980 	4172 	0.046418
43.23 	0.050794 	4154 	0.050653
43.25 	0.045707 	4135 	0.045141
43.27 	0.045554 	4105 	0.045412
43.29 	0.042683 	4100 	0.042540
43.31 	0.047070 	4079 	0.046209
43.33 	0.046161 	4051 	0.044860
43.35 	0.049355 	4032 	0.049065
43.37 	0.046575 	4015 	0.045992
43.39 	0.051974 	4002 	0.051096
43.41 	0.042800 	3972 	0.042505
43.43 	0.046970 	3960 	0.046526
43.45 	0.045235 	3935 	0.044937
43.47 	0.052793 	3921 	0.052195
43.49 	0.045163 	3897 	0.044862
43.51 	0.051070 	3877 	0.050617
43.53 	0.046855 	3863 	0.046097
43.55 	0.047233 	2964 	0.047036
43.57 	0.050045 	2238 	0.049259
43.59 	0.044101 	1746 	0.042759
43.61 	0.040711 	1351 	0.039843
43.63 	0.048951 	1001 	0.048366
43.65 	0.033479 	687 	0.032626
43.67 	0.049801 	502 	0.049801
43.69 	0.029973 	367 	0.029973
43.71 	0.058577 	239 	0.058577
43.73 	0.050000 	120 	0.045118
43.75 	0.062500 	16 	0.062500