File: Example_Data/25SC_s1_0044.001.dat
#F C:\frames\spec\25SC_s1_0044.001
#C title =s:44 frm:1 25SC_s1
#C wavelength =0.15406

#S 1  fr_average C:\frames\spec\25SC_s1_0044.001 C:\win32app\speccom\mask.axs chi 0 180 0 360 0.02
#C 2 theta =0.000000 to 180 deg
#C   q   =0.000000 to 81.568 nm^-1
#C  chi  =0.000000 to 360 deg
#C collumns:
#C  1 position (2theta or chi in degrees)
#C  2 average intensity (sum of all counts in the region divided with number of pixels)
#C  3 Number of pixels in region)
#C  4 error (sum of sqrt(intensity) for all pixels divided by number)
#N 4
#L TTh  Int  N_pix  Err
32.99 	0.065574 	61 	0.065574
33.01 	0.064147 	873 	0.063476
33.03 	0.061826 	1391 	0.060142
33.05 	0.067160 	1757 	0.065493
33.07 	0.065854 	2050 	0.065282
33.09 	0.065616 	2347 	0.064617
33.11 	0.061264 	2579 	0.059901
33.13 	0.052990 	2793 	0.052360
33.15 	0.065022 	2999 	0.063654
33.17 	0.054983 	3201 	0.053885
33.19 	0.055955 	3342 	0.055078
33.21 	0.063155 	3436 	0.061620
33.23 	0.059608 	3523 	0.059109
33.25 	0.058693 	3612 	0.057882
33.27 	0.053994 	3630 	0.052516
33.29 	0.060855 	3648 	0.060052
33.31 	0.058470 	3660 	0.057990
33.33 	0.062941 	3686 	0.061193
33.35 	0.059285 	3694 	0.057991
33.37 	0.058697 	3714 	0.057725
33.39 	0.066506 	3729 	0.065406
33.41 	0.057219 	3740 	0.056123
33.43 	0.056634 	3761 	0.055544
33.45 	0.058839 	3773 	0.057131
33.47 	0.056609 	3798 	0.055838
33.49 	0.057758 	3809 	0.056681
33.51 	0.058978 	3815 	0.057749
33.53 	0.051809 	3841 	0.051022
33.55 	0.060370 	3843 	0.059607
33.57 	0.054681 	3877 	0.053926
33.59 	0.058763 	3880 	0.057857
33.61 	0.065234 	3909 	0.064160
33.63 	0.057923 	3919 	0.057026
33.65 	0.057492 	3931 	0.056598
33.67 	0.054628 	3954 	0.054036
33.69 	0.059701 	3953 	0.058664
33.71 	0.060629 	3975 	0.059450
33.73 	0.061439 	4004 	0.060707
33.75 	0.056514 	3999 	0.056075
33.77 	0.055901 	4025 	0.054736
33.79 	0.057412 	4041 	0.056977
33.81 	0.054235 	4038 	0.053654
33.83 	0.056049 	4050 	0.055013
33.85 	0.058063 	4099 	0.057039
33.87 	0.061542 	4111 	0.059975
33.89 	0.058966 	4121 	0.057829
33.91 	0.058568 	4149 	0.058004
33.93 	0.060708 	4151 	0.059533
33.95 	0.060273 	4181 	0.059572
33.97 	0.061814 	4190 	0.061255
33.99 	0.053571 	4200 	0.053292
34.01 	0.060290 	4213 	0.059455
34.03 	0.060085 	4244 	0.059119
34.05 	0.052446 	4252 	0.051482
34.07 	0.059747 	4268 	0.058100
34.09 	0.059496 	4286 	0.058813
34.11 	0.059740 	4302 	0.059467
34.13 	0.048282 	4308 	0.047058
34.15 	0.061187 	4331 	0.060375
34.17 	0.058161 	4350 	0.056680
34.19 	0.048372 	4362 	0.048238
34.21 	0.054221 	4371 	0.053149
34.23 	0.062600 	4393 	0.060999
34.25 	0.054950 	4404 	0.053731
34.27 	0.058571 	4422 	0.056849
34.29 	0.057272 	4435 	0.056743
34.31 	0.059444 	4458 	0.058392
34.33 	0.061060 	4471 	0.059750
34.35 	0.065343 	4484 	0.064560
34.37 	0.054331 	4491 	0.053027
34.39 	0.061972 	4502 	0.061322
34.41 	0.055015 	4526 	0.054239
34.43 	0.053536 	4539 	0.052762
34.45 	0.063286 	4535 	0.062123
34.47 	0.052918 	4592 	0.052025
34.49 	0.057211 	4597 	0.056192
34.51 	0.057099 	4606 	0.056209
34.53 	0.057937 	4643 	0.057432
34.55 	0.061813 	4643 	0.060405
34.57 	0.054936 	4660 	0.054181
34.59 	0.055615 	4675 	0.055364
34.61 	0.054290 	4697 	0.053791
34.63 	0.057537 	4710 	0.057040
34.65 	0.054226 	4721 	0.053109
34.67 	0.058848 	4741 	0.057736
34.69 	0.054060 	4754 	0.053320
34.71 	0.060428 	4766 	0.058544
34.73 	0.051598 	4787 	0.050374
34.75 	0.053037 	4808 	0.052184
34.77 	0.061436 	4818 	0.060079
34.79 	0.057629 	4824 	0.057264
34.81 	0.059856 	4845 	0.059009
34.83 	0.055944 	4862 	0.054619
34.85 	0.056274 	4869 	0.054951
34.87 	0.049096 	4868 	0.048615
34.89 	0.063703 	4882 	0.062264
34.91 	0.058173 	4882 	0.056833
34.93 	0.053480 	4899 	0.052882
34.95 	0.057055 	4890 	0.055957
34.97 	0.048552 	4902 	0.047337
34.99 	0.058607 	4897 	0.057890
35.01 	0.058704 	4923 	0.058109
35.03 	0.058467 	4943 	0.056689
35.05 	0.055994 	4947 	0.055264
35.07 	0.055263 	4940 	0.054077
35.09 	0.054311 	4953 	0.053956
35.11 	0.059834 	4947 	0.058413
35.13 	0.056878 	4958 	0.056051
35.15 	0.063399 	4937 	0.062924
35.17 	0.059442 	4946 	0.058258
35.19 	0.049777 	4942 	0.048948
35.21 	0.053185 	4945 	0.052000
35.23 	0.058443 	4945 	0.057851
35.25 	0.061906 	4943 	0.060701
35.27 	0.058205 	4948 	0.057732
35.29 	0.055005 	4945 	0.053939
35.31 	0.055544 	4933 	0.054476
35.33 	0.063120 	4943 	0.061204
35.35 	0.056455 	4942 	0.055388
35.37 	0.061753 	4939 	0.060805
35.39 	0.064712 	4945 	0.063527
35.41 	0.057450 	4926 	0.056123
35.43 	0.058585 	4933 	0.058229
35.45 	0.057525 	4937 	0.056694
35.47 	0.059623 	4931 	0.058791
35.49 	0.051527 	4910 	0.050673
35.51 	0.058262 	4926 	0.057787
35.53 	0.060012 	4949 	0.059184
35.55 	0.052174 	4945 	0.051108
35.57 	0.057977 	4933 	0.057502
35.59 	0.056016 	4945 	0.055542
35.61 	0.058883 	4942 	0.058152
35.63 	0.059478 	4943 	0.058530
35.65 	0.056421 	4945 	0.055591
35.67 	0.057062 	4942 	0.055995
35.69 	0.058431 	4946 	0.057227
35.71 	0.055702 	4937 	0.055346
35.73 	0.054295 	4936 	0.053464
35.75 	0.055567 	4931 	0.054735
35.77 	0.051909 	4951 	0.051435
35.79 	0.050689 	4932 	0.049739
35.81 	0.057571 	4933 	0.056602
35.83 	0.053579 	4946 	0.052750
35.85 	0.055522 	4935 	0.054434
35.87 	0.062970 	4923 	0.062236
35.89 	0.053506 	4934 	0.052675
35.91 	0.056221 	4927 	0.055032
35.93 	0.052365 	4927 	0.051651
35.95 	0.057962 	4917 	0.057486
35.97 	0.059243 	4912 	0.058646
35.99 	0.056692 	4939 	0.055743
36.01 	0.057606 	4930 	0.056656
36.03 	0.055634 	4943 	0.054686
36.05 	0.050758 	4945 	0.050166
36.07 	0.056692 	4939 	0.055624
36.09 	0.054251 	4940 	0.053184
36.11 	0.058227 	4929 	0.057751
36.13 	0.060907 	4942 	0.060314
36.15 	0.057097 	4939 	0.056148
36.17 	0.058071 	4925 	0.057001
36.19 	0.056073 	4940 	0.055006
36.21 	0.056604 	4929 	0.056010
36.23 	0.054509 	4935 	0.053559
36.25 	0.054847 	4941 	0.054254
36.27 	0.059898 	4925 	0.058590
36.29 	0.064490 	4931 	0.063282
36.31 	0.050731 	4928 	0.049780
36.33 	0.061423 	4933 	0.060829
36.35 	0.055184 	4929 	0.054233
36.37 	0.058298 	4923 	0.057346
36.39 	0.057915 	4921 	0.056467
36.41 	0.058007 	4896 	0.056930
36.43 	0.062500 	4928 	0.061311
36.45 	0.060446 	4930 	0.059139
36.47 	0.055105 	4936 	0.053800
36.49 	0.062930 	4942 	0.061389
36.51 	0.060004 	4933 	0.058223
36.53 	0.053611 	4943 	0.053019
36.55 	0.062716 	4927 	0.062002
36.57 	0.056952 	4934 	0.055646
36.59 	0.057906 	4939 	0.056582
36.61 	0.060028 	4931 	0.058940
36.63 	0.052728 	4931 	0.051777
36.65 	0.058597 	4932 	0.057172
36.67 	0.055578 	4930 	0.055222
36.69 	0.054169 	4929 	0.053575
36.71 	0.060354 	4921 	0.059877
36.73 	0.054822 	4925 	0.054089
36.75 	0.052184 	4944 	0.051336
36.77 	0.057735 	4919 	0.056287
36.79 	0.052225 	4921 	0.051273
36.81 	0.056753 	4916 	0.055304
36.83 	0.056968 	4915 	0.056115
36.85 	0.052266 	4898 	0.051788
36.87 	0.052994 	4944 	0.052283
36.89 	0.053499 	4916 	0.052784
36.91 	0.052419 	4941 	0.051213
36.93 	0.059026 	4930 	0.058551
36.95 	0.056963 	4933 	0.056013
36.97 	0.058573 	4934 	0.057861
36.99 	0.052888 	4935 	0.051938
37.01 	0.055544 	4933 	0.055069
37.03 	0.048335 	4924 	0.047740
37.05 	0.055409 	4927 	0.054101
37.07 	0.057548 	4935 	0.056361
37.09 	0.057833 	4928 	0.056288
37.11 	0.059980 	4935 	0.058892
37.13 	0.055240 	4924 	0.054288
37.15 	0.057242 	4909 	0.056406
37.17 	0.055938 	4934 	0.054632
37.19 	0.056041 	4925 	0.055684
37.21 	0.064267 	4917 	0.063075
37.23 	0.062424 	4918 	0.061352
37.25 	0.057015 	4911 	0.056299
37.27 	0.058235 	4894 	0.057516
37.29 	0.054767 	4930 	0.053460
37.31 	0.051064 	4935 	0.050708
37.33 	0.053582 	4927 	0.052612
37.35 	0.060753 	4938 	0.060160
37.37 	0.055206 	4927 	0.054849
37.39 	0.053133 	4931 	0.052183
37.41 	0.057798 	4931 	0.056610
37.43 	0.049878 	4932 	0.048809
37.45 	0.060317 	4924 	0.059246
37.47 	0.059241 	4929 	0.057201
37.49 	0.057688 	4923 	0.056499
37.51 	0.060409 	4933 	0.059222
37.53 	0.050417 	4919 	0.049940
37.55 	0.054361 	4930 	0.053886
37.57 	0.054822 	4925 	0.054228
37.59 	0.055341 	4915 	0.054030
37.61 	0.050792 	4922 	0.049840
37.63 	0.056312 	4919 	0.054506
37.65 	0.053477 	4918 	0.053358
37.67 	0.061582 	4904 	0.060507
37.69 	0.049204 	4898 	0.047988
37.71 	0.057010 	4929 	0.056296
37.73 	0.057821 	4929 	0.056870
37.75 	0.052632 	4940 	0.051920
37.77 	0.054065 	4920 	0.053232
37.79 	0.055781 	4930 	0.055424
37.81 	0.055139 	4933 	0.053932
37.83 	0.056911 	4920 	0.056077
37.85 	0.056887 	4922 	0.056054
37.87 	0.057704 	4939 	0.056755
37.89 	0.056650 	4925 	0.055936
37.91 	0.057809 	4930 	0.056859
37.93 	0.055296 	4919 	0.054343
37.95 	0.050193 	4921 	0.049479
37.97 	0.053358 	4929 	0.052407
37.99 	0.054764 	4912 	0.053810
38.01 	0.057427 	4928 	0.055644
38.03 	0.057038 	4909 	0.056441
38.05 	0.057665 	4925 	0.056476
38.07 	0.061112 	4909 	0.059800
38.09 	0.053096 	4878 	0.051654
38.11 	0.060993 	4935 	0.059668
38.13 	0.063804 	4937 	0.062380
38.15 	0.055510 	4918 	0.054181
38.17 	0.060041 	4930 	0.059328
38.19 	0.056389 	4930 	0.055558
38.21 	0.064595 	4923 	0.063405
38.23 	0.061766 	4938 	0.060916
38.25 	0.063453 	4917 	0.061785
38.27 	0.070183 	4930 	0.068124
38.29 	0.067019 	4924 	0.065948
38.31 	0.065760 	4927 	0.064690
38.33 	0.070268 	4924 	0.068959
38.35 	0.071834 	4928 	0.070626
38.37 	0.069862 	4924 	0.068196
38.39 	0.070890 	4909 	0.068961
38.41 	0.073939 	4923 	0.072154
38.43 	0.076688 	4916 	0.075378
38.45 	0.072794 	4918 	0.070531
38.47 	0.074791 	4907 	0.073000
38.49 	0.075046 	4877 	0.073244
38.51 	0.071776 	4932 	0.069995
38.53 	0.073240 	4929 	0.072289
38.55 	0.080227 	4936 	0.078328
38.57 	0.071095 	4923 	0.070024
38.59 	0.064785 	4924 	0.063119
38.61 	0.069489 	4936 	0.068777
38.63 	0.069456 	4924 	0.067533
38.65 	0.058764 	4918 	0.057573
38.67 	0.058335 	4937 	0.057504
38.69 	0.058919 	4922 	0.057848
38.71 	0.069659 	4924 	0.068469
38.73 	0.065067 	4918 	0.064233
38.75 	0.057236 	4927 	0.056760
38.77 	0.056470 	4923 	0.055399
38.79 	0.054722 	4934 	0.054129
38.81 	0.052524 	4912 	0.051551
38.83 	0.055092 	4919 	0.054259
38.85 	0.054357 	4912 	0.053144
38.87 	0.053757 	4911 	0.052803
38.89 	0.051052 	4897 	0.049836
38.91 	0.049358 	4903 	0.048760
38.93 	0.050425 	4938 	0.049714
38.95 	0.046564 	4918 	0.045968
38.97 	0.050091 	4931 	0.049497
38.99 	0.045169 	4937 	0.044695
39.01 	0.046157 	4918 	0.045800
39.03 	0.048237 	4934 	0.047287
39.05 	0.044873 	4925 	0.044278
39.07 	0.043664 	4924 	0.043188
39.09 	0.049563 	4923 	0.048849
39.11 	0.044007 	4931 	0.043176
39.13 	0.046719 	4923 	0.046363
39.15 	0.053103 	4915 	0.052626
39.17 	0.050638 	4937 	0.050163
39.19 	0.048403 	4917 	0.047808
39.21 	0.043585 	4910 	0.042988
39.23 	0.047107 	4925 	0.046631
39.25 	0.047135 	4922 	0.046659
39.27 	0.042974 	4910 	0.042616
39.29 	0.049378 	4901 	0.048780
39.31 	0.041974 	4884 	0.041614
39.33 	0.044818 	4931 	0.044581
39.35 	0.042553 	4935 	0.041604
39.37 	0.043214 	4929 	0.042619
39.39 	0.047474 	4929 	0.047118
39.41 	0.045224 	4931 	0.044036
39.43 	0.046219 	4933 	0.045863
39.45 	0.047310 	4925 	0.046715
39.47 	0.043876 	4923 	0.043519
39.49 	0.045814 	4933 	0.045101
39.51 	0.046101 	4924 	0.045863
39.53 	0.043266 	4923 	0.042671
39.55 	0.050417 	4919 	0.049583
39.57 	0.049057 	4933 	0.047989
39.59 	0.045603 	4912 	0.045126
39.61 	0.047938 	4923 	0.046986
39.63 	0.045510 	4922 	0.044915
39.65 	0.044458 	4926 	0.043626
39.67 	0.047832 	4913 	0.047117
39.69 	0.043938 	4916 	0.043084
39.71 	0.049438 	4895 	0.048960
39.73 	0.051141 	4908 	0.050544
39.75 	0.047687 	4928 	0.046973
39.77 	0.041945 	4935 	0.041589
39.79 	0.051157 	4926 	0.050563
39.81 	0.042216 	4927 	0.041265
39.83 	0.049250 	4934 	0.048538
39.85 	0.049117 	4927 	0.048879
39.87 	0.041421 	4925 	0.041302
39.89 	0.042156 	4934 	0.041919
39.91 	0.045104 	4922 	0.044866
39.93 	0.039093 	4937 	0.038737
39.95 	0.042726 	4915 	0.042369
39.97 	0.049310 	4928 	0.048953
39.99 	0.047040 	4932 	0.046308
40.01 	0.043514 	4918 	0.043037
40.03 	0.041802 	4928 	0.041445
40.05 	0.046573 	4917 	0.045839
40.07 	0.043673 	4923 	0.043435
40.09 	0.043735 	4916 	0.043139
40.11 	0.047803 	4916 	0.047446
40.13 	0.043505 	4896 	0.042548
40.15 	0.036637 	4913 	0.036041
40.17 	0.039367 	4928 	0.039129
40.19 	0.048691 	4929 	0.047246
40.21 	0.043566 	4935 	0.043210
40.23 	0.040349 	4932 	0.039992
40.25 	0.044715 	4920 	0.043644
40.27 	0.043751 	4937 	0.043039
40.29 	0.044449 	4927 	0.044211
40.31 	0.044138 	4939 	0.043664
40.33 	0.042579 	4932 	0.042342
40.35 	0.040862 	4919 	0.040743
40.37 	0.045445 	4929 	0.044613
40.39 	0.040965 	4931 	0.040728
40.41 	0.043655 	4925 	0.043655
40.43 	0.041243 	4922 	0.040886
40.45 	0.045814 	4933 	0.045101
40.47 	0.044734 	4918 	0.043900
40.49 	0.043037 	4926 	0.042442
40.51 	0.049777 	4922 	0.049300
40.53 	0.039260 	4916 	0.039021
40.55 	0.039324 	4908 	0.039204
40.57 	0.045399 	4890 	0.045039
40.59 	0.038282 	4937 	0.037808
40.61 	0.041945 	4935 	0.041233
40.63 	0.041785 	4930 	0.041310
40.65 	0.041321 	4937 	0.041083
40.67 	0.037105 	4932 	0.036392
40.69 	0.044359 	4937 	0.043884
40.71 	0.037105 	4932 	0.036748
40.73 	0.044052 	4926 	0.043576
40.75 	0.039140 	4931 	0.038546
40.77 	0.037457 	4939 	0.036864
40.79 	0.042851 	4924 	0.042494
40.81 	0.044121 	4941 	0.043409
40.83 	0.040787 	4928 	0.039955
40.85 	0.036556 	4924 	0.036199
40.87 	0.040381 	4928 	0.040025
40.89 	0.040763 	4931 	0.039793
40.91 	0.038797 	4923 	0.038084
40.93 	0.039927 	4934 	0.039215
40.95 	0.045797 	4913 	0.045320
40.97 	0.041836 	4924 	0.040884
40.99 	0.044273 	4924 	0.043678
41.01 	0.039088 	4912 	0.038611
41.03 	0.041998 	4905 	0.041640
41.05 	0.047812 	4936 	0.047693
41.07 	0.039554 	4930 	0.039316
41.09 	0.043126 	4939 	0.042415
41.11 	0.038906 	4935 	0.038906
41.13 	0.038088 	4936 	0.037356
41.15 	0.036430 	4941 	0.036430
41.17 	0.038914 	4934 	0.038676
41.19 	0.039959 	4930 	0.039603
41.21 	0.040308 	4937 	0.040189
41.23 	0.040494 	4939 	0.039427
41.25 	0.038922 	4933 	0.038447
41.27 	0.040560 	4931 	0.040085
41.29 	0.042005 	4928 	0.041648
41.31 	0.036286 	4933 	0.036286
41.33 	0.038282 	4937 	0.038164
41.35 	0.039490 	4938 	0.039134
41.37 	0.035337 	4924 	0.034980
41.39 	0.041354 	4933 	0.040642
41.41 	0.038774 	4926 	0.038536
41.43 	0.036519 	4929 	0.036162
41.45 	0.039683 	4914 	0.039206
41.47 	0.042225 	4926 	0.041987
41.49 	0.040270 	4892 	0.039432
41.51 	0.035020 	4940 	0.034902
41.53 	0.045105 	4944 	0.044513
41.55 	0.040324 	4935 	0.039612
41.57 	0.041692 	4941 	0.041218
41.59 	0.036084 	4933 	0.035609
41.61 	0.044418 	4953 	0.044181
41.63 	0.042122 	4938 	0.041292
41.65 	0.038142 	4929 	0.037666
41.67 	0.043927 	4940 	0.043690
41.69 	0.037194 	4947 	0.036721
41.71 	0.038306 	4934 	0.038049
41.73 	0.037075 	4936 	0.036719
41.75 	0.038953 	4929 	0.038834
41.77 	0.037239 	4941 	0.036647
41.79 	0.041464 	4944 	0.040990
41.81 	0.038695 	4936 	0.038221
41.83 	0.041193 	4928 	0.040718
41.85 	0.040089 	4939 	0.039496
41.87 	0.038095 	4935 	0.037383
41.89 	0.039124 	4933 	0.038649
41.91 	0.039100 	4936 	0.038626
41.93 	0.042579 	4932 	0.042223
41.95 	0.038329 	4931 	0.037854
41.97 	0.037241 	4914 	0.036764
41.99 	0.042406 	4905 	0.041450
42.01 	0.043100 	4942 	0.042744
42.03 	0.037052 	4939 	0.036578
42.05 	0.039378 	4952 	0.038787
42.07 	0.034636 	4937 	0.034162
42.09 	0.036783 	4948 	0.036309
42.11 	0.035389 	4945 	0.035152
42.13 	0.042063 	4945 	0.041826
42.15 	0.040097 	4938 	0.039504
42.17 	0.041887 	4918 	0.041291
42.19 	0.043399 	4908 	0.043160
42.21 	0.035299 	4901 	0.034462
42.23 	0.040883 	4892 	0.040045
42.25 	0.039681 	4889 	0.039321
42.27 	0.043906 	4874 	0.043185
42.29 	0.033930 	4863 	0.033689
42.31 	0.036251 	4855 	0.036010
42.33 	0.033719 	4834 	0.033356
42.35 	0.038859 	4838 	0.038011
42.37 	0.037060 	4830 	0.036817
42.39 	0.037677 	4804 	0.037189
42.41 	0.037469 	4804 	0.037103
42.43 	0.040484 	4792 	0.039731
42.45 	0.033501 	4776 	0.033010
42.47 	0.040504 	4765 	0.040012
42.49 	0.039035 	4765 	0.038297
42.51 	0.037529 	4743 	0.037282
42.53 	0.037648 	4728 	0.036781
42.55 	0.037383 	4708 	0.036388
42.57 	0.040381 	4730 	0.039761
42.59 	0.036794 	4729 	0.036547
42.61 	0.034622 	4708 	0.034249
42.63 	0.037163 	4709 	0.036790
42.65 	0.036286 	4685 	0.035911
42.67 	0.038215 	4684 	0.038215
42.69 	0.037441 	4674 	0.037441
42.71 	0.035814 	4663 	0.035688
42.73 	0.039009 	4640 	0.038230
42.75 	0.039853 	4617 	0.039345
42.77 	0.037391 	4600 	0.036882
42.79 	0.033392 	4582 	0.033264
42.81 	0.033538 	4562 	0.033281
42.83 	0.040564 	4536 	0.039919
42.85 	0.034231 	4528 	0.033714
42.87 	0.032674 	4499 	0.032544
42.89 	0.039509 	4480 	0.039117
42.91 	0.042864 	4456 	0.042338
42.93 	0.038686 	4446 	0.038028
42.95 	0.037364 	4416 	0.037099
42.97 	0.039082 	4401 	0.038949
42.99 	0.034664 	4385 	0.034129
43.01 	0.040339 	4363 	0.040205
43.03 	0.031156 	4333 	0.031021
43.05 	0.039075 	4325 	0.038804
43.07 	0.033054 	4296 	0.032350
43.09 	0.037357 	4283 	0.036947
43.11 	0.042773 	4255 	0.042223
43.13 	0.034222 	4237 	0.034084
43.15 	0.040656 	4206 	0.040238
43.17 	0.035894 	4179 	0.035613
43.19 	0.039580 	4194 	0.039022
43.21 	0.038111 	4172 	0.037690
43.23 	0.037554 	4154 	0.037131
43.25 	0.037727 	4135 	0.037443
43.27 	0.037759 	4105 	0.036760
43.29 	0.040976 	4100 	0.040404
43.31 	0.034812 	4079 	0.034382
43.33 	0.037522 	4051 	0.037088
43.35 	0.035962 	4032 	0.035817
43.37 	0.037858 	4015 	0.037420
43.39 	0.041229 	4002 	0.040498
43.41 	0.037764 	3972 	0.037617
43.43 	0.034596 	3960 	0.034300
43.45 	0.040152 	3935 	0.039408
43.47 	0.041571 	3921 	0.040973
43.49 	0.040031 	3897 	0.039580
43.51 	0.035337 	3877 	0.034883
43.53 	0.038830 	3863 	0.038678
43.55 	0.029015 	2964 	0.028620
43.57 	0.030831 	2238 	0.030831
43.59 	0.034937 	1746 	0.034937
43.61 	0.034049 	1351 	0.034049
43.63 	0.037962 	1001 	0.037962
43.65 	0.032023 	687 	0.031171
43.67 	0.037849 	502 	0.037849
43.69 	0.051771 	367 	0.051771
43.71 	0.033473 	239 	0.033473
43.73 	0.058333 	120 	0.048570
43.75 	0.062500 	16 	0.062500