File: Example_Data/25SC_s1_0008.001.dat
#F C:\frames\spec\25SC_s1_0008.001
#C title =s:8 frm:1 25SC_s1
#C wavelength =0.15406

#S 1  fr_average C:\frames\spec\25SC_s1_0008.001 C:\win32app\speccom\mask.axs chi 0 180 0 360 0.02
#C 2 theta =0.000000 to 180 deg
#C   q   =0.000000 to 81.568 nm^-1
#C  chi  =0.000000 to 360 deg
#C collumns:
#C  1 position (2theta or chi in degrees)
#C  2 average intensity (sum of all counts in the region divided with number of pixels)
#C  3 Number of pixels in region)
#C  4 error (sum of sqrt(intensity) for all pixels divided by number)
#N 4
#L TTh  Int  N_pix  Err
32.99 	0.065574 	61 	0.065574
33.01 	0.053837 	873 	0.052495
33.03 	0.048886 	1391 	0.048465
33.05 	0.068867 	1757 	0.066867
33.07 	0.061951 	2050 	0.060808
33.09 	0.060929 	2347 	0.059681
33.11 	0.055060 	2579 	0.054152
33.13 	0.056570 	2793 	0.055521
33.15 	0.058353 	2999 	0.056985
33.17 	0.055920 	3201 	0.054639
33.19 	0.059246 	3342 	0.058720
33.21 	0.066065 	3436 	0.063309
33.23 	0.056202 	3523 	0.054706
33.25 	0.052326 	3612 	0.051353
33.27 	0.057025 	3630 	0.055707
33.29 	0.060033 	3648 	0.058909
33.31 	0.056284 	3660 	0.055004
33.33 	0.051546 	3686 	0.050752
33.35 	0.055225 	3694 	0.053797
33.37 	0.058428 	3714 	0.057166
33.39 	0.057388 	3729 	0.056288
33.41 	0.052674 	3740 	0.052204
33.43 	0.064079 	3761 	0.062807
33.45 	0.060694 	3773 	0.059452
33.47 	0.055556 	3798 	0.054013
33.49 	0.063271 	3809 	0.061887
33.51 	0.067366 	3815 	0.065626
33.53 	0.067951 	3841 	0.066096
33.55 	0.059068 	3843 	0.058611
33.57 	0.063709 	3877 	0.062803
33.59 	0.060825 	3880 	0.060045
33.61 	0.062676 	3909 	0.061777
33.63 	0.056392 	3919 	0.055346
33.65 	0.065378 	3931 	0.063739
33.67 	0.057410 	3954 	0.056077
33.69 	0.056160 	3953 	0.055419
33.71 	0.058365 	3975 	0.057481
33.73 	0.061439 	4004 	0.061000
33.75 	0.060265 	3999 	0.059362
33.77 	0.058634 	4025 	0.056887
33.79 	0.053947 	4041 	0.053222
33.81 	0.054482 	4038 	0.053322
33.83 	0.057037 	4050 	0.056748
33.85 	0.057331 	4099 	0.056188
33.87 	0.062272 	4111 	0.060111
33.89 	0.062121 	4121 	0.061837
33.91 	0.056640 	4149 	0.055652
33.93 	0.056613 	4151 	0.055743
33.95 	0.064817 	4181 	0.063836
33.97 	0.064678 	4190 	0.063280
33.99 	0.056905 	4200 	0.055789
34.01 	0.055542 	4213 	0.054569
34.03 	0.056315 	4244 	0.055349
34.05 	0.056679 	4252 	0.055990
34.07 	0.053421 	4268 	0.052872
34.09 	0.060196 	4286 	0.058693
34.11 	0.059042 	4302 	0.058089
34.13 	0.054782 	4308 	0.053830
34.15 	0.053798 	4331 	0.053257
34.17 	0.061379 	4350 	0.060437
34.19 	0.058918 	4362 	0.057844
34.21 	0.059712 	4371 	0.058484
34.23 	0.057592 	4393 	0.055703
34.25 	0.057902 	4404 	0.056971
34.27 	0.056083 	4422 	0.054891
34.29 	0.059526 	4435 	0.058866
34.31 	0.054060 	4458 	0.053272
34.33 	0.059942 	4471 	0.058501
34.35 	0.056646 	4484 	0.055862
34.37 	0.061902 	4491 	0.061380
34.39 	0.063305 	4502 	0.061462
34.41 	0.055899 	4526 	0.054972
34.43 	0.050231 	4539 	0.050102
34.45 	0.053142 	4535 	0.052496
34.47 	0.055096 	4592 	0.054309
34.49 	0.051338 	4597 	0.049660
34.51 	0.052540 	4606 	0.051502
34.53 	0.059229 	4643 	0.057841
34.55 	0.059229 	4643 	0.058346
34.57 	0.060086 	4660 	0.058954
34.59 	0.054118 	4675 	0.053241
34.61 	0.049393 	4697 	0.048645
34.63 	0.060085 	4710 	0.058717
34.65 	0.063546 	4721 	0.061809
34.67 	0.058216 	4741 	0.057227
34.69 	0.057846 	4754 	0.057107
34.71 	0.053714 	4766 	0.052608
34.73 	0.060790 	4787 	0.059811
34.75 	0.055116 	4808 	0.054629
34.77 	0.054795 	4818 	0.053457
34.79 	0.052653 	4824 	0.051925
34.81 	0.059856 	4845 	0.059130
34.83 	0.054093 	4862 	0.052888
34.85 	0.054015 	4869 	0.052552
34.87 	0.059984 	4868 	0.058901
34.89 	0.059607 	4882 	0.058407
34.91 	0.056534 	4882 	0.055435
34.93 	0.055113 	4899 	0.054635
34.95 	0.061554 	4890 	0.059997
34.97 	0.056916 	4902 	0.055552
34.99 	0.054319 	4897 	0.053462
35.01 	0.055860 	4923 	0.054889
35.03 	0.057860 	4943 	0.056912
35.05 	0.055994 	4947 	0.055283
35.07 	0.060729 	4940 	0.059662
35.09 	0.052292 	4953 	0.051227
35.11 	0.052961 	4947 	0.052014
35.13 	0.059701 	4958 	0.058264
35.15 	0.059955 	4937 	0.058532
35.17 	0.053579 	4946 	0.052750
35.19 	0.058681 	4942 	0.057476
35.21 	0.056825 	4945 	0.055759
35.23 	0.054601 	4945 	0.054245
35.25 	0.054825 	4943 	0.053640
35.27 	0.060024 	4948 	0.059196
35.29 	0.059454 	4945 	0.058625
35.31 	0.060004 	4933 	0.059173
35.33 	0.053207 	4943 	0.052851
35.35 	0.058074 	4942 	0.057007
35.37 	0.058716 	4939 	0.057629
35.39 	0.053185 	4945 	0.052711
35.41 	0.058059 	4926 	0.057108
35.43 	0.057369 	4933 	0.056181
35.45 	0.054689 	4937 	0.053740
35.47 	0.058609 	4931 	0.058252
35.49 	0.057230 	4910 	0.055798
35.51 	0.060292 	4926 	0.059341
35.53 	0.060012 	4949 	0.058336
35.55 	0.055005 	4945 	0.054275
35.57 	0.057571 	4933 	0.056740
35.59 	0.058645 	4945 	0.058290
35.61 	0.055848 	4942 	0.054307
35.63 	0.053813 	4943 	0.052865
35.65 	0.060061 	4945 	0.059113
35.67 	0.056657 	4942 	0.055452
35.69 	0.058027 	4946 	0.057060
35.71 	0.062386 	4937 	0.061556
35.73 	0.055105 	4936 	0.054037
35.75 	0.058000 	4931 	0.056694
35.77 	0.062614 	4951 	0.061667
35.79 	0.056569 	4932 	0.055857
35.81 	0.058180 	4933 	0.057348
35.83 	0.055398 	4946 	0.054451
35.85 	0.055724 	4935 	0.055131
35.87 	0.058298 	4923 	0.057465
35.89 	0.055533 	4934 	0.054465
35.91 	0.059062 	4927 	0.058230
35.93 	0.058859 	4927 	0.057908
35.95 	0.055522 	4917 	0.054807
35.97 	0.057818 	4912 	0.057221
35.99 	0.058109 	4939 	0.057397
36.01 	0.060041 	4930 	0.058021
36.03 	0.057050 	4943 	0.055865
36.05 	0.060870 	4945 	0.060040
36.07 	0.059324 	4939 	0.058494
36.09 	0.053644 	4940 	0.052339
36.11 	0.058633 	4929 	0.058157
36.13 	0.060907 	4942 	0.059840
36.15 	0.064588 	4939 	0.063283
36.17 	0.060914 	4925 	0.059566
36.19 	0.062551 	4940 	0.061227
36.21 	0.060661 	4929 	0.059711
36.23 	0.058156 	4935 	0.057206
36.25 	0.066383 	4941 	0.065553
36.27 	0.066396 	4925 	0.064850
36.29 	0.054147 	4931 	0.053534
36.31 	0.060268 	4928 	0.059436
36.33 	0.053314 	4933 	0.052246
36.35 	0.057618 	4929 	0.056667
36.37 	0.056267 	4923 	0.055315
36.39 	0.061776 	4921 	0.060467
36.41 	0.058211 	4896 	0.057493
36.43 	0.061080 	4928 	0.060466
36.45 	0.062677 	4930 	0.061965
36.47 	0.058955 	4936 	0.057768
36.49 	0.052003 	4942 	0.050936
36.51 	0.061018 	4933 	0.059474
36.53 	0.058669 	4943 	0.057464
36.55 	0.053785 	4927 	0.053547
36.57 	0.059992 	4934 	0.059517
36.59 	0.059324 	4939 	0.058375
36.61 	0.056175 	4931 	0.054987
36.63 	0.063679 	4931 	0.061877
36.65 	0.059408 	4932 	0.057864
36.67 	0.060852 	4930 	0.059763
36.69 	0.059444 	4929 	0.058850
36.71 	0.053648 	4921 	0.053410
36.73 	0.067208 	4925 	0.066237
36.75 	0.057039 	4944 	0.056209
36.77 	0.058345 	4919 	0.057611
36.79 	0.057305 	4921 	0.056472
36.81 	0.063466 	4916 	0.062990
36.83 	0.052696 	4915 	0.051981
36.85 	0.057983 	4898 	0.056787
36.87 	0.057646 	4944 	0.056342
36.89 	0.061229 	4916 	0.060137
36.91 	0.063955 	4941 	0.063243
36.93 	0.056795 	4930 	0.055963
36.95 	0.056152 	4933 	0.054609
36.97 	0.068910 	4934 	0.068435
36.99 	0.055927 	4935 	0.055096
37.01 	0.060612 	4933 	0.059662
37.03 	0.056458 	4924 	0.055625
37.05 	0.059062 	4927 	0.058111
37.07 	0.058359 	4935 	0.057409
37.09 	0.063920 	4928 	0.062851
37.11 	0.061398 	4935 	0.061042
37.13 	0.057271 	4924 	0.056795
37.15 	0.059279 	4909 	0.057966
37.17 	0.055330 	4934 	0.053985
37.19 	0.059289 	4925 	0.058457
37.21 	0.057352 	4917 	0.056042
37.23 	0.062017 	4918 	0.060449
37.25 	0.056811 	4911 	0.055976
37.27 	0.058643 	4894 	0.057805
37.29 	0.062880 	4930 	0.062049
37.31 	0.059372 	4935 	0.057947
37.33 	0.055815 	4927 	0.054864
37.35 	0.060348 	4938 	0.059874
37.37 	0.056424 	4927 	0.055592
37.39 	0.062056 	4931 	0.061086
37.41 	0.056378 	4931 	0.055546
37.43 	0.059002 	4932 	0.057815
37.45 	0.061332 	4924 	0.060143
37.47 	0.052749 	4929 	0.052155
37.49 	0.059720 	4923 	0.058173
37.51 	0.065275 	4933 	0.064087
37.53 	0.062411 	4919 	0.061082
37.55 	0.052333 	4930 	0.051739
37.57 	0.057665 	4925 	0.056476
37.59 	0.056765 	4915 	0.056169
37.61 	0.055465 	4922 	0.054632
37.63 	0.053263 	4919 	0.052191
37.65 	0.054087 	4918 	0.053491
37.67 	0.055261 	4904 	0.054903
37.69 	0.056145 	4898 	0.054710
37.71 	0.055792 	4929 	0.055317
37.73 	0.061067 	4929 	0.059403
37.75 	0.056073 	4940 	0.055243
37.77 	0.057520 	4920 	0.056687
37.79 	0.050101 	4930 	0.049151
37.81 	0.048855 	4933 	0.047905
37.83 	0.054878 	4920 	0.054283
37.85 	0.057903 	4922 	0.056832
37.87 	0.055072 	4939 	0.053293
37.89 	0.057259 	4925 	0.056664
37.91 	0.051521 	4930 	0.050927
37.93 	0.057532 	4919 	0.056341
37.95 	0.058931 	4921 	0.058098
37.97 	0.050720 	4929 	0.049769
37.99 	0.061889 	4912 	0.060816
38.01 	0.052760 	4928 	0.051670
38.03 	0.052557 	4909 	0.051602
38.05 	0.059492 	4925 	0.058660
38.07 	0.055205 	4909 	0.054369
38.09 	0.056171 	4878 	0.055310
38.11 	0.055117 	4935 	0.054147
38.13 	0.053879 	4937 	0.052930
38.15 	0.054494 	4918 	0.054017
38.17 	0.059026 	4930 	0.057957
38.19 	0.058012 	4930 	0.057062
38.21 	0.056267 	4923 	0.055196
38.23 	0.047793 	4938 	0.047199
38.25 	0.054708 	4917 	0.053755
38.27 	0.053347 	4930 	0.052396
38.29 	0.056661 	4924 	0.055828
38.31 	0.057642 	4927 	0.056690
38.33 	0.054630 	4924 	0.053203
38.35 	0.059862 	4928 	0.058554
38.37 	0.061332 	4924 	0.059548
38.39 	0.067835 	4909 	0.066403
38.41 	0.061751 	4923 	0.061156
38.43 	0.066721 	4916 	0.066125
38.45 	0.065067 	4918 	0.064710
38.47 	0.060118 	4907 	0.058785
38.49 	0.071560 	4877 	0.069259
38.51 	0.063058 	4932 	0.062464
38.53 	0.066748 	4929 	0.065559
38.55 	0.069692 	4936 	0.068149
38.57 	0.070282 	4923 	0.068954
38.59 	0.070674 	4924 	0.069485
38.61 	0.079619 	4936 	0.077463
38.63 	0.071893 	4924 	0.070584
38.65 	0.079911 	4918 	0.077985
38.67 	0.074337 	4937 	0.072557
38.69 	0.076798 	4922 	0.075489
38.71 	0.072096 	4924 	0.070668
38.73 	0.079504 	4918 	0.077479
38.75 	0.072661 	4927 	0.071591
38.77 	0.077189 	4923 	0.075285
38.79 	0.065059 	4934 	0.064346
38.81 	0.078176 	4912 	0.075871
38.83 	0.066477 	4919 	0.065762
38.85 	0.066979 	4912 	0.065309
38.87 	0.067603 	4911 	0.066053
38.89 	0.062283 	4897 	0.060967
38.91 	0.056700 	4903 	0.055366
38.93 	0.061361 	4938 	0.060649
38.95 	0.054290 	4918 	0.053437
38.97 	0.061042 	4931 	0.060567
38.99 	0.055702 	4937 	0.054871
39.01 	0.050020 	4918 	0.048929
39.03 	0.051885 	4934 	0.051410
39.05 	0.058071 	4925 	0.057001
39.07 	0.055646 	4924 	0.054575
39.09 	0.055048 	4923 	0.053620
39.11 	0.046846 	4931 	0.046490
39.13 	0.053220 	4923 	0.052268
39.15 	0.051475 	4915 	0.050760
39.17 	0.048207 	4937 	0.047377
39.19 	0.048200 	4917 	0.047604
39.21 	0.044399 	4910 	0.043445
39.23 	0.047310 	4925 	0.046715
39.25 	0.050183 	4922 	0.049707
39.27 	0.046232 	4910 	0.045755
39.29 	0.043256 	4901 	0.042659
39.31 	0.047297 	4884 	0.047057
39.33 	0.046035 	4931 	0.045303
39.35 	0.045593 	4935 	0.044881
39.37 	0.046460 	4929 	0.045371
39.39 	0.043619 	4929 	0.043025
39.41 	0.044210 	4931 	0.043616
39.43 	0.045611 	4933 	0.045374
39.45 	0.043858 	4925 	0.043263
39.47 	0.045094 	4923 	0.044975
39.49 	0.044598 	4933 	0.044241
39.51 	0.044273 	4924 	0.043678
39.53 	0.044282 	4923 	0.043925
39.55 	0.047774 	4919 	0.047417
39.57 	0.045408 	4933 	0.044933
39.59 	0.048046 	4912 	0.047807
39.61 	0.048548 	4923 	0.047834
39.63 	0.041650 	4922 	0.041412
39.65 	0.047706 	4926 	0.047230
39.67 	0.046204 	4913 	0.045727
39.69 	0.049024 	4916 	0.048170
39.71 	0.048212 	4895 	0.047475
39.73 	0.041361 	4908 	0.040645
39.75 	0.039976 	4928 	0.039738
39.77 	0.044580 	4935 	0.043749
39.79 	0.044864 	4926 	0.044388
39.81 	0.045058 	4927 	0.044344
39.83 	0.042359 	4934 	0.041766
39.85 	0.046073 	4927 	0.045122
39.87 	0.042640 	4925 	0.042045
39.89 	0.041751 	4934 	0.041276
39.91 	0.045510 	4922 	0.045391
39.93 	0.043549 	4937 	0.042955
39.95 	0.043337 	4915 	0.042860
39.97 	0.042411 	4928 	0.042292
39.99 	0.043796 	4932 	0.043321
40.01 	0.041277 	4918 	0.040920
40.03 	0.042614 	4928 	0.041782
40.05 	0.050031 	4917 	0.048601
40.07 	0.043673 	4923 	0.043435
40.09 	0.040683 	4916 	0.039849
40.11 	0.040277 	4916 	0.040038
40.13 	0.043913 	4896 	0.043794
40.15 	0.042947 	4913 	0.041636
40.17 	0.044643 	4928 	0.044286
40.19 	0.043619 	4929 	0.042906
40.21 	0.049848 	4935 	0.048385
40.23 	0.042376 	4932 	0.041882
40.25 	0.043293 	4920 	0.042935
40.27 	0.043751 	4937 	0.043158
40.29 	0.045058 	4927 	0.044226
40.31 	0.043936 	4939 	0.043462
40.33 	0.046634 	4932 	0.045922
40.35 	0.043098 	4919 	0.042146
40.37 	0.038953 	4929 	0.038597
40.39 	0.042182 	4931 	0.041945
40.41 	0.049137 	4925 	0.048304
40.43 	0.046119 	4922 	0.045286
40.45 	0.042165 	4933 	0.041334
40.47 	0.043310 	4918 	0.042953
40.49 	0.046285 	4926 	0.046047
40.51 	0.041447 	4922 	0.041090
40.53 	0.044955 	4916 	0.044717
40.55 	0.036879 	4908 	0.036521
40.57 	0.044172 	4890 	0.043333
40.59 	0.047195 	4937 	0.046483
40.61 	0.043161 	4935 	0.042805
40.63 	0.043205 	4930 	0.042848
40.65 	0.039700 	4937 	0.039107
40.67 	0.042174 	4932 	0.042055
40.69 	0.032408 	4937 	0.031934
40.71 	0.042985 	4932 	0.042391
40.73 	0.039992 	4926 	0.039635
40.75 	0.042791 	4931 	0.042197
40.77 	0.043531 	4939 	0.043175
40.79 	0.045288 	4924 	0.044694
40.81 	0.040882 	4941 	0.040408
40.83 	0.040787 	4928 	0.040431
40.85 	0.043461 	4924 	0.042390
40.87 	0.043831 	4928 	0.043356
40.89 	0.042385 	4931 	0.041791
40.91 	0.048548 	4923 	0.047834
40.93 	0.044791 	4934 	0.043960
40.95 	0.042133 	4913 	0.042014
40.97 	0.039196 	4924 	0.038720
40.99 	0.043054 	4924 	0.042341
41.01 	0.039495 	4912 	0.038660
41.03 	0.036697 	4905 	0.036697
41.05 	0.039303 	4936 	0.038710
41.07 	0.038540 	4930 	0.038421
41.09 	0.042924 	4939 	0.042548
41.11 	0.040729 	4935 	0.040373
41.13 	0.046191 	4936 	0.045361
41.15 	0.040478 	4941 	0.040122
41.17 	0.041346 	4934 	0.040633
41.19 	0.041176 	4930 	0.040682
41.21 	0.047397 	4937 	0.046685
41.23 	0.041304 	4939 	0.040711
41.25 	0.042165 	4933 	0.041809
41.27 	0.046238 	4931 	0.045882
41.29 	0.044237 	4928 	0.043405
41.31 	0.046017 	4933 	0.044948
41.33 	0.039295 	4937 	0.038821
41.35 	0.041515 	4938 	0.040902
41.37 	0.045898 	4924 	0.044827
41.39 	0.038111 	4933 	0.037517
41.41 	0.040398 	4926 	0.039803
41.43 	0.042199 	4929 	0.041130
41.45 	0.043956 	4914 	0.043598
41.47 	0.041413 	4926 	0.040580
41.49 	0.041087 	4892 	0.040249
41.51 	0.037652 	4940 	0.036822
41.53 	0.036812 	4944 	0.036575
41.55 	0.040729 	4935 	0.039661
41.57 	0.038859 	4941 	0.038621
41.59 	0.042570 	4933 	0.042095
41.61 	0.044619 	4953 	0.044028
41.63 	0.043742 	4938 	0.043268
41.65 	0.041388 	4929 	0.040793
41.67 	0.039474 	4940 	0.039474
41.69 	0.040024 	4947 	0.039432
41.71 	0.034049 	4934 	0.033812
41.73 	0.041937 	4936 	0.041699
41.75 	0.043417 	4929 	0.042703
41.77 	0.036227 	4941 	0.035872
41.79 	0.043487 	4944 	0.043013
41.81 	0.034238 	4936 	0.033764
41.83 	0.043222 	4928 	0.042866
41.85 	0.041506 	4939 	0.041506
41.87 	0.039514 	4935 	0.038920
41.89 	0.040543 	4933 	0.040306
41.91 	0.035859 	4936 	0.035384
41.93 	0.036294 	4932 	0.036175
41.95 	0.042993 	4931 	0.042637
41.97 	0.042328 	4914 	0.041970
41.99 	0.045464 	4905 	0.044608
42.01 	0.038244 	4942 	0.037769
42.03 	0.046973 	4939 	0.046261
42.05 	0.041195 	4952 	0.040486
42.07 	0.040308 	4937 	0.039477
42.09 	0.042239 	4948 	0.041647
42.11 	0.047118 	4945 	0.046763
42.13 	0.046714 	4945 	0.046358
42.15 	0.042325 	4938 	0.041613
42.17 	0.042497 	4918 	0.042378
42.19 	0.043806 	4908 	0.043209
42.21 	0.040604 	4901 	0.040126
42.23 	0.041701 	4892 	0.041222
42.25 	0.040295 	4889 	0.039695
42.27 	0.038162 	4874 	0.038041
42.29 	0.046473 	4863 	0.045871
42.31 	0.041607 	4855 	0.040762
42.33 	0.039305 	4834 	0.038578
42.35 	0.036585 	4838 	0.036464
42.37 	0.038302 	4830 	0.038060
42.39 	0.042048 	4804 	0.041682
42.41 	0.038718 	4804 	0.038474
42.43 	0.037145 	4792 	0.036656
42.45 	0.037270 	4776 	0.037270
42.47 	0.038615 	4765 	0.037877
42.49 	0.041763 	4765 	0.041517
42.51 	0.039427 	4743 	0.039180
42.53 	0.036802 	4728 	0.036430
42.55 	0.034834 	4708 	0.034316
42.57 	0.036575 	4730 	0.035832
42.59 	0.041023 	4729 	0.040900
42.61 	0.034410 	4708 	0.033787
42.63 	0.040773 	4709 	0.040027
42.65 	0.043330 	4685 	0.042580
42.67 	0.040991 	4684 	0.040220
42.69 	0.040864 	4674 	0.040488
42.71 	0.037315 	4663 	0.037064
42.73 	0.036853 	4640 	0.036601
42.75 	0.039420 	4617 	0.039039
42.77 	0.034783 	4600 	0.034655
42.79 	0.038848 	4582 	0.038464
42.81 	0.038799 	4562 	0.038542
42.83 	0.038580 	4536 	0.038193
42.85 	0.039532 	4528 	0.038756
42.87 	0.033785 	4499 	0.033395
42.89 	0.038839 	4480 	0.038316
42.91 	0.038375 	4456 	0.038112
42.93 	0.035088 	4446 	0.034692
42.95 	0.034194 	4416 	0.034061
42.97 	0.042718 	4401 	0.042052
42.99 	0.038540 	4385 	0.038407
43.01 	0.046986 	4363 	0.046852
43.03 	0.038311 	4333 	0.038040
43.05 	0.036301 	4325 	0.036165
43.07 	0.037942 	4296 	0.037806
43.09 	0.035723 	4283 	0.035312
43.11 	0.038073 	4255 	0.037385
43.13 	0.035402 	4237 	0.034988
43.15 	0.043272 	4206 	0.042714
43.17 	0.040680 	4179 	0.040539
43.19 	0.038388 	4194 	0.037829
43.21 	0.033317 	4172 	0.032452
43.23 	0.040924 	4154 	0.040642
43.25 	0.044982 	4135 	0.044557
43.27 	0.039220 	4105 	0.039078
43.29 	0.033415 	4100 	0.033129
43.31 	0.039716 	4079 	0.039572
43.33 	0.038756 	4051 	0.038177
43.35 	0.037202 	4032 	0.036912
43.37 	0.040847 	4015 	0.040701
43.39 	0.036982 	4002 	0.036250
43.41 	0.036757 	3972 	0.036757
43.43 	0.035354 	3960 	0.035058
43.45 	0.040661 	3935 	0.040512
43.47 	0.042591 	3921 	0.042442
43.49 	0.036952 	3897 	0.036651
43.51 	0.035852 	3877 	0.035399
43.53 	0.032099 	3863 	0.031796
43.55 	0.036100 	2964 	0.035705
43.57 	0.037087 	2238 	0.037087
43.59 	0.041237 	1746 	0.041237
43.61 	0.029608 	1351 	0.029608
43.63 	0.025974 	1001 	0.025389
43.65 	0.037846 	687 	0.037846
43.67 	0.027888 	502 	0.026722
43.69 	0.035422 	367 	0.035422
43.71 	0.041841 	239 	0.041841
43.73 	0.041667 	120 	0.041667
43.75 	0.000000 	16 	0.000000