File: Example_Data/25SC_s1_0011.004.dat
#F C:\frames\spec\25SC_s1_0011.004
#C title =s:11 frm:4 25SC_s1
#C wavelength =0.15406

#S 1  fr_average C:\frames\spec\25SC_s1_0011.004 C:\win32app\speccom\mask.axs chi 0 180 0 360 0.02
#C 2 theta =0.000000 to 180 deg
#C   q   =0.000000 to 81.568 nm^-1
#C  chi  =0.000000 to 360 deg
#C collumns:
#C  1 position (2theta or chi in degrees)
#C  2 average intensity (sum of all counts in the region divided with number of pixels)
#C  3 Number of pixels in region)
#C  4 error (sum of sqrt(intensity) for all pixels divided by number)
#N 4
#L TTh  Int  N_pix  Err
32.99 	0.032787 	61 	0.032787
33.01 	0.050401 	873 	0.049730
33.03 	0.055356 	1391 	0.054514
33.05 	0.070575 	1757 	0.068241
33.07 	0.068293 	2050 	0.067150
33.09 	0.053686 	2347 	0.052937
33.11 	0.056223 	2579 	0.054406
33.13 	0.061941 	2793 	0.061102
33.15 	0.051017 	2999 	0.050040
33.17 	0.061856 	3201 	0.059843
33.19 	0.055955 	3342 	0.054903
33.21 	0.056752 	3436 	0.056241
33.23 	0.057337 	3523 	0.056506
33.25 	0.054817 	3612 	0.053682
33.27 	0.062534 	3630 	0.061728
33.29 	0.063871 	3648 	0.063068
33.31 	0.064208 	3660 	0.062127
33.33 	0.058871 	3686 	0.058051
33.35 	0.054142 	3694 	0.053825
33.37 	0.054927 	3714 	0.054139
33.39 	0.049879 	3729 	0.049408
33.41 	0.061230 	3740 	0.060603
33.43 	0.053975 	3761 	0.053352
33.45 	0.062020 	3773 	0.061243
33.47 	0.058452 	3798 	0.057526
33.49 	0.059858 	3809 	0.058167
33.51 	0.058453 	3815 	0.057839
33.53 	0.055975 	3841 	0.055035
33.55 	0.059068 	3843 	0.057849
33.57 	0.057519 	3877 	0.056914
33.59 	0.057732 	3880 	0.056826
33.61 	0.053722 	3909 	0.052823
33.63 	0.053075 	3919 	0.052626
33.65 	0.045535 	3931 	0.044939
33.67 	0.053364 	3954 	0.052327
33.69 	0.061472 	3953 	0.060731
33.71 	0.060126 	3975 	0.059094
33.73 	0.068432 	4004 	0.067091
33.75 	0.053263 	3999 	0.052091
33.77 	0.056894 	4025 	0.056312
33.79 	0.054195 	4041 	0.053615
33.81 	0.061169 	4038 	0.060298
33.83 	0.062716 	4050 	0.061559
33.85 	0.060747 	4099 	0.060032
33.87 	0.060569 	4111 	0.059263
33.89 	0.059209 	4121 	0.057930
33.91 	0.059773 	4149 	0.058785
33.93 	0.060949 	4151 	0.059961
33.95 	0.062664 	4181 	0.061964
33.97 	0.063484 	4190 	0.062646
33.99 	0.061429 	4200 	0.060034
34.01 	0.059815 	4213 	0.059259
34.03 	0.062205 	4244 	0.060963
34.05 	0.067027 	4252 	0.066201
34.07 	0.062090 	4268 	0.061266
34.09 	0.063696 	4286 	0.062739
34.11 	0.060437 	4302 	0.060165
34.13 	0.064299 	4308 	0.062509
34.15 	0.059109 	4331 	0.058162
34.17 	0.054483 	4350 	0.053809
34.19 	0.059606 	4362 	0.058666
34.21 	0.060169 	4371 	0.059365
34.23 	0.053494 	4393 	0.053361
34.25 	0.056767 	4404 	0.055835
34.27 	0.053143 	4422 	0.052084
34.29 	0.061330 	4435 	0.060142
34.31 	0.065276 	4458 	0.063940
34.33 	0.053679 	4471 	0.052631
34.35 	0.067128 	4484 	0.066344
34.37 	0.055890 	4491 	0.054694
34.39 	0.061306 	4502 	0.060005
34.41 	0.063190 	4526 	0.061378
34.43 	0.060145 	4539 	0.059242
34.45 	0.056229 	4535 	0.054938
34.47 	0.054660 	4592 	0.053512
34.49 	0.065042 	4597 	0.063131
34.51 	0.057968 	4606 	0.057078
34.53 	0.065475 	4643 	0.064718
34.55 	0.058798 	4643 	0.057789
34.57 	0.059871 	4660 	0.058363
34.59 	0.060321 	4675 	0.059945
34.61 	0.062167 	4697 	0.061170
34.63 	0.056900 	4710 	0.055905
34.65 	0.060580 	4721 	0.059712
34.67 	0.063278 	4741 	0.061919
34.69 	0.064367 	4754 	0.063135
34.71 	0.064205 	4766 	0.062976
34.73 	0.068519 	4787 	0.067540
34.75 	0.066764 	4808 	0.065667
34.77 	0.059361 	4818 	0.057902
34.79 	0.063640 	4824 	0.062062
34.81 	0.061507 	4845 	0.060419
34.83 	0.067668 	4862 	0.066785
34.85 	0.062436 	4869 	0.061093
34.87 	0.059573 	4868 	0.057647
34.89 	0.057149 	4882 	0.055829
34.91 	0.058583 	4882 	0.057503
34.93 	0.056950 	4899 	0.056592
34.95 	0.062168 	4890 	0.061209
34.97 	0.062424 	4902 	0.060751
34.99 	0.062283 	4897 	0.060848
35.01 	0.065204 	4923 	0.063300
35.03 	0.062310 	4943 	0.060869
35.05 	0.061654 	4947 	0.059503
35.07 	0.060324 	4940 	0.059612
35.09 	0.058147 	4953 	0.057319
35.11 	0.058824 	4947 	0.057639
35.13 	0.062525 	4958 	0.061698
35.15 	0.063399 	4937 	0.061837
35.17 	0.058027 	4946 	0.057316
35.19 	0.059490 	4942 	0.058542
35.21 	0.062690 	4945 	0.061387
35.23 	0.064307 	4945 	0.062530
35.25 	0.062310 	4943 	0.061580
35.27 	0.064470 	4948 	0.063642
35.29 	0.059656 	4945 	0.058709
35.31 	0.061626 	4933 	0.060913
35.33 	0.060085 	4943 	0.059374
35.35 	0.061311 	4942 	0.060126
35.37 	0.064790 	4939 	0.063723
35.39 	0.062690 	4945 	0.061722
35.41 	0.062525 	4926 	0.061693
35.43 	0.060207 	4933 	0.059494
35.45 	0.063399 	4937 	0.062331
35.47 	0.057189 	4931 	0.056476
35.49 	0.060489 	4910 	0.058938
35.51 	0.063540 	4926 	0.062589
35.53 	0.060214 	4949 	0.059741
35.55 	0.064307 	4945 	0.063340
35.57 	0.060207 	4933 	0.058901
35.59 	0.059454 	4945 	0.058388
35.61 	0.058883 	4942 	0.057935
35.63 	0.059883 	4943 	0.058915
35.65 	0.060667 	4945 	0.059345
35.67 	0.056860 	4942 	0.056267
35.69 	0.059442 	4946 	0.058613
35.71 	0.060766 	4937 	0.059204
35.73 	0.064425 	4936 	0.064069
35.75 	0.064287 	4931 	0.063317
35.77 	0.061604 	4951 	0.060164
35.79 	0.061436 	4932 	0.060367
35.81 	0.060612 	4933 	0.059662
35.83 	0.062677 	4946 	0.061729
35.85 	0.062614 	4935 	0.061546
35.87 	0.060126 	4923 	0.059769
35.89 	0.061613 	4934 	0.060307
35.91 	0.065557 	4927 	0.064725
35.93 	0.061295 	4927 	0.060344
35.95 	0.064470 	4917 	0.062902
35.97 	0.063925 	4912 	0.063090
35.99 	0.053047 	4939 	0.052454
36.01 	0.059838 	4930 	0.059362
36.03 	0.061097 	4943 	0.060385
36.05 	0.058645 	4945 	0.057460
36.07 	0.059324 	4939 	0.058019
36.09 	0.054453 	4940 	0.053604
36.11 	0.059647 	4929 	0.058934
36.13 	0.052610 	4942 	0.051899
36.15 	0.060944 	4939 	0.059520
36.17 	0.057868 	4925 	0.056203
36.19 	0.061538 	4940 	0.060234
36.21 	0.060661 	4929 	0.059473
36.23 	0.059777 	4935 	0.058333
36.25 	0.059300 	4941 	0.058470
36.27 	0.067005 	4925 	0.065439
36.29 	0.059826 	4931 	0.059113
36.31 	0.056818 	4928 	0.056224
36.33 	0.063045 	4933 	0.062095
36.35 	0.054372 	4929 	0.053778
36.37 	0.061548 	4923 	0.060596
36.39 	0.058118 	4921 	0.056690
36.41 	0.061275 	4896 	0.060198
36.43 	0.061282 	4928 	0.059737
36.45 	0.053753 	4930 	0.052208
36.47 	0.056118 	4936 	0.055169
36.49 	0.071631 	4942 	0.070564
36.51 	0.055544 	4933 	0.054456
36.53 	0.058467 	4943 	0.057025
36.55 	0.058047 	4927 	0.057453
36.57 	0.059384 	4934 	0.058058
36.59 	0.061551 	4939 	0.060721
36.61 	0.059217 	4931 	0.058128
36.63 	0.058609 	4931 	0.058134
36.65 	0.063869 	4932 	0.061810
36.67 	0.058824 	4930 	0.057616
36.69 	0.059850 	4929 	0.059374
36.71 	0.063808 	4921 	0.062975
36.73 	0.053604 	4925 	0.052890
36.75 	0.057039 	4944 	0.056328
36.77 	0.055702 	4919 	0.054869
36.79 	0.061370 	4921 	0.060279
36.81 	0.054923 	4916 	0.053969
36.83 	0.055137 	4915 	0.054065
36.85 	0.057779 	4898 	0.057061
36.87 	0.056230 	4944 	0.055045
36.89 	0.058788 	4916 	0.057815
36.91 	0.059300 	4941 	0.058707
36.93 	0.049899 	4930 	0.049423
36.95 	0.056152 	4933 	0.055321
36.97 	0.059992 	4934 	0.059280
36.99 	0.058156 	4935 	0.057088
37.01 	0.057774 	4933 	0.057062
37.03 	0.057067 	4924 	0.055878
37.05 	0.058250 	4927 	0.057062
37.07 	0.058967 	4935 	0.058492
37.09 	0.052557 	4928 	0.051606
37.11 	0.054103 	4935 	0.053253
37.13 	0.057474 	4924 	0.056522
37.15 	0.058057 	4909 	0.057102
37.17 	0.059587 	4934 	0.058755
37.19 	0.054213 	4925 	0.053737
37.21 	0.059386 	4917 	0.058056
37.23 	0.056527 	4918 	0.055555
37.25 	0.051313 	4911 	0.050478
37.27 	0.055987 	4894 	0.055388
37.29 	0.051927 	4930 	0.051095
37.31 	0.059574 	4935 	0.058862
37.33 	0.055815 	4927 	0.053556
37.35 	0.054678 	4938 	0.053729
37.37 	0.054597 	4927 	0.054003
37.39 	0.056378 	4931 	0.055289
37.41 	0.061042 	4931 	0.060330
37.43 	0.056569 	4932 	0.056094
37.45 	0.059911 	4924 	0.059078
37.47 	0.059241 	4929 	0.058409
37.49 	0.054438 	4923 	0.053486
37.51 	0.059801 	4933 	0.058258
37.53 	0.059565 	4919 	0.058731
37.55 	0.059026 	4930 	0.057581
37.57 	0.048934 	4925 	0.048458
37.59 	0.060427 	4915 	0.059831
37.61 	0.059122 	4922 	0.058170
37.63 	0.054686 	4919 	0.053852
37.65 	0.056730 	4918 	0.056135
37.67 	0.059951 	4904 	0.058279
37.69 	0.054716 	4898 	0.054238
37.71 	0.053155 	4929 	0.052561
37.73 	0.053155 	4929 	0.052442
37.75 	0.056680 	4940 	0.055475
37.77 	0.053252 	4920 	0.052061
37.79 	0.061663 	4930 	0.060950
37.81 	0.054328 	4933 	0.053378
37.83 	0.053252 	4920 	0.052895
37.85 	0.052621 	4922 	0.051431
37.87 	0.054464 	4939 	0.053397
37.89 	0.054213 	4925 	0.053856
37.91 	0.051724 	4930 	0.051011
37.93 	0.057125 	4919 	0.056173
37.95 	0.057509 	4921 	0.056318
37.97 	0.059850 	4929 	0.058661
37.99 	0.058836 	4912 	0.057524
38.01 	0.059862 	4928 	0.058178
38.03 	0.057853 	4909 	0.056302
38.05 	0.058071 	4925 	0.057120
38.07 	0.058464 	4909 	0.057748
38.09 	0.058631 	4878 	0.057260
38.11 	0.062006 	4935 	0.060700
38.13 	0.059550 	4937 	0.059076
38.15 	0.059984 	4918 	0.058912
38.17 	0.054361 	4930 	0.053767
38.19 	0.062272 	4930 	0.061678
38.21 	0.062563 	4923 	0.061493
38.23 	0.063791 	4938 	0.062723
38.25 	0.063860 	4917 	0.063026
38.27 	0.059026 	4930 	0.057838
38.29 	0.064785 	4924 	0.063338
38.31 	0.066166 	4927 	0.065215
38.33 	0.061129 	4924 	0.060296
38.35 	0.068994 	4928 	0.067924
38.37 	0.070268 	4924 	0.067988
38.39 	0.068242 	4909 	0.067168
38.41 	0.063376 	4923 	0.062424
38.43 	0.065907 	4916 	0.064716
38.45 	0.063440 	4918 	0.062726
38.47 	0.061952 	4907 	0.060639
38.49 	0.066434 	4877 	0.064993
38.51 	0.066099 	4932 	0.064773
38.53 	0.068168 	4929 	0.066980
38.55 	0.068476 	4936 	0.067527
38.57 	0.064392 	4923 	0.063321
38.59 	0.061535 	4924 	0.060346
38.61 	0.058144 	4936 	0.057195
38.63 	0.061535 	4924 	0.060703
38.65 	0.063440 	4918 	0.062607
38.67 	0.059753 	4937 	0.058922
38.69 	0.056887 	4922 	0.055935
38.71 	0.058083 	4924 	0.057369
38.73 	0.053884 	4918 	0.053407
38.75 	0.057236 	4927 	0.056760
38.77 	0.055251 	4923 	0.054299
38.79 	0.060803 	4934 	0.059378
38.81 	0.055375 	4912 	0.054540
38.83 	0.057329 	4919 	0.056376
38.85 	0.060464 	4912 	0.059510
38.87 	0.054164 	4911 	0.053568
38.89 	0.054115 	4897 	0.052660
38.91 	0.052621 	4903 	0.051665
38.93 	0.052855 	4938 	0.052381
38.95 	0.057747 	4918 	0.057152
38.97 	0.054553 	4931 	0.054078
38.99 	0.050638 	4937 	0.050163
39.01 	0.054900 	4918 	0.054067
39.03 	0.051074 	4934 	0.050362
39.05 	0.046904 	4925 	0.046428
39.07 	0.053006 	4924 	0.052292
39.09 	0.058298 	4923 	0.057346
39.11 	0.051916 	4931 	0.051085
39.13 	0.052204 	4923 	0.051609
39.15 	0.052492 	4915 	0.052016
39.17 	0.056917 	4937 	0.055137
39.19 	0.053895 	4917 	0.053418
39.21 	0.053768 	4910 	0.053291
39.23 	0.048325 	4925 	0.047473
39.25 	0.056481 	4922 	0.055291
39.27 	0.054786 	4910 	0.053712
39.29 	0.052438 	4901 	0.051721
39.31 	0.056921 	4884 	0.055961
39.33 	0.052728 	4931 	0.052015
39.35 	0.055117 	4935 	0.054048
39.37 	0.049503 	4929 	0.048671
39.39 	0.051329 	4929 	0.050497
39.41 	0.054147 	4931 	0.052959
39.43 	0.054531 	4933 	0.053224
39.45 	0.051980 	4925 	0.051365
39.47 	0.050579 	4923 	0.049984
39.49 	0.060004 	4933 	0.059292
39.51 	0.051381 	4924 	0.050429
39.53 	0.061751 	4923 	0.061156
39.55 	0.054076 	4919 	0.052508
39.57 	0.056558 	4933 	0.056083
39.59 	0.060871 	4912 	0.059082
39.61 	0.056673 	4923 	0.055721
39.63 	0.059732 	4922 	0.058423
39.65 	0.060495 	4926 	0.059782
39.67 	0.056177 	4913 	0.055224
39.69 	0.061229 	4916 	0.060395
39.71 	0.054137 	4895 	0.053539
39.73 	0.062347 	4908 	0.061034
39.75 	0.058847 	4928 	0.057659
39.77 	0.058764 	4935 	0.058408
39.79 	0.058262 	4926 	0.057668
39.81 	0.060280 	4927 	0.058853
39.83 	0.056749 	4934 	0.056037
39.85 	0.053988 	4927 	0.052661
39.87 	0.053807 	4925 	0.053093
39.89 	0.054114 	4934 	0.053402
39.91 	0.055872 	4922 	0.054919
39.93 	0.051651 	4937 	0.051058
39.95 	0.053917 	4915 	0.053321
39.97 	0.055195 	4928 	0.054125
39.99 	0.051703 	4932 	0.050991
40.01 	0.053070 	4918 	0.052356
40.03 	0.053977 	4928 	0.053026
40.05 	0.055522 	4917 	0.054330
40.07 	0.054032 	4923 	0.053675
40.09 	0.056143 	4916 	0.055428
40.11 	0.059194 	4916 	0.057765
40.13 	0.052083 	4896 	0.051365
40.15 	0.057602 	4913 	0.056410
40.17 	0.045455 	4928 	0.045217
40.19 	0.055995 	4929 	0.055401
40.21 	0.050861 	4935 	0.050248
40.23 	0.054542 	4932 	0.053473
40.25 	0.051220 	4920 	0.050267
40.27 	0.052461 	4937 	0.051492
40.29 	0.053988 	4927 	0.053275
40.31 	0.045961 	4939 	0.045605
40.33 	0.053122 	4932 	0.052410
40.35 	0.054076 	4919 	0.053123
40.37 	0.054981 	4929 	0.054129
40.39 	0.053539 	4931 	0.052588
40.41 	0.049746 	4925 	0.049270
40.43 	0.050386 	4922 	0.049315
40.45 	0.054936 	4933 	0.053967
40.47 	0.050020 	4918 	0.049067
40.49 	0.053999 	4926 	0.053405
40.51 	0.056887 	4922 	0.055935
40.53 	0.050854 	4916 	0.049901
40.55 	0.051548 	4908 	0.051071
40.57 	0.052556 	4890 	0.051837
40.59 	0.053474 	4937 	0.053236
40.61 	0.055522 	4935 	0.054810
40.63 	0.049087 	4930 	0.047661
40.65 	0.052461 	4937 	0.051749
40.67 	0.053731 	4932 	0.053137
40.69 	0.050841 	4937 	0.050366
40.71 	0.052920 	4932 	0.052445
40.73 	0.051969 	4926 	0.050760
40.75 	0.059623 	4931 	0.058791
40.77 	0.048795 	4939 	0.047728
40.79 	0.055037 	4924 	0.053946
40.81 	0.050597 	4941 	0.050241
40.83 	0.053774 	4928 	0.052705
40.85 	0.049350 	4924 	0.048517
40.87 	0.050325 	4928 	0.049493
40.89 	0.050497 	4931 	0.049765
40.91 	0.049360 	4923 	0.048884
40.93 	0.054114 	4934 	0.053402
40.95 	0.052921 	4913 	0.052205
40.97 	0.050772 	4924 	0.049939
40.99 	0.053412 	4924 	0.052678
41.01 	0.060057 	4912 	0.058984
41.03 	0.051172 	4905 	0.049859
41.05 	0.050243 	4936 	0.049294
41.07 	0.050101 	4930 	0.049270
41.09 	0.053250 	4939 	0.051925
41.11 	0.051064 	4935 	0.049877
41.13 	0.052674 	4936 	0.051468
41.15 	0.053835 	4941 	0.053124
41.17 	0.051277 	4934 	0.050090
41.19 	0.050304 	4930 	0.049829
41.21 	0.055702 	4937 	0.055227
41.23 	0.047783 	4939 	0.047309
41.25 	0.055544 	4933 	0.054238
41.27 	0.051105 	4931 	0.050036
41.29 	0.053774 	4928 	0.053299
41.31 	0.049666 	4933 	0.048953
41.33 	0.045777 	4937 	0.045065
41.35 	0.051438 	4938 	0.051082
41.37 	0.046507 	4924 	0.045793
41.39 	0.057369 	4933 	0.055469
41.41 	0.051766 	4926 	0.051053
41.43 	0.046663 	4929 	0.046425
41.45 	0.052300 	4914 	0.051584
41.47 	0.050345 	4926 	0.048760
41.49 	0.050082 	4892 	0.049483
41.51 	0.051215 	4940 	0.050622
41.53 	0.051982 	4944 	0.051133
41.55 	0.048430 	4935 	0.047836
41.57 	0.050192 	4941 	0.049362
41.59 	0.054733 	4933 	0.053783
41.61 	0.056733 	4953 	0.055905
41.63 	0.048603 	4938 	0.047772
41.65 	0.050112 	4929 	0.048666
41.67 	0.058300 	4940 	0.057470
41.69 	0.050738 	4947 	0.049554
41.71 	0.046615 	4934 	0.045666
41.73 	0.054700 	4936 	0.054107
41.75 	0.051329 	4929 	0.050497
41.77 	0.043109 	4941 	0.042753
41.79 	0.051375 	4944 	0.050309
41.81 	0.052877 	4936 	0.051453
41.83 	0.053571 	4928 	0.052858
41.85 	0.048795 	4939 	0.047965
41.87 	0.047619 	4935 	0.046669
41.89 	0.051085 	4933 	0.050253
41.91 	0.042747 	4936 	0.042391
41.93 	0.041971 	4932 	0.041496
41.95 	0.047658 	4931 	0.047182
41.97 	0.051486 	4914 	0.050890
41.99 	0.044648 	4905 	0.044290
42.01 	0.045933 	4942 	0.045340
42.03 	0.052440 	4939 	0.051847
42.05 	0.050687 	4952 	0.049859
42.07 	0.051853 	4937 	0.051260
42.09 	0.040622 	4948 	0.039794
42.11 	0.045096 	4945 	0.044859
42.13 	0.046714 	4945 	0.046595
42.15 	0.045970 	4938 	0.045377
42.17 	0.051240 	4918 	0.050407
42.19 	0.050733 	4908 	0.050017
42.21 	0.048562 	4901 	0.047964
42.23 	0.046402 	4892 	0.045804
42.25 	0.051953 	4889 	0.050735
42.27 	0.045753 	4874 	0.044772
42.29 	0.047502 	4863 	0.047020
42.31 	0.051699 	4855 	0.050734
42.33 	0.041374 	4834 	0.040889
42.35 	0.051261 	4838 	0.050413
42.37 	0.042443 	4830 	0.041958
42.39 	0.049334 	4804 	0.048602
42.41 	0.046628 	4804 	0.045408
42.43 	0.053631 	4792 	0.052898
42.45 	0.051298 	4776 	0.050194
42.47 	0.044071 	4765 	0.043825
42.49 	0.044701 	4765 	0.043963
42.51 	0.048914 	4743 	0.048173
42.53 	0.046743 	4728 	0.046247
42.55 	0.045030 	4708 	0.044283
42.57 	0.045455 	4730 	0.044835
42.59 	0.055826 	4729 	0.055702
42.61 	0.048216 	4708 	0.047718
42.63 	0.045870 	4709 	0.045372
42.65 	0.048453 	4685 	0.047952
42.67 	0.050811 	4684 	0.050186
42.69 	0.048567 	4674 	0.047564
42.71 	0.046537 	4663 	0.045783
42.73 	0.045690 	4640 	0.045058
42.75 	0.040719 	4617 	0.040338
42.77 	0.047826 	4600 	0.047317
42.79 	0.045832 	4582 	0.045576
42.81 	0.047128 	4562 	0.046358
42.83 	0.046737 	4536 	0.045962
42.85 	0.047261 	4528 	0.046744
42.87 	0.048900 	4499 	0.048509
42.89 	0.048884 	4480 	0.048099
42.91 	0.048025 	4456 	0.047105
42.93 	0.050157 	4446 	0.050026
42.95 	0.048007 	4416 	0.046813
42.97 	0.050443 	4401 	0.050044
42.99 	0.049487 	4385 	0.048953
43.01 	0.042402 	4363 	0.042268
43.03 	0.047542 	4333 	0.047137
43.05 	0.043006 	4325 	0.042599
43.07 	0.054935 	4296 	0.053980
43.09 	0.045996 	4283 	0.045722
43.11 	0.042538 	4255 	0.042401
43.13 	0.051215 	4237 	0.050109
43.15 	0.047789 	4206 	0.047510
43.17 	0.052166 	4179 	0.050904
43.19 	0.044826 	4194 	0.044547
43.21 	0.045062 	4172 	0.044501
43.23 	0.053683 	4154 	0.052978
43.25 	0.041596 	4135 	0.040746
43.27 	0.052619 	4105 	0.051905
43.29 	0.047805 	4100 	0.046948
43.31 	0.044128 	4079 	0.043123
43.33 	0.047149 	4051 	0.046715
43.35 	0.048611 	4032 	0.047594
43.37 	0.046077 	4015 	0.045616
43.39 	0.045977 	4002 	0.045392
43.41 	0.048087 	3972 	0.047939
43.43 	0.043939 	3960 	0.043348
43.45 	0.045235 	3935 	0.044640
43.47 	0.047947 	3921 	0.047175
43.49 	0.054657 	3897 	0.053906
43.51 	0.045138 	3877 	0.044231
43.53 	0.047114 	3863 	0.046659
43.55 	0.043185 	2964 	0.042394
43.57 	0.043789 	2238 	0.043789
43.59 	0.054983 	1746 	0.054647
43.61 	0.047372 	1351 	0.046505
43.63 	0.040959 	1001 	0.040374
43.65 	0.072780 	687 	0.067664
43.67 	0.045817 	502 	0.045817
43.69 	0.046322 	367 	0.044725
43.71 	0.058577 	239 	0.056126
43.73 	0.050000 	120 	0.045118
43.75 	0.125000 	16 	0.088388