File: Example_Data/25SC_s1_0030.003.dat
#F C:\frames\spec\25SC_s1_0030.003
#C title =s:30 frm:3 25SC_s1
#C wavelength =0.15406

#S 1  fr_average C:\frames\spec\25SC_s1_0030.003 C:\win32app\speccom\mask.axs chi 0 180 0 360 0.02
#C 2 theta =0.000000 to 180 deg
#C   q   =0.000000 to 81.568 nm^-1
#C  chi  =0.000000 to 360 deg
#C collumns:
#C  1 position (2theta or chi in degrees)
#C  2 average intensity (sum of all counts in the region divided with number of pixels)
#C  3 Number of pixels in region)
#C  4 error (sum of sqrt(intensity) for all pixels divided by number)
#N 4
#L TTh  Int  N_pix  Err
32.99 	0.016393 	61 	0.016393
33.01 	0.050401 	873 	0.050401
33.03 	0.056075 	1391 	0.056075
33.05 	0.059192 	1757 	0.058192
33.07 	0.058537 	2050 	0.057108
33.09 	0.056242 	2347 	0.055743
33.11 	0.061652 	2579 	0.060970
33.13 	0.055854 	2793 	0.055434
33.15 	0.060353 	2999 	0.059572
33.17 	0.063418 	3201 	0.062320
33.19 	0.061341 	3342 	0.059763
33.21 	0.052386 	3436 	0.051023
33.23 	0.051377 	3523 	0.050878
33.25 	0.052879 	3612 	0.052393
33.27 	0.060606 	3630 	0.059799
33.29 	0.056743 	3648 	0.055941
33.31 	0.059016 	3660 	0.058056
33.33 	0.056158 	3686 	0.055205
33.35 	0.059556 	3694 	0.058763
33.37 	0.056543 	3714 	0.055596
33.39 	0.053634 	3729 	0.053005
33.41 	0.054813 	3740 	0.054030
33.43 	0.057697 	3761 	0.056919
33.45 	0.060164 	3773 	0.059388
33.47 	0.061611 	3798 	0.060377
33.49 	0.059858 	3809 	0.058935
33.51 	0.066055 	3815 	0.064980
33.53 	0.054413 	3841 	0.053345
33.55 	0.062711 	3843 	0.062254
33.57 	0.058035 	3877 	0.057430
33.59 	0.056443 	3880 	0.054783
33.61 	0.058583 	3909 	0.056635
33.63 	0.053585 	3919 	0.052838
33.65 	0.059781 	3931 	0.058863
33.67 	0.052099 	3954 	0.051655
33.69 	0.055401 	3953 	0.054660
33.71 	0.062138 	3975 	0.060959
33.73 	0.058442 	4004 	0.057417
33.75 	0.067517 	3999 	0.066199
33.77 	0.060621 	4025 	0.059748
33.79 	0.064093 	4041 	0.062330
33.81 	0.054978 	4038 	0.054543
33.83 	0.052840 	4050 	0.051393
33.85 	0.058307 	4099 	0.057592
33.87 	0.057164 	4111 	0.056166
33.89 	0.062121 	4121 	0.061126
33.91 	0.056158 	4149 	0.054887
33.93 	0.060226 	4151 	0.058674
33.95 	0.062425 	4181 	0.061024
33.97 	0.060143 	4190 	0.059444
33.99 	0.061905 	4200 	0.060487
34.01 	0.058628 	4213 	0.057655
34.03 	0.057022 	4244 	0.055365
34.05 	0.053857 	4252 	0.053146
34.07 	0.060684 	4268 	0.059723
34.09 	0.063229 	4286 	0.061703
34.11 	0.061367 	4302 	0.060822
34.13 	0.059192 	4308 	0.058104
34.15 	0.056800 	4331 	0.055988
34.17 	0.059310 	4350 	0.058502
34.19 	0.063961 	4362 	0.062619
34.21 	0.055136 	4371 	0.053796
34.23 	0.062600 	4393 	0.061533
34.25 	0.065622 	4404 	0.064292
34.27 	0.058118 	4422 	0.057324
34.29 	0.061330 	4435 	0.060384
34.31 	0.058098 	4458 	0.057178
34.33 	0.059495 	4471 	0.058708
34.35 	0.061329 	4484 	0.060545
34.37 	0.055444 	4491 	0.054662
34.39 	0.058641 	4502 	0.057860
34.41 	0.061423 	4526 	0.059870
34.43 	0.057722 	4539 	0.056819
34.45 	0.059316 	4535 	0.058154
34.47 	0.059016 	4592 	0.057995
34.49 	0.056341 	4597 	0.055173
34.51 	0.057751 	4606 	0.057115
34.53 	0.056860 	4643 	0.055977
34.55 	0.054706 	4643 	0.054075
34.57 	0.059442 	4660 	0.058688
34.59 	0.056043 	4675 	0.055291
34.61 	0.058122 	4697 	0.057374
34.63 	0.060085 	4710 	0.058966
34.65 	0.052531 	4721 	0.051663
34.67 	0.055263 	4741 	0.054151
34.69 	0.062053 	4754 	0.061314
34.71 	0.057910 	4766 	0.057296
34.73 	0.059327 	4787 	0.057859
34.75 	0.058652 	4808 	0.057556
34.77 	0.061436 	4818 	0.060707
34.79 	0.060116 	4824 	0.059145
34.81 	0.055934 	4845 	0.055450
34.83 	0.056150 	4862 	0.054583
34.85 	0.051756 	4869 	0.051154
34.87 	0.056491 	4868 	0.055529
34.89 	0.056329 	4882 	0.054870
34.91 	0.052028 	4882 	0.051188
34.93 	0.055726 	4899 	0.055247
34.95 	0.057260 	4890 	0.056781
34.97 	0.057936 	4902 	0.057458
34.99 	0.063100 	4897 	0.061525
35.01 	0.056673 	4923 	0.056316
35.03 	0.059883 	4943 	0.059172
35.05 	0.058621 	4947 	0.057200
35.07 	0.059312 	4940 	0.058363
35.09 	0.058348 	4953 	0.057402
35.11 	0.057611 	4947 	0.056427
35.13 	0.055668 	4958 	0.054368
35.15 	0.059955 	4937 	0.058650
35.17 	0.061262 	4946 	0.060077
35.19 	0.055645 	4942 	0.054105
35.21 	0.052174 	4945 	0.051108
35.23 	0.056825 	4945 	0.056233
35.25 	0.065547 	4943 	0.064481
35.27 	0.059822 	4948 	0.058993
35.29 	0.058645 	4945 	0.057204
35.31 	0.053112 	4933 	0.052637
35.33 	0.056443 	4943 	0.054666
35.35 	0.062930 	4942 	0.061626
35.37 	0.057906 	4939 	0.056720
35.39 	0.053994 	4945 	0.053165
35.41 	0.055826 	4926 	0.054637
35.43 	0.051895 	4933 	0.051183
35.45 	0.056512 	4937 	0.055069
35.47 	0.055770 	4931 	0.055057
35.49 	0.056823 	4910 	0.055988
35.51 	0.052984 	4926 	0.052746
35.53 	0.064255 	4949 	0.063190
35.55 	0.052578 	4945 	0.051019
35.57 	0.057166 	4933 	0.056572
35.59 	0.061274 	4945 	0.059852
35.61 	0.056455 	4942 	0.055862
35.63 	0.060692 	4943 	0.059033
35.65 	0.056825 	4945 	0.055759
35.67 	0.059895 	4942 	0.058591
35.69 	0.054590 	4946 	0.053859
35.71 	0.056107 	4937 	0.055158
35.73 	0.052269 	4936 	0.051320
35.75 	0.057189 	4931 	0.056476
35.77 	0.055746 	4951 	0.054662
35.79 	0.063058 	4932 	0.062107
35.81 	0.057166 	4933 	0.055979
35.83 	0.053983 	4946 	0.053036
35.85 	0.056940 	4935 	0.055971
35.87 	0.060938 	4923 	0.059392
35.89 	0.060803 	4934 	0.059615
35.91 	0.057642 	4927 	0.057285
35.93 	0.055409 	4927 	0.055052
35.95 	0.058166 	4917 	0.056855
35.97 	0.057818 	4912 	0.056864
35.99 	0.055679 	4939 	0.054849
36.01 	0.052738 	4930 	0.051907
36.03 	0.049767 	4943 	0.049056
36.05 	0.050961 	4945 	0.050250
36.07 	0.057502 	4939 	0.056296
36.09 	0.056680 	4940 	0.056087
36.11 	0.055589 	4929 	0.054857
36.13 	0.057062 	4942 	0.056588
36.15 	0.057502 	4939 	0.056908
36.17 	0.053604 	4925 	0.053247
36.19 	0.054049 	4940 	0.053080
36.21 	0.058024 	4929 	0.057311
36.23 	0.059372 	4935 	0.058541
36.25 	0.057073 	4941 	0.056481
36.27 	0.058274 	4925 	0.057917
36.29 	0.051511 	4931 	0.050917
36.31 	0.046266 	4928 	0.045434
36.33 	0.055342 	4933 	0.054510
36.35 	0.055386 	4929 	0.054436
36.37 	0.056063 	4923 	0.054992
36.39 	0.058321 	4921 	0.057012
36.41 	0.044730 	4896 	0.044013
36.43 	0.054789 	4928 	0.054313
36.45 	0.057404 	4930 	0.056334
36.47 	0.053687 	4936 	0.052975
36.49 	0.061514 	4942 	0.060802
36.51 	0.056963 	4933 	0.056251
36.53 	0.055837 	4943 	0.054888
36.55 	0.053785 	4927 	0.052458
36.57 	0.052696 	4934 	0.052102
36.59 	0.054667 	4939 	0.053936
36.61 	0.054958 	4931 	0.054483
36.63 	0.053336 	4931 	0.052267
36.65 	0.050892 	4932 	0.050298
36.67 	0.048682 	4930 	0.048325
36.69 	0.056604 	4929 	0.056128
36.71 	0.051209 	4921 	0.050376
36.73 	0.055838 	4925 	0.055243
36.75 	0.052387 	4944 	0.051320
36.77 	0.057125 	4919 	0.055815
36.79 	0.057509 	4921 	0.056794
36.81 	0.054109 	4916 	0.053037
36.83 	0.056562 	4915 	0.055350
36.85 	0.053083 	4898 	0.052485
36.87 	0.058657 	4944 	0.057709
36.89 	0.062246 	4916 	0.061154
36.91 	0.049787 	4941 	0.049076
36.93 	0.047059 	4930 	0.046346
36.95 	0.048855 	4933 	0.048380
36.97 	0.053101 	4934 	0.052032
36.99 	0.052077 	4935 	0.051246
37.01 	0.052504 	4933 	0.052029
37.03 	0.054630 	4924 	0.054392
37.05 	0.051959 	4927 	0.050770
37.07 	0.056130 	4935 	0.055417
37.09 	0.049513 	4928 	0.048562
37.11 	0.053293 	4935 	0.052106
37.13 	0.047522 	4924 	0.046908
37.15 	0.051742 	4909 	0.051264
37.17 	0.052898 	4934 	0.052423
37.19 	0.049340 	4925 	0.048508
37.21 	0.054505 	4917 	0.053294
37.23 	0.055714 	4918 	0.053927
37.25 	0.050906 	4911 	0.050310
37.27 	0.053331 	4894 	0.051775
37.29 	0.050304 	4930 	0.049453
37.31 	0.053698 	4935 	0.052986
37.33 	0.052365 	4927 	0.051294
37.35 	0.048198 	4938 	0.047723
37.37 	0.047493 	4927 	0.046899
37.39 	0.052322 	4931 	0.051728
37.41 	0.051105 	4931 	0.050392
37.43 	0.048459 	4932 	0.047746
37.45 	0.051990 	4924 	0.051019
37.47 	0.048286 	4929 	0.048048
37.49 	0.053016 	4923 	0.052184
37.51 	0.052504 	4933 	0.051910
37.53 	0.051637 	4919 	0.050207
37.55 	0.050304 	4930 	0.049473
37.57 	0.050761 	4925 	0.049453
37.59 	0.049440 	4915 	0.049083
37.61 	0.051808 	4922 	0.051094
37.63 	0.051840 	4919 	0.051483
37.65 	0.056730 	4918 	0.055301
37.67 	0.045473 	4904 	0.045115
37.69 	0.059004 	4898 	0.058406
37.71 	0.050720 	4929 	0.050007
37.73 	0.051329 	4929 	0.050497
37.75 	0.052632 	4940 	0.051920
37.77 	0.055691 	4920 	0.054500
37.79 	0.048682 	4930 	0.048206
37.81 	0.053720 	4933 	0.052532
37.83 	0.050610 	4920 	0.050014
37.85 	0.051605 	4922 	0.051248
37.87 	0.053655 	4939 	0.053180
37.89 	0.049137 	4925 	0.048542
37.91 	0.048682 	4930 	0.048206
37.93 	0.049197 	4919 	0.048840
37.95 	0.050803 	4921 	0.050327
37.97 	0.050720 	4929 	0.050245
37.99 	0.050489 	4912 	0.049892
38.01 	0.051542 	4928 	0.050948
38.03 	0.050723 	4909 	0.050127
38.05 	0.054213 	4925 	0.053618
38.07 	0.052149 	4909 	0.051194
38.09 	0.058426 	4878 	0.056845
38.11 	0.052685 	4935 	0.051379
38.13 	0.053474 	4937 	0.052525
38.15 	0.051850 	4918 	0.051017
38.17 	0.058215 	4930 	0.057383
38.19 	0.051927 	4930 	0.051571
38.21 	0.051798 	4923 	0.051084
38.23 	0.051033 	4938 	0.050321
38.25 	0.056335 	4917 	0.055739
38.27 	0.055984 	4930 	0.054657
38.29 	0.047725 	4924 	0.047131
38.31 	0.054800 	4927 	0.053492
38.33 	0.054833 	4924 	0.054120
38.35 	0.057224 	4928 	0.056154
38.37 	0.055849 	4924 	0.055016
38.39 	0.065390 	4909 	0.064674
38.41 	0.056876 	4923 	0.056281
38.43 	0.059805 	4916 	0.058355
38.45 	0.065474 	4918 	0.064759
38.47 	0.062564 	4907 	0.061131
38.49 	0.058643 	4877 	0.057682
38.51 	0.057989 	4932 	0.057276
38.53 	0.056807 	4929 	0.055618
38.55 	0.065438 	4936 	0.063776
38.57 	0.053423 	4923 	0.052828
38.59 	0.060317 	4924 	0.058889
38.61 	0.062399 	4936 	0.060856
38.63 	0.060317 	4924 	0.058889
38.65 	0.056120 	4918 	0.055048
38.67 	0.049625 	4937 	0.048419
38.69 	0.058106 	4922 	0.056916
38.71 	0.051584 	4924 	0.050751
38.73 	0.051240 	4918 	0.050526
38.75 	0.054191 	4927 	0.053478
38.77 	0.053016 	4923 	0.052065
38.79 	0.050669 	4934 	0.050075
38.81 	0.055985 	4912 	0.054674
38.83 	0.048384 	4919 	0.047907
38.85 	0.051710 	4912 	0.050637
38.87 	0.052942 	4911 	0.051988
38.89 	0.054932 	4897 	0.053975
38.91 	0.047930 	4903 	0.047213
38.93 	0.051640 	4938 	0.051166
38.95 	0.047987 	4918 	0.047272
38.97 	0.045630 	4931 	0.045273
38.99 	0.050233 	4937 	0.049165
39.01 	0.050020 	4918 	0.049544
39.03 	0.044183 	4934 	0.043827
39.05 	0.052995 	4925 	0.052162
39.07 	0.048944 	4924 	0.048230
39.09 	0.053423 	4923 	0.052471
39.11 	0.051308 	4931 	0.050476
39.13 	0.046110 	4923 	0.045634
39.15 	0.046999 	4915 	0.046284
39.17 	0.050233 	4937 	0.049284
39.19 	0.051658 	4917 	0.051181
39.21 	0.045621 	4910 	0.044786
39.23 	0.045076 	4925 	0.044600
39.25 	0.044088 	4922 	0.043374
39.27 	0.045214 	4910 	0.045095
39.29 	0.050398 	4901 	0.050039
39.31 	0.052416 	4884 	0.051217
39.33 	0.048672 	4931 	0.047840
39.35 	0.042756 	4935 	0.042518
39.37 	0.049706 	4929 	0.049112
39.39 	0.043822 	4929 	0.043327
39.41 	0.045021 	4931 	0.043833
39.43 	0.043381 	4933 	0.042669
39.45 	0.052792 	4925 	0.052435
39.47 	0.043469 	4923 	0.043231
39.49 	0.041354 	4933 	0.041235
39.51 	0.043258 	4924 	0.042425
39.53 	0.047938 	4923 	0.047462
39.55 	0.043708 	4919 	0.043232
39.57 	0.049666 	4933 	0.049309
39.59 	0.043974 	4912 	0.043378
39.61 	0.047329 	4923 	0.046496
39.63 	0.048964 	4922 	0.048012
39.65 	0.044052 	4926 	0.042943
39.67 	0.046204 	4913 	0.045131
39.69 	0.045362 	4916 	0.044885
39.71 	0.046170 	4895 	0.045332
39.73 	0.046455 	4908 	0.045500
39.75 	0.047078 	4928 	0.046840
39.77 	0.044985 	4935 	0.044273
39.79 	0.047706 	4926 	0.046993
39.81 	0.039781 	4927 	0.039662
39.83 	0.045197 	4934 	0.044840
39.85 	0.050741 	4927 	0.049790
39.87 	0.048122 	4925 	0.047408
39.89 	0.048439 	4934 	0.048083
39.91 	0.054043 	4922 	0.053567
39.93 	0.050841 	4937 	0.050010
39.95 	0.045778 	4915 	0.045301
39.97 	0.048701 	4928 	0.048107
39.99 	0.046229 	4932 	0.045516
40.01 	0.040870 	4918 	0.040156
40.03 	0.046469 	4928 	0.045875
40.05 	0.053285 	4917 	0.052927
40.07 	0.045094 	4923 	0.044143
40.09 	0.047396 	4916 	0.046662
40.11 	0.047396 	4916 	0.046800
40.13 	0.047181 	4896 	0.046703
40.15 	0.044169 	4913 	0.043811
40.17 	0.045657 	4928 	0.045301
40.19 	0.048083 	4929 	0.047489
40.21 	0.052280 	4935 	0.050974
40.23 	0.042579 	4932 	0.042223
40.25 	0.046545 	4920 	0.046068
40.27 	0.045574 	4937 	0.044862
40.29 	0.040999 	4927 	0.040285
40.31 	0.048795 	4939 	0.048202
40.33 	0.041971 	4932 	0.041377
40.35 	0.046757 	4919 	0.046281
40.37 	0.046663 	4929 	0.045831
40.39 	0.046238 	4931 	0.045644
40.41 	0.046497 	4925 	0.045427
40.43 	0.049167 	4922 	0.048195
40.45 	0.043179 	4933 	0.042229
40.47 	0.052257 	4918 	0.051661
40.49 	0.046488 	4926 	0.046131
40.51 	0.042259 	4922 	0.041545
40.53 	0.048007 	4916 	0.047649
40.55 	0.043195 	4908 	0.042837
40.57 	0.043354 	4890 	0.043114
40.59 	0.043954 	4937 	0.043717
40.61 	0.042958 	4935 	0.042246
40.63 	0.042394 	4930 	0.041681
40.65 	0.039903 	4937 	0.039072
40.67 	0.045418 	4932 	0.044943
40.69 	0.041726 	4937 	0.041370
40.71 	0.044201 	4932 	0.043964
40.73 	0.042428 	4926 	0.041714
40.75 	0.044413 	4931 	0.043819
40.77 	0.044138 	4939 	0.044020
40.79 	0.049553 	4924 	0.048463
40.81 	0.045942 	4941 	0.045231
40.83 	0.043425 	4928 	0.042950
40.85 	0.044476 	4924 	0.044000
40.87 	0.041396 	4928 	0.041158
40.89 	0.047860 	4931 	0.047148
40.91 	0.042657 	4923 	0.042419
40.93 	0.045399 	4934 	0.045281
40.95 	0.042133 	4913 	0.041298
40.97 	0.040211 	4924 	0.039478
40.99 	0.045288 	4924 	0.045050
41.01 	0.046621 	4912 	0.045666
41.03 	0.048114 	4905 	0.047039
41.05 	0.044976 	4936 	0.044026
41.07 	0.043813 	4930 	0.043100
41.09 	0.042519 	4939 	0.041807
41.11 	0.044985 	4935 	0.044747
41.13 	0.043558 	4936 	0.043439
41.15 	0.046347 	4941 	0.045754
41.17 	0.041548 	4934 	0.041311
41.19 	0.040771 	4930 	0.040296
41.21 	0.045777 	4937 	0.044472
41.23 	0.042924 	4939 	0.042331
41.25 	0.042773 	4933 	0.042179
41.27 	0.037112 	4931 	0.036637
41.29 	0.041802 	4928 	0.041208
41.31 	0.041760 	4933 	0.041403
41.33 	0.042333 	4937 	0.041621
41.35 	0.037870 	4938 	0.037395
41.37 	0.041024 	4924 	0.040310
41.39 	0.044598 	4933 	0.044004
41.41 	0.041616 	4926 	0.040902
41.43 	0.042199 	4929 	0.041367
41.45 	0.042125 	4914 	0.041648
41.47 	0.042225 	4926 	0.041868
41.49 	0.042723 	4892 	0.042483
41.51 	0.043117 	4940 	0.043117
41.53 	0.042273 	4944 	0.041918
41.55 	0.045187 	4935 	0.045069
41.57 	0.044121 	4941 	0.043528
41.59 	0.038719 	4933 	0.038244
41.61 	0.045831 	4953 	0.044766
41.63 	0.043540 	4938 	0.043065
41.65 	0.038750 	4929 	0.038631
41.67 	0.042105 	4940 	0.041750
41.69 	0.042248 	4947 	0.041163
41.71 	0.042764 	4934 	0.041914
41.73 	0.040113 	4936 	0.039876
41.75 	0.039156 	4929 	0.038681
41.77 	0.044728 	4941 	0.044609
41.79 	0.038633 	4944 	0.038396
41.81 	0.043963 	4936 	0.043369
41.83 	0.038352 	4928 	0.037996
41.85 	0.045961 	4939 	0.045605
41.87 	0.045795 	4935 	0.045558
41.89 	0.042976 	4933 	0.042501
41.91 	0.045583 	4936 	0.044733
41.93 	0.040552 	4932 	0.040195
41.95 	0.040965 	4931 	0.040609
41.97 	0.042328 	4914 	0.041494
41.99 	0.041998 	4905 	0.041640
42.01 	0.044314 	4942 	0.043840
42.03 	0.044138 	4939 	0.043664
42.05 	0.041397 	4952 	0.041043
42.07 	0.041523 	4937 	0.040693
42.09 	0.043856 	4948 	0.043501
42.11 	0.046512 	4945 	0.045919
42.13 	0.046107 	4945 	0.045160
42.15 	0.042325 	4938 	0.042088
42.17 	0.042090 	4918 	0.041495
42.19 	0.038509 	4908 	0.037653
42.21 	0.044481 	4901 	0.044003
42.23 	0.043745 	4892 	0.043505
42.25 	0.044181 	4889 	0.043941
42.27 	0.045548 	4874 	0.045307
42.29 	0.039687 	4863 	0.039447
42.31 	0.045314 	4855 	0.045193
42.33 	0.041787 	4834 	0.041545
42.35 	0.035345 	4838 	0.035103
42.37 	0.039545 	4830 	0.039181
42.39 	0.045379 	4804 	0.045135
42.41 	0.039967 	4804 	0.038991
42.43 	0.042154 	4792 	0.041665
42.45 	0.037060 	4776 	0.036570
42.47 	0.040714 	4765 	0.039853
42.49 	0.041343 	4765 	0.040831
42.51 	0.042378 	4743 	0.041884
42.53 	0.037648 	4728 	0.037029
42.55 	0.040782 	4708 	0.040284
42.57 	0.043129 	4730 	0.042757
42.59 	0.037217 	4729 	0.035978
42.61 	0.044393 	4708 	0.043770
42.63 	0.037588 	4709 	0.037339
42.65 	0.038634 	4685 	0.038384
42.67 	0.042058 	4684 	0.041683
42.69 	0.039581 	4674 	0.038829
42.71 	0.043534 	4663 	0.042906
42.73 	0.037931 	4640 	0.037805
42.75 	0.041152 	4617 	0.040645
42.77 	0.041304 	4600 	0.041177
42.79 	0.045613 	4582 	0.044974
42.81 	0.043621 	4562 	0.042851
42.83 	0.038580 	4536 	0.038451
42.85 	0.036882 	4528 	0.036623
42.87 	0.044232 	4499 	0.043841
42.89 	0.040402 	4480 	0.040010
42.91 	0.036355 	4456 	0.036224
42.93 	0.043635 	4446 	0.042976
42.95 	0.040761 	4416 	0.040496
42.97 	0.047944 	4401 	0.047012
42.99 	0.041733 	4385 	0.041466
43.01 	0.041714 	4363 	0.041177
43.03 	0.039234 	4333 	0.038828
43.05 	0.038844 	4325 	0.038573
43.07 	0.045857 	4296 	0.044493
43.09 	0.038758 	4283 	0.038348
43.11 	0.039013 	4255 	0.038600
43.13 	0.038707 	4237 	0.038154
43.15 	0.043985 	4206 	0.043428
43.17 	0.044508 	4179 	0.044088
43.19 	0.045303 	4194 	0.044884
43.21 	0.039070 	4172 	0.038789
43.23 	0.041887 	4154 	0.041605
43.25 	0.036759 	4135 	0.036618
43.27 	0.040438 	4105 	0.040010
43.29 	0.044878 	4100 	0.043997
43.31 	0.042903 	4079 	0.042615
43.33 	0.036781 	4051 	0.036347
43.35 	0.044147 	4032 	0.043856
43.37 	0.034371 	4015 	0.034079
43.39 	0.040230 	4002 	0.039644
43.41 	0.043807 	3972 	0.043217
43.43 	0.039141 	3960 	0.038106
43.45 	0.035578 	3935 	0.035132
43.47 	0.042081 	3921 	0.041334
43.49 	0.045933 	3897 	0.045181
43.51 	0.036626 	3877 	0.036324
43.53 	0.043490 	3863 	0.042883
43.55 	0.034076 	2964 	0.034076
43.57 	0.039768 	2238 	0.039244
43.59 	0.031501 	1746 	0.030830
43.61 	0.042191 	1351 	0.042191
43.63 	0.037962 	1001 	0.037377
43.65 	0.042213 	687 	0.041360
43.67 	0.043825 	502 	0.043825
43.69 	0.062670 	367 	0.062670
43.71 	0.033473 	239 	0.033473
43.73 	0.041667 	120 	0.041667
43.75 	0.125000 	16 	0.125000