File: Example_Data/25SC_s1_0015.001.dat
#F C:\frames\spec\25SC_s1_0015.001
#C title =s:15 frm:1 25SC_s1
#C wavelength =0.15406

#S 1  fr_average C:\frames\spec\25SC_s1_0015.001 C:\win32app\speccom\mask.axs chi 0 180 0 360 0.02
#C 2 theta =0.000000 to 180 deg
#C   q   =0.000000 to 81.568 nm^-1
#C  chi  =0.000000 to 360 deg
#C collumns:
#C  1 position (2theta or chi in degrees)
#C  2 average intensity (sum of all counts in the region divided with number of pixels)
#C  3 Number of pixels in region)
#C  4 error (sum of sqrt(intensity) for all pixels divided by number)
#N 4
#L TTh  Int  N_pix  Err
32.99 	0.131148 	61 	0.131148
33.01 	0.068729 	873 	0.067276
33.03 	0.057513 	1391 	0.057091
33.05 	0.054639 	1757 	0.053638
33.07 	0.060488 	2050 	0.060202
33.09 	0.048999 	2347 	0.048000
33.11 	0.057387 	2579 	0.055305
33.13 	0.054780 	2793 	0.053521
33.15 	0.062021 	2999 	0.059417
33.17 	0.054358 	3201 	0.053809
33.19 	0.057151 	3342 	0.056450
33.21 	0.051804 	3436 	0.050782
33.23 	0.064150 	3523 	0.063152
33.25 	0.058693 	3612 	0.057531
33.27 	0.060055 	3630 	0.059087
33.29 	0.060307 	3648 	0.059504
33.31 	0.059290 	3660 	0.058649
33.33 	0.053174 	3686 	0.051426
33.35 	0.057932 	3694 	0.057139
33.37 	0.062197 	3714 	0.061408
33.39 	0.061142 	3729 	0.059729
33.41 	0.062567 	3740 	0.062097
33.43 	0.065674 	3761 	0.064117
33.45 	0.057249 	3773 	0.056007
33.47 	0.059768 	3798 	0.059151
33.49 	0.057495 	3809 	0.056419
33.51 	0.055832 	3815 	0.054757
33.53 	0.063004 	3841 	0.061124
33.55 	0.065834 	3843 	0.064589
33.57 	0.057519 	3877 	0.056461
33.59 	0.064175 	3880 	0.062665
33.61 	0.058327 	3909 	0.057877
33.63 	0.059964 	3919 	0.057673
33.65 	0.061816 	3931 	0.060475
33.67 	0.054628 	3954 	0.053591
33.69 	0.060460 	3953 	0.059275
33.71 	0.061384 	3975 	0.060205
33.73 	0.063187 	4004 	0.062455
33.75 	0.058265 	3999 	0.057825
33.77 	0.064348 	4025 	0.063911
33.79 	0.056917 	4041 	0.055588
33.81 	0.059931 	4038 	0.059350
33.83 	0.063951 	4050 	0.062938
33.85 	0.053672 	4099 	0.053100
33.87 	0.062029 	4111 	0.061031
33.89 	0.064062 	4121 	0.062925
33.91 	0.060255 	4149 	0.059408
33.93 	0.055408 	4151 	0.054256
33.95 	0.061229 	4181 	0.060109
33.97 	0.057757 	4190 	0.056359
33.99 	0.063333 	4200 	0.062078
34.01 	0.064325 	4213 	0.063212
34.03 	0.059378 	4244 	0.058412
34.05 	0.052916 	4252 	0.051814
34.07 	0.059044 	4268 	0.058061
34.09 	0.062529 	4286 	0.061436
34.11 	0.063691 	4302 	0.062466
34.13 	0.063603 	4308 	0.062628
34.15 	0.060725 	4331 	0.059913
34.17 	0.065287 	4350 	0.063649
34.19 	0.060293 	4362 	0.059622
34.21 	0.058568 	4371 	0.057898
34.23 	0.060323 	4393 	0.059657
34.25 	0.055631 	4404 	0.054434
34.27 	0.059249 	4422 	0.057925
34.29 	0.063134 	4435 	0.061681
34.31 	0.063257 	4458 	0.061812
34.33 	0.058600 	4471 	0.057552
34.35 	0.057538 	4484 	0.056471
34.37 	0.050768 	4491 	0.050116
34.39 	0.055531 	4502 	0.054620
34.41 	0.059434 	4526 	0.058787
34.43 	0.060806 	4539 	0.059624
34.45 	0.059757 	4535 	0.059112
34.47 	0.052483 	4592 	0.051590
34.49 	0.064607 	4597 	0.063588
34.51 	0.057099 	4606 	0.056591
34.53 	0.060952 	4643 	0.059564
34.55 	0.063752 	4643 	0.062112
34.57 	0.058798 	4660 	0.057667
34.59 	0.059465 	4675 	0.058192
34.61 	0.055142 	4697 	0.054144
34.63 	0.060934 	4710 	0.059566
34.65 	0.056556 	4721 	0.054922
34.67 	0.059692 	4741 	0.058951
34.69 	0.050905 	4754 	0.050535
34.71 	0.059589 	4766 	0.057725
34.73 	0.057865 	4787 	0.056274
34.75 	0.061980 	4808 	0.060498
34.77 	0.055625 	4818 	0.054652
34.79 	0.059080 	4824 	0.058472
34.81 	0.053664 	4845 	0.053180
34.83 	0.055533 	4862 	0.054188
34.85 	0.061614 	4869 	0.060993
34.87 	0.057313 	4868 	0.056110
34.89 	0.061245 	4882 	0.060405
34.91 	0.060836 	4882 	0.059756
34.93 	0.056134 	4899 	0.054938
34.95 	0.064213 	4890 	0.062875
34.97 	0.053652 	4902 	0.052935
34.99 	0.059424 	4897 	0.058108
35.01 	0.059313 	4923 	0.058362
35.03 	0.056039 	4943 	0.055209
35.05 	0.055185 	4947 	0.054593
35.07 	0.052632 	4940 	0.051564
35.09 	0.063598 	4953 	0.061706
35.11 	0.052961 	4947 	0.052369
35.13 	0.059298 	4958 	0.058589
35.15 	0.058335 	4937 	0.057742
35.17 	0.060049 	4946 	0.058608
35.19 	0.061514 	4942 	0.060684
35.21 	0.061476 	4945 	0.060864
35.23 	0.059858 	4945 	0.058437
35.25 	0.059680 	4943 	0.058713
35.27 	0.055578 	4948 	0.054986
35.29 	0.054398 	4945 	0.054161
35.31 	0.054328 	4933 	0.053497
35.33 	0.059680 	4943 	0.058969
35.35 	0.058883 	4942 	0.057816
35.37 	0.049808 	4939 	0.049195
35.39 	0.061274 	4945 	0.060208
35.41 	0.058871 	4926 	0.057900
35.43 	0.058990 	4933 	0.057803
35.45 	0.056715 	4937 	0.055291
35.47 	0.061854 	4931 	0.060428
35.49 	0.058452 	4910 	0.057140
35.51 	0.051360 	4926 	0.050766
35.53 	0.055163 	4949 	0.053979
35.55 	0.056421 	4945 	0.055118
35.57 	0.055342 	4933 	0.054748
35.59 	0.057230 	4945 	0.056637
35.61 	0.048159 	4942 	0.047210
35.63 	0.052195 	4943 	0.051721
35.65 	0.055207 	4945 	0.054615
35.67 	0.059895 	4942 	0.058947
35.69 	0.061262 	4946 	0.060196
35.71 	0.055904 	4937 	0.055192
35.73 	0.059562 	4936 	0.058613
35.75 	0.059826 	4931 	0.058499
35.77 	0.059786 	4951 	0.058839
35.79 	0.056569 	4932 	0.056094
35.81 	0.055747 	4933 	0.054916
35.83 	0.059442 	4946 	0.057902
35.85 	0.053698 	4935 	0.052986
35.87 	0.056470 	4923 	0.055637
35.89 	0.058979 	4934 	0.057791
35.91 	0.057642 	4927 	0.056809
35.93 	0.065354 	4927 	0.064165
35.95 	0.058776 	4917 	0.058180
35.97 	0.060057 	4912 	0.059222
35.99 	0.062361 	4939 	0.061412
36.01 	0.057404 	4930 	0.056097
36.03 	0.062310 	4943 	0.061244
36.05 	0.051769 	4945 	0.050822
36.07 	0.063981 	4939 	0.062557
36.09 	0.058300 	4940 	0.057094
36.11 	0.055589 	4929 	0.054995
36.13 	0.062525 	4942 	0.060708
36.15 	0.058311 	4939 	0.057363
36.17 	0.060508 	4925 	0.059913
36.19 	0.056883 	4940 	0.055578
36.21 	0.051329 	4929 	0.050497
36.23 	0.055117 	4935 	0.054147
36.25 	0.061324 	4941 	0.060138
36.27 	0.059695 	4925 	0.058744
36.29 	0.055770 	4931 	0.054582
36.31 	0.061485 	4928 	0.060534
36.33 	0.065883 	4933 	0.064220
36.35 	0.068168 	4929 	0.066623
36.37 	0.055251 	4923 	0.054894
36.39 	0.060963 	4921 	0.059991
36.41 	0.057802 	4896 	0.056965
36.43 	0.058644 	4928 	0.056861
36.45 	0.065517 	4930 	0.063973
36.47 	0.064425 	4936 	0.063357
36.49 	0.062930 	4942 	0.061745
36.51 	0.064869 	4933 	0.063207
36.53 	0.051993 	4943 	0.050926
36.55 	0.062310 	4927 	0.060764
36.57 	0.058168 	4934 	0.057337
36.59 	0.059931 	4939 	0.058152
36.61 	0.058812 	4931 	0.057742
36.63 	0.062056 	4931 	0.061106
36.65 	0.061841 	4932 	0.060416
36.67 	0.057404 	4930 	0.056334
36.69 	0.064110 	4929 	0.063041
36.71 	0.062386 	4921 	0.061195
36.73 	0.051777 	4925 	0.050687
36.75 	0.059668 	4944 	0.058246
36.77 	0.063631 	4919 	0.062559
36.79 	0.057712 	4921 	0.057355
36.81 	0.060212 	4916 	0.059258
36.83 	0.055544 	4915 	0.053856
36.85 	0.056962 	4898 	0.056603
36.87 	0.057039 	4944 	0.056565
36.89 	0.053295 	4916 	0.053057
36.91 	0.058288 	4941 	0.057102
36.93 	0.060852 	4930 	0.060258
36.95 	0.061423 	4933 	0.060691
36.97 	0.061411 	4934 	0.059986
36.99 	0.055319 	4935 	0.054607
37.01 	0.062031 	4933 	0.060725
37.03 	0.059708 	4924 	0.058280
37.05 	0.056221 	4927 	0.055032
37.07 	0.057548 	4935 	0.056599
37.09 	0.063515 	4928 	0.061375
37.11 	0.061803 	4935 	0.060379
37.13 	0.063566 	4924 	0.062357
37.15 	0.060501 	4909 	0.059427
37.17 	0.055533 	4934 	0.054939
37.19 	0.056041 	4925 	0.054851
37.21 	0.054912 	4917 	0.054554
37.23 	0.055714 	4918 	0.054999
37.25 	0.059866 	4911 	0.059388
37.27 	0.064978 	4894 	0.063881
37.29 	0.058621 	4930 	0.057908
37.31 	0.058764 	4935 	0.057577
37.33 	0.059874 	4927 	0.058566
37.35 	0.058323 	4938 	0.057256
37.37 	0.059468 	4927 	0.057804
37.39 	0.058203 	4931 	0.057134
37.41 	0.061854 	4931 	0.060666
37.43 	0.063666 	4932 	0.062241
37.45 	0.060926 	4924 	0.059261
37.47 	0.062487 	4929 	0.061418
37.49 	0.060735 	4923 	0.060021
37.51 	0.055747 	4933 	0.054678
37.53 	0.054483 	4919 	0.053292
37.55 	0.056998 	4930 	0.056047
37.57 	0.056041 	4925 	0.055208
37.59 	0.059207 	4915 	0.058134
37.61 	0.051605 	4922 	0.050891
37.63 	0.062411 	4919 	0.061220
37.65 	0.054697 	4918 	0.054101
37.67 	0.064029 	4904 	0.063074
37.69 	0.057983 	4898 	0.056787
37.71 	0.055995 	4929 	0.055044
37.73 	0.058227 	4929 	0.057395
37.75 	0.049190 	4940 	0.048360
37.77 	0.057114 	4920 	0.056042
37.79 	0.055984 	4930 	0.055390
37.81 	0.054328 	4933 	0.053497
37.83 	0.053455 	4920 	0.052979
37.85 	0.057091 	4922 	0.055781
37.87 	0.059324 	4939 	0.057307
37.89 	0.052589 	4925 	0.051994
37.91 	0.053550 	4930 	0.052124
37.93 	0.055296 	4919 	0.054105
37.95 	0.055273 	4921 	0.054321
37.97 	0.049909 	4929 	0.049433
37.99 	0.061889 	4912 	0.060697
38.01 	0.054383 	4928 	0.053551
38.03 	0.057242 	4909 	0.056406
38.05 	0.054213 	4925 	0.053262
38.07 	0.052149 	4909 	0.051672
38.09 	0.059246 	4878 	0.057905
38.11 	0.056130 	4935 	0.055061
38.13 	0.054892 	4937 	0.053705
38.15 	0.051647 	4918 	0.050694
38.17 	0.055781 	4930 	0.054811
38.19 	0.058215 	4930 	0.057621
38.21 	0.056063 	4923 	0.055330
38.23 	0.059336 	4938 	0.058149
38.25 	0.058776 	4917 	0.058041
38.27 	0.052130 	4930 	0.051655
38.29 	0.049553 	4924 	0.049315
38.31 	0.055409 	4927 	0.054696
38.33 	0.050569 	4924 	0.049617
38.35 	0.064123 	4928 	0.063054
38.37 	0.053818 	4924 	0.052747
38.39 	0.057038 	4909 	0.055825
38.41 	0.064595 	4923 	0.063167
38.43 	0.061839 	4916 	0.060766
38.45 	0.059984 	4918 	0.058554
38.47 	0.060526 	4907 	0.060168
38.49 	0.066024 	4877 	0.064703
38.51 	0.067924 	4932 	0.067092
38.53 	0.066545 	4929 	0.065119
38.55 	0.068071 	4936 	0.066252
38.57 	0.066423 	4923 	0.064737
38.59 	0.074127 	4924 	0.072223
38.61 	0.066045 	4936 	0.064720
38.63 	0.066613 	4924 	0.064908
38.65 	0.079911 	4918 	0.077767
38.67 	0.077983 	4937 	0.076321
38.69 	0.075173 	4922 	0.073606
38.71 	0.066613 	4924 	0.065542
38.73 	0.072387 	4918 	0.070720
38.75 	0.070428 	4927 	0.069239
38.77 	0.069470 	4923 	0.068042
38.79 	0.070936 	4934 	0.069868
38.81 	0.066572 	4912 	0.065498
38.83 	0.065664 	4919 	0.064592
38.85 	0.065554 	4912 	0.064719
38.87 	0.071472 	4911 	0.069544
38.89 	0.073310 	4897 	0.071496
38.91 	0.064654 	4903 	0.063460
38.93 	0.059538 	4938 	0.058471
38.95 	0.064660 	4918 	0.063469
38.97 	0.060231 	4931 	0.059518
38.99 	0.066032 	4937 	0.064727
39.01 	0.051850 	4918 	0.051017
39.03 	0.052696 	4934 	0.052221
39.05 	0.054010 	4925 	0.053653
39.07 	0.047725 	4924 	0.047012
39.09 	0.050782 	4923 	0.050425
39.11 	0.053133 	4931 	0.052896
39.13 	0.054845 	4923 	0.053893
39.15 	0.049440 	4915 	0.048845
39.17 	0.047397 	4937 	0.046923
39.19 	0.049624 	4917 	0.048790
39.21 	0.050102 	4910 	0.049147
39.23 	0.051574 	4925 	0.051098
39.25 	0.048761 	4922 	0.048166
39.27 	0.053768 	4910 	0.052455
39.29 	0.048562 	4901 	0.047844
39.31 	0.043612 	4884 	0.043012
39.33 	0.044616 	4931 	0.043903
39.35 	0.053293 	4935 	0.052818
39.37 	0.050720 	4929 	0.049888
39.39 	0.042808 	4929 	0.042095
39.41 	0.045224 	4931 	0.044630
39.43 	0.051895 	4933 	0.051183
39.45 	0.043249 	4925 	0.042773
39.47 	0.044079 	4923 	0.043365
39.49 	0.047841 	4933 	0.047129
39.51 	0.044070 	4924 	0.043693
39.53 	0.049970 	4923 	0.049375
39.55 	0.044318 	4919 	0.043961
39.57 	0.040746 	4933 	0.040271
39.59 	0.041735 	4912 	0.041496
39.61 	0.049970 	4923 	0.049375
39.63 	0.050996 	4922 	0.050519
39.65 	0.048721 	4926 	0.048364
39.67 	0.047832 	4913 	0.047236
39.69 	0.039056 	4916 	0.038818
39.71 	0.048417 	4895 	0.047938
39.73 	0.049104 	4908 	0.048029
39.75 	0.045860 	4928 	0.045385
39.77 	0.047416 	4935 	0.046704
39.79 	0.046894 	4926 	0.046181
39.81 	0.049523 	4927 	0.049047
39.83 	0.048439 	4934 	0.047727
39.85 	0.045261 	4927 	0.044785
39.87 	0.044467 	4925 	0.043159
39.89 	0.050872 	4934 	0.050278
39.91 	0.040228 	4922 	0.039871
39.93 	0.041523 	4937 	0.040930
39.95 	0.042726 	4915 	0.042250
39.97 	0.050122 	4928 	0.049171
39.99 	0.038929 	4932 	0.038454
40.01 	0.046564 	4918 	0.045968
40.03 	0.044643 	4928 	0.044405
40.05 	0.043319 	4917 	0.042485
40.07 	0.045094 	4923 	0.044381
40.09 	0.044955 	4916 	0.044121
40.11 	0.044955 	4916 	0.044717
40.13 	0.048815 	4896 	0.048097
40.15 	0.042947 	4913 	0.042709
40.17 	0.042411 	4928 	0.041935
40.19 	0.040779 	4929 	0.040066
40.21 	0.040324 	4935 	0.039731
40.23 	0.049473 	4932 	0.048998
40.25 	0.040447 	4920 	0.039971
40.27 	0.043751 	4937 	0.043514
40.29 	0.046276 	4927 	0.045324
40.31 	0.037255 	4939 	0.036543
40.33 	0.046229 	4932 	0.045754
40.35 	0.041472 	4919 	0.040996
40.37 	0.045242 	4929 	0.044529
40.39 	0.044210 	4931 	0.043735
40.41 	0.044061 	4925 	0.043585
40.43 	0.040634 	4922 	0.040277
40.45 	0.044395 	4933 	0.043682
40.47 	0.042904 	4918 	0.042070
40.49 	0.043240 	4926 	0.042883
40.51 	0.040431 	4922 	0.040193
40.53 	0.042718 	4916 	0.042241
40.55 	0.039324 	4908 	0.038846
40.57 	0.041922 	4890 	0.041204
40.59 	0.045169 	4937 	0.044695
40.61 	0.044174 	4935 	0.043818
40.63 	0.041785 	4930 	0.041191
40.65 	0.041523 	4937 	0.040693
40.67 	0.040754 	4932 	0.039923
40.69 	0.041321 	4937 	0.040490
40.71 	0.042376 	4932 	0.041664
40.73 	0.038977 	4926 	0.038501
40.75 	0.045021 	4931 	0.044309
40.77 	0.044341 	4939 	0.043985
40.79 	0.042039 	4924 	0.041682
40.81 	0.044728 	4941 	0.043779
40.83 	0.042411 	4928 	0.042054
40.85 	0.038587 	4924 	0.038111
40.87 	0.044440 	4928 	0.043113
40.89 	0.040357 	4931 	0.040001
40.91 	0.046516 	4923 	0.045921
40.93 	0.048642 	4934 	0.048167
40.95 	0.041319 	4913 	0.040961
40.97 	0.038383 	4924 	0.038145
40.99 	0.040617 	4924 	0.040142
41.01 	0.046621 	4912 	0.046382
41.03 	0.038736 	4905 	0.038497
41.05 	0.038290 	4936 	0.038171
41.07 	0.037931 	4930 	0.037693
41.09 	0.045151 	4939 	0.044439
41.11 	0.042958 	4935 	0.042602
41.13 	0.038898 	4936 	0.038186
41.15 	0.037847 	4941 	0.037254
41.17 	0.040130 	4934 	0.039417
41.19 	0.040162 	4930 	0.039687
41.21 	0.041726 	4937 	0.040757
41.23 	0.040089 	4939 	0.039615
41.25 	0.036894 	4933 	0.036419
41.27 	0.043805 	4931 	0.043211
41.29 	0.045657 	4928 	0.045044
41.31 	0.046017 	4933 	0.045542
41.33 	0.041928 	4937 	0.041335
41.35 	0.037262 	4938 	0.036906
41.37 	0.041430 	4924 	0.041311
41.39 	0.041962 	4933 	0.041725
41.41 	0.043240 	4926 	0.042289
41.43 	0.039765 	4929 	0.039289
41.45 	0.039886 	4914 	0.039648
41.47 	0.044255 	4926 	0.043541
41.49 	0.037204 	4892 	0.036126
41.51 	0.042510 	4940 	0.041799
41.53 	0.041464 	4944 	0.041227
41.55 	0.038298 	4935 	0.037566
41.57 	0.043109 	4941 	0.042990
41.59 	0.038516 	4933 	0.038041
41.61 	0.038764 	4953 	0.038055
41.63 	0.039085 	4938 	0.038610
41.65 	0.040373 	4929 	0.040136
41.67 	0.037854 	4940 	0.037380
41.69 	0.039014 	4947 	0.038658
41.71 	0.039724 	4934 	0.039487
41.73 	0.043760 	4936 	0.043404
41.75 	0.034084 	4929 	0.033846
41.77 	0.045942 	4941 	0.045231
41.79 	0.041464 	4944 	0.040635
41.81 	0.040721 	4936 	0.040128
41.83 	0.045657 	4928 	0.044707
41.85 	0.037052 	4939 	0.036321
41.87 	0.046403 	4935 	0.045928
41.89 	0.046827 	4933 	0.046234
41.91 	0.040519 	4936 	0.039807
41.93 	0.041363 	4932 	0.040650
41.95 	0.041574 	4931 	0.040980
41.97 	0.045788 	4914 	0.045053
41.99 	0.038328 	4905 	0.037851
42.01 	0.040874 	4942 	0.040519
42.03 	0.039279 	4939 	0.039042
42.05 	0.041195 	4952 	0.040841
42.07 	0.043549 	4937 	0.043311
42.09 	0.039814 	4948 	0.039104
42.11 	0.044085 	4945 	0.043256
42.13 	0.037816 	4945 	0.037342
42.15 	0.039895 	4938 	0.039302
42.17 	0.042497 	4918 	0.042021
42.19 	0.043195 	4908 	0.042598
42.21 	0.036115 	4901 	0.035757
42.23 	0.038635 	4892 	0.038275
42.25 	0.045613 	4889 	0.044774
42.27 	0.042265 	4874 	0.041664
42.29 	0.044211 	4863 	0.044091
42.31 	0.036663 	4855 	0.036301
42.33 	0.038271 	4834 	0.037786
42.35 	0.038032 	4838 	0.037548
42.37 	0.037888 	4830 	0.037403
42.39 	0.040799 	4804 	0.040555
42.41 	0.036636 	4804 	0.036636
42.43 	0.042154 	4792 	0.041420
42.45 	0.036642 	4776 	0.036151
42.47 	0.043861 	4765 	0.043124
42.49 	0.035677 	4765 	0.035431
42.51 	0.039637 	4743 	0.039020
42.53 	0.038917 	4728 	0.038298
42.55 	0.036109 	4708 	0.035611
42.57 	0.041438 	4730 	0.041066
42.59 	0.035737 	4729 	0.035489
42.61 	0.037171 	4708 	0.036424
42.63 	0.035676 	4709 	0.035179
42.65 	0.037994 	4685 	0.037243
42.67 	0.037575 	4684 	0.036949
42.69 	0.036371 	4674 	0.035870
42.71 	0.040532 	4663 	0.040029
42.73 	0.042888 	4640 	0.042509
42.75 	0.035954 	4617 	0.035700
42.77 	0.040870 	4600 	0.040615
42.79 	0.039066 	4582 	0.038555
42.81 	0.045375 	4562 	0.044861
42.83 	0.040123 	4536 	0.039865
42.85 	0.036219 	4528 	0.035831
42.87 	0.036008 	4499 	0.035748
42.89 	0.040179 	4480 	0.039263
42.91 	0.036580 	4456 	0.036448
42.93 	0.036887 	4446 	0.036360
42.95 	0.040308 	4416 	0.040175
42.97 	0.037037 	4401 	0.036904
42.99 	0.037856 	4385 	0.037456
43.01 	0.039881 	4363 	0.039478
43.03 	0.038772 	4333 	0.038502
43.05 	0.042543 	4325 	0.041866
43.07 	0.037244 	4296 	0.037244
43.09 	0.038291 	4283 	0.038154
43.11 	0.039483 	4255 	0.039070
43.13 	0.037291 	4237 	0.036876
43.15 	0.042796 	4206 	0.042239
43.17 	0.040440 	4179 	0.039880
43.19 	0.039342 	4194 	0.038783
43.21 	0.037392 	4172 	0.037111
43.23 	0.044776 	4154 	0.044776
43.25 	0.041354 	4135 	0.041071
43.27 	0.040682 	4105 	0.040254
43.29 	0.041951 	4100 	0.041380
43.31 	0.039470 	4079 	0.038752
43.33 	0.038015 	4051 	0.037581
43.35 	0.044147 	4032 	0.043275
43.37 	0.032628 	4015 	0.032628
43.39 	0.036732 	4002 	0.036000
43.41 	0.042296 	3972 	0.041854
43.43 	0.034848 	3960 	0.034405
43.45 	0.039136 	3935 	0.038367
43.47 	0.034430 	3921 	0.034281
43.49 	0.034899 	3897 	0.034748
43.51 	0.029146 	3877 	0.028693
43.53 	0.036759 	3863 	0.036456
43.55 	0.033738 	2964 	0.033343
43.57 	0.033512 	2238 	0.033250
43.59 	0.035510 	1746 	0.034503
43.61 	0.028868 	1351 	0.028434
43.63 	0.036963 	1001 	0.036963
43.65 	0.023290 	687 	0.023290
43.67 	0.049801 	502 	0.049801
43.69 	0.029973 	367 	0.029973
43.71 	0.033473 	239 	0.033473
43.73 	0.058333 	120 	0.058333
43.75 	0.000000 	16 	0.000000