File: Example_Data/25SC_s1_0025.000.dat
#F C:\frames\spec\25SC_s1_0025.000
#C title =s:25 frm:0 25SC_s1
#C wavelength =0.15406

#S 1  fr_average C:\frames\spec\25SC_s1_0025.000 C:\win32app\speccom\mask.axs chi 0 180 0 360 0.02
#C 2 theta =0.000000 to 180 deg
#C   q   =0.000000 to 81.568 nm^-1
#C  chi  =0.000000 to 360 deg
#C collumns:
#C  1 position (2theta or chi in degrees)
#C  2 average intensity (sum of all counts in the region divided with number of pixels)
#C  3 Number of pixels in region)
#C  4 error (sum of sqrt(intensity) for all pixels divided by number)
#N 4
#L TTh  Int  N_pix  Err
32.99 	0.065574 	61 	0.065574
33.01 	0.068729 	873 	0.066605
33.03 	0.049605 	1391 	0.048341
33.05 	0.063745 	1757 	0.062411
33.07 	0.056098 	2050 	0.055240
33.09 	0.064337 	2347 	0.063048
33.11 	0.072509 	2579 	0.070919
33.13 	0.054780 	2793 	0.054360
33.15 	0.060020 	2999 	0.059239
33.17 	0.062168 	3201 	0.059606
33.19 	0.061341 	3342 	0.060114
33.21 	0.059080 	3436 	0.057887
33.23 	0.053931 	3523 	0.053100
33.25 	0.056202 	3612 	0.056039
33.27 	0.061983 	3630 	0.060047
33.29 	0.066612 	3648 	0.065327
33.31 	0.068306 	3660 	0.066706
33.33 	0.057515 	3686 	0.056085
33.35 	0.065241 	3694 	0.064448
33.37 	0.065967 	3714 	0.065020
33.39 	0.056047 	3729 	0.055262
33.41 	0.059091 	3740 	0.058151
33.43 	0.057963 	3761 	0.056562
33.45 	0.058574 	3773 	0.057151
33.47 	0.066877 	3798 	0.065026
33.49 	0.060383 	3809 	0.059307
33.51 	0.059764 	3815 	0.058382
33.53 	0.064306 	3841 	0.063239
33.55 	0.054124 	3843 	0.053210
33.57 	0.060614 	3877 	0.059103
33.59 	0.058505 	3880 	0.057122
33.61 	0.056280 	3909 	0.055531
33.63 	0.060730 	3919 	0.059833
33.65 	0.059527 	3931 	0.058484
33.67 	0.058422 	3954 	0.057237
33.69 	0.064508 	3953 	0.063322
33.71 	0.063648 	3975 	0.063058
33.73 	0.060440 	4004 	0.059854
33.75 	0.062266 	3999 	0.061680
33.77 	0.060373 	4025 	0.059354
33.79 	0.063351 	4041 	0.062312
33.81 	0.059435 	4038 	0.057695
33.83 	0.052593 	4050 	0.051146
33.85 	0.058307 	4099 	0.057307
33.87 	0.058623 	4111 	0.057911
33.89 	0.058966 	4121 	0.058256
33.91 	0.061220 	4149 	0.060372
33.93 	0.060949 	4151 	0.059774
33.95 	0.060273 	4181 	0.059012
33.97 	0.053699 	4190 	0.052860
33.99 	0.063095 	4200 	0.061701
34.01 	0.057679 	4213 	0.055732
34.03 	0.057022 	4244 	0.054929
34.05 	0.055738 	4252 	0.055187
34.07 	0.060918 	4268 	0.060095
34.09 	0.063929 	4286 	0.062972
34.11 	0.063924 	4302 	0.063243
34.13 	0.052693 	4308 	0.051741
34.15 	0.053567 	4331 	0.053162
34.17 	0.052184 	4350 	0.051623
34.19 	0.062127 	4362 	0.061187
34.21 	0.053763 	4371 	0.052825
34.23 	0.053949 	4393 	0.053016
34.25 	0.059037 	4404 	0.057574
34.27 	0.054953 	4422 	0.053738
34.29 	0.053664 	4435 	0.053004
34.31 	0.055855 	4458 	0.055066
34.33 	0.060613 	4471 	0.059565
34.35 	0.060883 	4484 	0.060361
34.37 	0.065687 	4491 	0.064122
34.39 	0.050866 	4502 	0.050216
34.41 	0.056562 	4526 	0.056044
34.43 	0.047588 	4539 	0.047329
34.45 	0.056670 	4535 	0.055357
34.47 	0.064460 	4592 	0.063163
34.49 	0.060039 	4597 	0.059020
34.51 	0.060573 	4606 	0.059556
34.53 	0.062029 	4643 	0.061272
34.55 	0.059875 	4643 	0.058214
34.57 	0.060300 	4660 	0.059420
34.59 	0.058396 	4675 	0.057895
34.61 	0.059825 	4697 	0.058682
34.63 	0.059236 	4710 	0.058116
34.65 	0.056768 	4721 	0.055775
34.67 	0.060536 	4741 	0.059671
34.69 	0.058056 	4754 	0.056947
34.71 	0.055392 	4766 	0.054266
34.73 	0.059118 	4787 	0.058751
34.75 	0.062812 	4808 	0.061715
34.77 	0.057285 	4818 	0.056191
34.79 	0.059494 	4824 	0.058766
34.81 	0.049742 	4845 	0.049137
34.83 	0.054504 	4862 	0.053902
34.85 	0.060998 	4869 	0.059915
34.87 	0.060600 	4868 	0.059637
34.89 	0.057354 	4882 	0.056394
34.91 	0.053257 	4882 	0.052417
34.93 	0.051235 	4899 	0.049900
34.95 	0.051534 	4890 	0.050815
34.97 	0.061404 	4902 	0.059731
34.99 	0.057586 	4897 	0.056510
35.01 	0.055860 	4923 	0.055027
35.03 	0.056646 	4943 	0.056290
35.05 	0.055589 	4947 	0.055234
35.07 	0.057895 	4940 	0.056590
35.09 	0.057743 	4953 	0.056915
35.11 	0.057611 	4947 	0.056900
35.13 	0.053852 	4958 	0.053498
35.15 	0.053271 	4937 	0.052322
35.17 	0.060049 	4946 	0.058983
35.19 	0.057669 	4942 	0.057076
35.21 	0.058241 	4945 	0.057411
35.23 	0.061678 	4945 	0.060731
35.25 	0.059680 	4943 	0.058969
35.27 	0.058003 	4948 	0.057293
35.29 	0.055410 	4945 	0.054462
35.31 	0.057166 	4933 	0.056315
35.33 	0.060287 	4943 	0.059201
35.35 	0.059288 	4942 	0.058458
35.37 	0.060134 	4939 	0.059422
35.39 	0.059858 	4945 	0.059385
35.41 	0.048924 	4926 	0.048448
35.43 	0.065275 	4933 	0.064325
35.45 	0.056309 	4937 	0.055360
35.47 	0.053133 	4931 	0.051826
35.49 	0.063340 	4910 	0.062266
35.51 	0.056841 	4926 	0.055989
35.53 	0.057587 	4949 	0.056621
35.55 	0.054196 	4945 	0.053367
35.57 	0.054936 	4933 	0.054224
35.59 	0.057432 	4945 	0.056603
35.61 	0.064953 	4942 	0.063175
35.63 	0.054623 	4943 	0.054030
35.65 	0.059454 	4945 	0.058269
35.67 	0.056050 	4942 	0.054983
35.69 	0.064497 	4946 	0.063056
35.71 	0.059348 	4937 	0.058992
35.73 	0.059968 	4936 	0.059137
35.75 	0.064287 	4931 	0.063456
35.77 	0.055342 	4951 	0.054751
35.79 	0.059611 	4932 	0.058661
35.81 	0.059396 	4933 	0.058565
35.83 	0.059038 	4946 	0.058090
35.85 	0.057143 	4935 	0.056193
35.87 	0.057282 	4923 	0.056211
35.89 	0.057357 	4934 	0.056289
35.91 	0.053582 	4927 	0.052869
35.93 	0.063122 	4927 	0.062408
35.95 	0.054098 	4917 	0.053621
35.97 	0.059446 	4912 	0.058115
35.99 	0.054869 	4939 	0.054276
36.01 	0.052738 	4930 	0.051788
36.03 	0.055230 	4943 	0.054756
36.05 	0.061678 	4945 	0.060968
36.07 	0.051832 	4939 	0.051121
36.09 	0.063765 	4940 	0.062797
36.11 	0.064313 	4929 	0.063244
36.13 	0.050384 	4942 	0.049673
36.15 	0.061146 	4939 	0.060553
36.17 	0.053807 	4925 	0.053331
36.19 	0.056275 	4940 	0.055564
36.21 	0.063096 	4929 	0.061432
36.23 	0.055117 	4935 	0.054404
36.25 	0.061526 	4941 	0.060340
36.27 	0.058883 	4925 	0.057099
36.29 	0.060231 	4931 	0.059400
36.31 	0.062703 	4928 	0.061990
36.33 	0.057369 	4933 	0.056894
36.35 	0.052952 	4929 	0.052358
36.37 	0.055251 	4923 	0.055013
36.39 	0.057305 	4921 	0.055738
36.41 	0.053309 	4896 	0.052232
36.43 	0.055398 	4928 	0.053971
36.45 	0.055984 	4930 	0.055152
36.47 	0.057131 	4936 	0.056657
36.49 	0.061716 	4942 	0.061123
36.51 	0.057977 	4933 	0.056789
36.53 	0.059478 	4943 	0.058767
36.55 	0.050944 	4927 	0.050706
36.57 	0.059789 	4934 	0.058721
36.59 	0.054869 	4939 	0.054039
36.61 	0.063070 	4931 	0.061625
36.63 	0.055770 	4931 	0.054344
36.65 	0.056367 	4932 	0.056010
36.67 	0.056795 	4930 	0.055963
36.69 	0.057010 	4929 	0.055445
36.71 	0.060963 	4921 	0.059654
36.73 	0.055431 	4925 	0.054837
36.75 	0.062298 	4944 	0.060876
36.77 	0.059768 	4919 	0.059054
36.79 	0.059338 	4921 	0.058028
36.81 	0.063670 	4916 	0.063074
36.83 	0.058189 	4915 	0.056997
36.85 	0.052675 	4898 	0.051957
36.87 	0.048746 	4944 	0.048154
36.89 	0.058177 	4916 	0.057820
36.91 	0.061324 	4941 	0.060375
36.93 	0.059229 	4930 	0.058259
36.95 	0.063653 	4933 	0.062584
36.97 	0.060195 	4934 	0.059363
36.99 	0.059777 	4935 	0.058590
37.01 	0.055950 	4933 	0.054881
37.03 	0.056864 	4924 	0.055794
37.05 	0.065557 	4927 	0.064012
37.07 	0.055522 	4935 	0.054453
37.09 	0.053166 	4928 	0.052334
37.11 	0.063830 	4935 	0.062761
37.13 	0.058286 	4924 	0.057096
37.15 	0.064575 	4909 	0.063621
37.17 	0.052088 	4934 	0.051613
37.19 	0.058883 	4925 	0.058051
37.21 	0.057352 	4917 	0.056161
37.23 	0.056730 	4918 	0.056254
37.25 	0.060884 	4911 	0.059929
37.27 	0.060074 	4894 	0.059236
37.29 	0.058621 	4930 	0.057551
37.31 	0.061601 	4935 	0.060295
37.33 	0.058656 	4927 	0.057586
37.35 	0.054881 	4938 	0.054525
37.37 	0.058453 	4927 	0.057383
37.39 	0.062462 	4931 	0.060779
37.41 	0.054553 	4931 	0.053959
37.43 	0.064477 	4932 	0.063052
37.45 	0.066003 	4924 	0.065170
37.47 	0.054575 	4929 	0.054100
37.49 	0.054438 	4923 	0.053605
37.51 	0.065680 	4933 	0.064611
37.53 	0.055906 	4919 	0.054953
37.55 	0.057201 	4930 	0.056250
37.57 	0.057056 	4925 	0.056461
37.59 	0.052289 	4915 	0.052051
37.61 	0.055059 	4922 	0.054226
37.63 	0.062004 	4919 	0.060695
37.65 	0.055104 	4918 	0.053913
37.67 	0.056077 	4904 	0.054952
37.69 	0.049612 	4898 	0.049373
37.71 	0.057212 	4929 	0.056618
37.73 	0.055995 	4929 	0.055044
37.75 	0.057085 	4940 	0.055880
37.77 	0.062805 	4920 	0.062329
37.79 	0.050710 	4930 	0.049403
37.81 	0.057774 	4933 	0.056705
37.83 	0.054472 	4920 	0.053757
37.85 	0.054246 	4922 	0.053770
37.87 	0.059931 	4939 	0.059101
37.89 	0.056041 	4925 	0.055208
37.91 	0.058215 	4930 	0.057146
37.93 	0.056109 	4919 	0.055156
37.95 	0.058321 	4921 	0.057845
37.97 	0.054575 	4929 	0.053505
37.99 	0.057207 	4912 	0.055995
38.01 	0.059456 	4928 	0.058149
38.03 	0.055205 	4909 	0.054727
38.05 	0.058883 	4925 	0.058051
38.07 	0.056631 	4909 	0.055418
38.09 	0.060271 	4878 	0.058950
38.11 	0.054306 	4935 	0.053594
38.13 	0.060968 	4937 	0.060019
38.15 	0.056527 	4918 	0.055812
38.17 	0.062069 	4930 	0.060881
38.19 	0.063083 	4930 	0.061757
38.21 	0.060126 	4923 	0.058698
38.23 	0.063386 	4938 	0.062062
38.25 	0.059996 	4917 	0.059043
38.27 	0.062272 	4930 	0.061084
38.29 	0.060520 	4924 	0.059568
38.31 	0.067181 	4927 	0.066230
38.33 	0.068643 	4924 	0.067097
38.35 	0.063920 	4928 	0.062019
38.37 	0.067831 	4924 	0.067117
38.39 	0.073742 	4909 	0.072072
38.41 	0.075970 	4923 	0.074423
38.43 	0.070993 	4916 	0.068947
38.45 	0.069744 	4918 	0.068672
38.47 	0.077237 	4907 	0.075049
38.49 	0.077097 	4877 	0.075535
38.51 	0.078670 	4932 	0.077344
38.53 	0.078515 	4929 	0.077802
38.55 	0.078201 	4936 	0.076283
38.57 	0.088361 	4923 	0.086457
38.59 	0.082047 	4924 	0.080738
38.61 	0.082658 	4936 	0.080740
38.63 	0.084484 	4924 	0.082819
38.65 	0.079911 	4918 	0.078581
38.67 	0.085072 	4937 	0.083055
38.69 	0.073751 	4922 	0.071965
38.71 	0.080219 	4924 	0.077920
38.73 	0.073810 	4918 	0.072123
38.75 	0.068805 	4927 	0.067596
38.77 	0.072720 	4923 	0.071649
38.79 	0.069518 	4934 	0.068093
38.81 	0.069015 	4912 	0.067703
38.83 	0.068103 	4919 	0.067270
38.85 	0.065554 	4912 	0.064600
38.87 	0.054979 	4911 	0.053766
38.89 	0.056361 	4897 	0.055284
38.91 	0.055476 	4903 	0.054759
38.93 	0.061968 	4938 	0.061118
38.95 	0.059984 	4918 	0.058912
38.97 	0.054756 	4931 	0.054399
38.99 	0.048005 	4937 	0.047768
39.01 	0.056324 	4918 	0.055728
39.03 	0.044183 	4934 	0.043233
39.05 	0.052386 	4925 	0.051434
39.07 	0.050975 	4924 	0.050261
39.09 	0.048548 	4923 	0.047834
39.11 	0.047252 	4931 	0.046777
39.13 	0.051595 	4923 	0.050762
39.15 	0.048220 	4915 	0.047743
39.17 	0.046182 	4937 	0.045233
39.19 	0.046980 	4917 	0.046861
39.21 	0.055193 	4910 	0.054836
39.23 	0.045076 	4925 	0.044006
39.25 	0.048557 	4922 	0.047943
39.27 	0.045825 	4910 	0.045348
39.29 	0.047949 	4901 	0.047113
39.31 	0.050369 	4884 	0.049649
39.33 	0.047049 	4931 	0.046574
39.35 	0.048632 	4935 	0.048039
39.37 	0.051735 	4929 	0.051022
39.39 	0.047271 	4929 	0.046202
39.41 	0.047252 	4931 	0.046777
39.43 	0.052504 	4933 	0.052147
39.45 	0.045888 	4925 	0.044699
39.47 	0.048751 	4923 	0.048394
39.49 	0.046422 	4933 	0.045828
39.51 	0.043461 	4924 	0.042985
39.53 	0.046110 	4923 	0.045396
39.55 	0.041878 	4919 	0.041045
39.57 	0.046219 	4933 	0.045507
39.59 	0.043363 	4912 	0.043005
39.61 	0.046313 	4923 	0.045956
39.63 	0.046932 	4922 	0.046099
39.65 	0.050548 	4926 	0.049716
39.67 	0.052921 	4913 	0.051729
39.69 	0.051465 	4916 	0.050988
39.71 	0.045965 	4895 	0.045367
39.73 	0.042584 	4908 	0.041629
39.75 	0.045860 	4928 	0.045147
39.77 	0.046809 	4935 	0.046215
39.79 	0.046082 	4926 	0.045250
39.81 	0.046682 	4927 	0.046206
39.83 	0.044994 	4934 	0.044638
39.85 	0.042825 	4927 	0.042112
39.87 	0.048934 	4925 	0.048339
39.89 	0.045602 	4934 	0.044890
39.91 	0.042462 	4922 	0.041986
39.93 	0.053271 	4937 	0.052797
39.95 	0.046796 	4915 	0.046180
39.97 	0.046672 	4928 	0.045721
39.99 	0.048459 	4932 	0.047746
40.01 	0.048190 	4918 	0.047357
40.03 	0.047890 	4928 	0.047176
40.05 	0.045556 	4917 	0.045199
40.07 	0.043876 	4923 	0.042547
40.09 	0.036412 	4916 	0.036054
40.11 	0.049024 	4916 	0.048547
40.13 	0.044118 	4896 	0.042921
40.15 	0.041115 	4913 	0.040638
40.17 	0.041599 	4928 	0.041124
40.19 	0.042605 	4929 	0.042248
40.21 	0.043769 	4935 	0.043294
40.23 	0.040146 	4932 	0.039908
40.25 	0.041260 	4920 	0.040427
40.27 	0.044156 	4937 	0.043188
40.29 	0.043637 	4927 	0.043043
40.31 	0.044138 	4939 	0.043170
40.33 	0.040957 	4932 	0.040244
40.35 	0.041675 	4919 	0.041318
40.37 	0.039156 	4929 	0.039037
40.39 	0.046644 	4931 	0.045575
40.41 	0.042640 	4925 	0.042283
40.43 	0.044088 	4922 	0.043493
40.45 	0.047030 	4933 	0.046436
40.47 	0.044124 	4918 	0.043290
40.49 	0.041413 	4926 	0.041175
40.51 	0.042462 	4922 	0.041867
40.53 	0.044142 	4916 	0.043427
40.55 	0.041769 	4908 	0.041291
40.57 	0.038855 	4890 	0.038735
40.59 	0.046182 	4937 	0.045707
40.61 	0.040122 	4935 	0.039884
40.63 	0.038742 	4930 	0.038148
40.65 	0.041523 	4937 	0.041049
40.67 	0.044201 	4932 	0.043707
40.69 	0.039700 	4937 	0.039344
40.71 	0.048865 	4932 	0.048746
40.73 	0.040398 	4926 	0.039922
40.75 	0.046644 	4931 	0.045812
40.77 	0.041304 	4939 	0.040829
40.79 	0.042445 	4924 	0.041612
40.81 	0.042704 	4941 	0.042348
40.83 	0.039164 	4928 	0.038807
40.85 	0.042851 	4924 	0.042257
40.87 	0.042208 	4928 	0.041851
40.89 	0.045224 	4931 	0.044373
40.91 	0.045704 	4923 	0.045347
40.93 	0.039724 	4934 	0.039131
40.95 	0.042337 	4913 	0.041740
40.97 	0.045898 	4924 	0.045303
40.99 	0.042648 	4924 	0.041815
41.01 	0.042549 	4912 	0.041953
41.03 	0.038328 	4905 	0.037731
41.05 	0.044571 	4936 	0.043858
41.07 	0.040365 	4930 	0.040127
41.09 	0.042316 	4939 	0.041605
41.11 	0.043566 	4935 	0.042953
41.13 	0.037277 	4936 	0.036684
41.15 	0.036227 	4941 	0.035635
41.17 	0.044589 	4934 	0.043757
41.19 	0.045639 	4930 	0.044926
41.21 	0.039093 	4937 	0.038855
41.23 	0.041911 	4939 	0.041318
41.25 	0.041354 	4933 	0.040404
41.27 	0.042791 	4931 	0.042177
41.29 	0.037744 	4928 	0.037387
41.31 	0.040949 	4933 	0.040474
41.33 	0.038890 	4937 	0.038415
41.35 	0.040502 	4938 	0.040265
41.37 	0.036556 	4924 	0.036437
41.39 	0.042773 	4933 	0.042536
41.41 	0.041007 	4926 	0.040293
41.43 	0.040373 	4929 	0.040017
41.45 	0.042328 	4914 	0.041970
41.47 	0.038368 	4926 	0.038011
41.49 	0.038839 	4892 	0.038599
41.51 	0.039676 	4940 	0.039320
41.53 	0.041262 	4944 	0.041025
41.55 	0.042958 	4935 	0.042365
41.57 	0.039466 	4941 	0.039229
41.59 	0.042570 	4933 	0.042333
41.61 	0.042802 	4953 	0.041856
41.63 	0.043540 	4938 	0.043303
41.65 	0.045040 	4929 	0.044089
41.67 	0.036437 	4940 	0.036200
41.69 	0.035577 	4947 	0.035577
41.71 	0.041143 	4934 	0.040312
41.73 	0.036669 	4936 	0.036195
41.75 	0.037330 	4929 	0.036855
41.77 	0.037644 	4941 	0.037051
41.79 	0.044094 	4944 	0.043027
41.81 	0.038493 	4936 	0.038137
41.83 	0.038555 	4928 	0.038317
41.85 	0.042519 	4939 	0.041926
41.87 	0.037690 	4935 	0.037571
41.89 	0.041962 	4933 	0.041131
41.91 	0.040316 	4936 	0.039466
41.93 	0.039740 	4932 	0.039265
41.95 	0.044210 	4931 	0.043379
41.97 	0.037444 	4914 	0.036967
41.99 	0.043833 	4905 	0.043475
42.01 	0.041076 	4942 	0.040602
42.03 	0.043936 	4939 	0.043106
42.05 	0.043013 	4952 	0.042658
42.07 	0.034839 	4937 	0.034483
42.09 	0.036783 	4948 	0.036546
42.11 	0.041860 	4945 	0.041624
42.13 	0.044287 	4945 	0.044169
42.15 	0.039287 	4938 	0.038694
42.17 	0.037414 	4918 	0.036918
42.19 	0.041157 	4908 	0.040680
42.21 	0.037747 	4901 	0.037389
42.23 	0.041087 	4892 	0.040848
42.25 	0.035386 	4889 	0.035026
42.27 	0.042470 	4874 	0.042230
42.29 	0.039071 	4863 	0.039071
42.31 	0.039753 	4855 	0.039270
42.33 	0.041167 	4834 	0.040682
42.35 	0.042166 	4838 	0.041440
42.37 	0.041201 	4830 	0.040837
42.39 	0.041216 	4804 	0.040972
42.41 	0.037261 	4804 	0.037139
42.43 	0.040902 	4792 	0.040657
42.45 	0.041039 	4776 	0.040671
42.47 	0.036097 	4765 	0.035851
42.49 	0.039035 	4765 	0.038666
42.51 	0.039427 	4743 	0.038809
42.53 	0.035744 	4728 	0.035125
42.55 	0.043118 	4708 	0.042496
42.57 	0.038055 	4730 	0.037312
42.59 	0.041023 	4729 	0.040156
42.61 	0.038870 	4708 	0.038746
42.63 	0.037800 	4709 	0.037551
42.65 	0.038207 	4685 	0.037832
42.67 	0.034159 	4684 	0.033659
42.69 	0.034874 	4674 	0.034498
42.71 	0.039888 	4663 	0.039888
42.73 	0.046121 	4640 	0.045742
42.75 	0.040286 	4617 	0.039778
42.77 	0.041957 	4600 	0.041192
42.79 	0.040594 	4582 	0.040189
42.81 	0.039456 	4562 	0.039071
42.83 	0.036376 	4536 	0.035730
42.85 	0.038869 	4528 	0.038481
42.87 	0.038008 	4499 	0.037097
42.89 	0.041295 	4480 	0.041164
42.91 	0.043537 	4456 	0.043011
42.93 	0.034863 	4446 	0.034863
42.95 	0.037138 	4416 	0.036342
42.97 	0.043172 	4401 	0.042773
42.99 	0.035804 	4385 	0.035804
43.01 	0.039193 	4363 	0.038366
43.03 	0.034387 	4333 	0.034117
43.05 	0.043006 	4325 	0.042735
43.07 	0.043296 	4296 	0.042478
43.09 	0.037124 	4283 	0.036850
43.11 	0.041598 	4255 	0.041047
43.13 	0.035402 	4237 	0.035402
43.15 	0.039230 	4206 	0.038951
43.17 	0.036133 	4179 	0.035993
43.19 	0.038865 	4194 	0.038865
43.21 	0.037632 	4172 	0.037491
43.23 	0.040924 	4154 	0.040501
43.25 	0.039903 	4135 	0.039337
43.27 	0.038490 	4105 	0.038204
43.29 	0.035854 	4100 	0.035854
43.31 	0.039961 	4079 	0.039674
43.33 	0.033572 	4051 	0.033138
43.35 	0.035218 	4032 	0.034637
43.37 	0.039851 	4015 	0.039121
43.39 	0.034733 	4002 	0.034294
43.41 	0.044058 	3972 	0.043468
43.43 	0.037121 	3960 	0.036530
43.45 	0.039644 	3935 	0.039495
43.47 	0.035960 	3921 	0.035213
43.49 	0.032076 	3897 	0.031775
43.51 	0.044106 	3877 	0.043502
43.53 	0.030805 	3863 	0.030502
43.55 	0.037787 	2964 	0.037589
43.57 	0.039321 	2238 	0.039059
43.59 	0.030928 	1746 	0.030592
43.61 	0.039970 	1351 	0.039537
43.63 	0.037962 	1001 	0.036792
43.65 	0.043668 	687 	0.043668
43.67 	0.029880 	502 	0.029880
43.69 	0.029973 	367 	0.029973
43.71 	0.046025 	239 	0.046025
43.73 	0.025000 	120 	0.025000
43.75 	0.062500 	16 	0.062500