File: Example_Data/25SC_s1_0052.006.dat
#F C:\frames\spec\25SC_s1_0052.006
#C title =s:52 frm:6 25SC_s1
#C wavelength =0.15406

#S 1  fr_average C:\frames\spec\25SC_s1_0052.006 C:\win32app\speccom\mask.axs chi 0 180 0 360 0.02
#C 2 theta =0.000000 to 180 deg
#C   q   =0.000000 to 81.568 nm^-1
#C  chi  =0.000000 to 360 deg
#C collumns:
#C  1 position (2theta or chi in degrees)
#C  2 average intensity (sum of all counts in the region divided with number of pixels)
#C  3 Number of pixels in region)
#C  4 error (sum of sqrt(intensity) for all pixels divided by number)
#N 4
#L TTh  Int  N_pix  Err
32.99 	0.065574 	61 	0.065574
33.01 	0.077892 	873 	0.075769
33.03 	0.069015 	1391 	0.066488
33.05 	0.072851 	1757 	0.070851
33.07 	0.065366 	2050 	0.063366
33.09 	0.061781 	2347 	0.060783
33.11 	0.062815 	2579 	0.061906
33.13 	0.063373 	2793 	0.062324
33.15 	0.068356 	2999 	0.066794
33.17 	0.065917 	3201 	0.064636
33.19 	0.064034 	3342 	0.062456
33.21 	0.065774 	3436 	0.064240
33.23 	0.067840 	3523 	0.066510
33.25 	0.082226 	3612 	0.081091
33.27 	0.065840 	3630 	0.065033
33.29 	0.063048 	3648 	0.062406
33.31 	0.073497 	3660 	0.070936
33.33 	0.066739 	3686 	0.065150
33.35 	0.072279 	3694 	0.070694
33.37 	0.070813 	3714 	0.068763
33.39 	0.076428 	3729 	0.075014
33.41 	0.069519 	3740 	0.067796
33.43 	0.072853 	3761 	0.071140
33.45 	0.060959 	3773 	0.060183
33.47 	0.067404 	3798 	0.066324
33.49 	0.070885 	3809 	0.069501
33.51 	0.068414 	3815 	0.067032
33.53 	0.074199 	3841 	0.071684
33.55 	0.076763 	3843 	0.075391
33.57 	0.079959 	3877 	0.077819
33.59 	0.070361 	3880 	0.069153
33.61 	0.072653 	3909 	0.070855
33.63 	0.068895 	3919 	0.067699
33.65 	0.064615 	3931 	0.063100
33.67 	0.073091 	3954 	0.071905
33.69 	0.074374 	3953 	0.072892
33.71 	0.069434 	3975 	0.068402
33.73 	0.069181 	4004 	0.067718
33.75 	0.062766 	3999 	0.061447
33.77 	0.074286 	4025 	0.072103
33.79 	0.064341 	4041 	0.063302
33.81 	0.064141 	4038 	0.063705
33.83 	0.071852 	4050 	0.070405
33.85 	0.066846 	4099 	0.065702
33.87 	0.069083 	4111 	0.067658
33.89 	0.063577 	4121 	0.062440
33.91 	0.072307 	4149 	0.070166
33.93 	0.069140 	4151 	0.066741
33.95 	0.059316 	4181 	0.058195
33.97 	0.070883 	4190 	0.068926
33.99 	0.067143 	4200 	0.065888
34.01 	0.064087 	4213 	0.062836
34.03 	0.070924 	4244 	0.068991
34.05 	0.070555 	4252 	0.068764
34.07 	0.068650 	4268 	0.067415
34.09 	0.066029 	4286 	0.064207
34.11 	0.064854 	4302 	0.063900
34.13 	0.066852 	4308 	0.065629
34.15 	0.071808 	4331 	0.070591
34.17 	0.063448 	4350 	0.062506
34.19 	0.067171 	4362 	0.065962
34.21 	0.066346 	4371 	0.064314
34.23 	0.066697 	4393 	0.066164
34.25 	0.066757 	4404 	0.065427
34.27 	0.071687 	4422 	0.070097
34.29 	0.073506 	4435 	0.070865
34.31 	0.069762 	4458 	0.068448
34.33 	0.071125 	4471 	0.069815
34.35 	0.072480 	4484 	0.071174
34.37 	0.066355 	4491 	0.065029
34.39 	0.071302 	4502 	0.069480
34.41 	0.065400 	4526 	0.064365
34.43 	0.061467 	4539 	0.060177
34.45 	0.065491 	4535 	0.064199
34.47 	0.066855 	4592 	0.065197
34.49 	0.071351 	4597 	0.069949
34.51 	0.071429 	4606 	0.069902
34.53 	0.067198 	4643 	0.065936
34.55 	0.073444 	4643 	0.070900
34.57 	0.063305 	4660 	0.062048
34.59 	0.068663 	4675 	0.066909
34.61 	0.070045 	4697 	0.067904
34.63 	0.066454 	4710 	0.064962
34.65 	0.067782 	4721 	0.066666
34.67 	0.064965 	4741 	0.063853
34.69 	0.060791 	4754 	0.059682
34.71 	0.067142 	4766 	0.065790
34.73 	0.072488 	4787 	0.070530
34.75 	0.070923 	4808 	0.069461
34.77 	0.061436 	4818 	0.060220
34.79 	0.072554 	4824 	0.071218
34.81 	0.073684 	4845 	0.071750
34.83 	0.064582 	4862 	0.063478
34.85 	0.059971 	4869 	0.058768
34.87 	0.063681 	4868 	0.062478
34.89 	0.068005 	4882 	0.066565
34.91 	0.068210 	4882 	0.066510
34.93 	0.066952 	4899 	0.065637
34.95 	0.066667 	4890 	0.065329
34.97 	0.067931 	4902 	0.067095
34.99 	0.061875 	4897 	0.060798
35.01 	0.070079 	4923 	0.068770
35.03 	0.076269 	4943 	0.074097
35.05 	0.068729 	4947 	0.067071
35.07 	0.068219 	4940 	0.066677
35.09 	0.068040 	4953 	0.066147
35.11 	0.063877 	4947 	0.062575
35.13 	0.066962 	4958 	0.065781
35.15 	0.067045 	4937 	0.065364
35.17 	0.061868 	4946 	0.060921
35.19 	0.069607 	4942 	0.068185
35.21 	0.066734 	4945 	0.065786
35.23 	0.069970 	4945 	0.069022
35.25 	0.069998 	4943 	0.068576
35.27 	0.067704 	4948 	0.065928
35.29 	0.075025 	4945 	0.073367
35.31 	0.068721 	4933 	0.067533
35.33 	0.075056 	4943 	0.073259
35.35 	0.067382 	4942 	0.066315
35.37 	0.067423 	4939 	0.066592
35.39 	0.068756 	4945 	0.067335
35.41 	0.066788 	4926 	0.065124
35.43 	0.072370 	4933 	0.070213
35.45 	0.064209 	4937 	0.062785
35.47 	0.074021 	4931 	0.071764
35.49 	0.068839 	4910 	0.067885
35.51 	0.063743 	4926 	0.062554
35.53 	0.062841 	4949 	0.061894
35.55 	0.070172 	4945 	0.068257
35.57 	0.073991 	4933 	0.072329
35.59 	0.062083 	4945 	0.060780
35.61 	0.075273 	4942 	0.073120
35.63 	0.059478 	4943 	0.058648
35.65 	0.067341 	4945 	0.066393
35.67 	0.066775 	4942 	0.065115
35.69 	0.073393 	4946 	0.071735
35.71 	0.068058 	4937 	0.066851
35.73 	0.066653 	4936 	0.065466
35.75 	0.069966 	4931 	0.068639
35.77 	0.069683 	4951 	0.068026
35.79 	0.066910 	4932 	0.065603
35.81 	0.073789 	4933 	0.072126
35.83 	0.070158 	4946 	0.068736
35.85 	0.068896 	4935 	0.068065
35.87 	0.070689 	4923 	0.069142
35.89 	0.069923 	4934 	0.068835
35.91 	0.067993 	4927 	0.066923
35.93 	0.061498 	4927 	0.059457
35.95 	0.070571 	4917 	0.068665
35.97 	0.068404 	4912 	0.067092
35.99 	0.061956 	4939 	0.060770
36.01 	0.067748 	4930 	0.066422
36.03 	0.072021 	4943 	0.070599
36.05 	0.060465 	4945 	0.059044
36.07 	0.070865 	4939 	0.068848
36.09 	0.064372 	4940 	0.062831
36.11 	0.068574 	4929 	0.067742
36.13 	0.066370 	4942 	0.065659
36.15 	0.063576 	4939 	0.062390
36.17 	0.066802 	4925 	0.066088
36.19 	0.074089 	4940 	0.072192
36.21 	0.061676 	4929 	0.060725
36.23 	0.067477 	4935 	0.066033
36.25 	0.065574 	4941 	0.064270
36.27 	0.061320 	4925 	0.060249
36.29 	0.067329 	4931 	0.066022
36.31 	0.067167 	4928 	0.065979
36.33 	0.064464 	4933 	0.063751
36.35 	0.070197 	4929 	0.068533
36.37 	0.066220 	4923 	0.064911
36.39 	0.072953 	4921 	0.071524
36.41 	0.068832 	4896 	0.067017
36.43 	0.063718 	4928 	0.062529
36.45 	0.062475 	4930 	0.061762
36.47 	0.072731 	4936 	0.070892
36.49 	0.072238 	4942 	0.070915
36.51 	0.062437 	4933 	0.061724
36.53 	0.067975 	4943 	0.067145
36.55 	0.062107 	4927 	0.061631
36.57 	0.067288 	4934 	0.065963
36.59 	0.068232 	4939 	0.066572
36.61 	0.069357 	4931 	0.068150
36.63 	0.065910 	4931 	0.065078
36.65 	0.063260 	4932 	0.062429
36.67 	0.061460 	4930 	0.060035
36.69 	0.065328 	4929 	0.064615
36.71 	0.067669 	4921 	0.066122
36.73 	0.067817 	4925 	0.066390
36.75 	0.062702 	4944 	0.061498
36.77 	0.063428 	4919 	0.062237
36.79 	0.067466 	4921 	0.066276
36.81 	0.064076 	4916 	0.062389
36.83 	0.065514 	4915 	0.063706
36.85 	0.070029 	4898 	0.069311
36.87 	0.065129 	4944 	0.063807
36.89 	0.062856 	4916 	0.062260
36.91 	0.065169 	4941 	0.063746
36.93 	0.064300 	4930 	0.063231
36.95 	0.071559 	4933 	0.069540
36.97 	0.065464 	4934 	0.064633
36.99 	0.061803 	4935 	0.061091
37.01 	0.067302 	4933 	0.065996
37.03 	0.063769 	4924 	0.063056
37.05 	0.059874 	4927 	0.059042
37.07 	0.058967 	4935 	0.057780
37.09 	0.062094 	4928 	0.061143
37.11 	0.065856 	4935 	0.063957
37.13 	0.063566 	4924 	0.062733
37.15 	0.065186 	4909 	0.064590
37.17 	0.057154 	4934 	0.056561
37.19 	0.068832 	4925 	0.067405
37.21 	0.067114 	4917 	0.066042
37.23 	0.062424 	4918 	0.061709
37.25 	0.065974 	4911 	0.064424
37.27 	0.064569 	4894 	0.062873
37.29 	0.061663 	4930 	0.059961
37.31 	0.068490 	4935 	0.067541
37.33 	0.065760 	4927 	0.064690
37.35 	0.062981 	4938 	0.062131
37.37 	0.061498 	4927 	0.060071
37.39 	0.063070 	4931 	0.061625
37.41 	0.067735 	4931 	0.066309
37.43 	0.060624 	4932 	0.058962
37.45 	0.067019 	4924 	0.066047
37.47 	0.065328 	4929 	0.064020
37.49 	0.062360 	4923 	0.061151
37.51 	0.063653 	4933 	0.062584
37.53 	0.065664 	4919 	0.064215
37.55 	0.064706 	4930 	0.063636
37.57 	0.056244 	4925 	0.054816
37.59 	0.060020 	4915 	0.058948
37.61 	0.073141 	4922 	0.071356
37.63 	0.062411 	4919 	0.060466
37.65 	0.061610 	4918 	0.060281
37.67 	0.064641 	4904 	0.063088
37.69 	0.063699 	4898 	0.062623
37.71 	0.061067 	4929 	0.060711
37.73 	0.056198 	4929 	0.055604
37.75 	0.060729 	4940 	0.060017
37.77 	0.063618 	4920 	0.062646
37.79 	0.059838 	4930 	0.059481
37.81 	0.060409 	4933 	0.059103
37.83 	0.066463 	4920 	0.065273
37.85 	0.054653 	4922 	0.053819
37.87 	0.064790 	4939 	0.064079
37.89 	0.062335 	4925 	0.061621
37.91 	0.058418 	4930 	0.056992
37.93 	0.063428 	4919 	0.062118
37.95 	0.063605 	4921 	0.062157
37.97 	0.057010 	4929 	0.056653
37.99 	0.063111 	4912 	0.061799
38.01 	0.062500 	4928 	0.061430
38.03 	0.067427 	4909 	0.065279
38.05 	0.065787 	4925 	0.064221
38.07 	0.063964 	4909 	0.062890
38.09 	0.061091 	4878 	0.059870
38.11 	0.066869 	4935 	0.065188
38.13 	0.061576 	4937 	0.060508
38.15 	0.063440 	4918 	0.061992
38.17 	0.059838 	4930 	0.058887
38.19 	0.062069 	4930 	0.061099
38.21 	0.065204 	4923 	0.063895
38.23 	0.059538 	4938 	0.058451
38.25 	0.074639 	4917 	0.073209
38.27 	0.062475 	4930 	0.060692
38.29 	0.067019 	4924 	0.064996
38.31 	0.073879 	4927 	0.072690
38.33 	0.068034 	4924 	0.067082
38.35 	0.072849 	4928 	0.071185
38.37 	0.068846 	4924 	0.066804
38.39 	0.067835 	4909 	0.065786
38.41 	0.069470 	4923 	0.067189
38.43 	0.069569 	4916 	0.068000
38.45 	0.075030 	4918 	0.073582
38.47 	0.070308 	4907 	0.068995
38.49 	0.067254 	4877 	0.066294
38.51 	0.077656 	4932 	0.075855
38.53 	0.073849 	4929 	0.072423
38.55 	0.076783 	4936 	0.075477
38.57 	0.076173 	4923 	0.074131
38.59 	0.071487 	4924 	0.070396
38.61 	0.070097 	4936 	0.069267
38.63 	0.069050 	4924 	0.068217
38.65 	0.069337 	4918 	0.068384
38.67 	0.066032 	4937 	0.065201
38.69 	0.059122 	4922 	0.058051
38.71 	0.065191 	4924 	0.062812
38.73 	0.060390 	4918 	0.059199
38.75 	0.066572 	4927 	0.065601
38.77 	0.062157 	4923 	0.060848
38.79 	0.065261 	4934 	0.064312
38.81 	0.064129 	4912 	0.062658
38.83 	0.066070 	4919 	0.064999
38.85 	0.060871 	4912 	0.060156
38.87 	0.065974 	4911 	0.064066
38.89 	0.055748 	4897 	0.055031
38.91 	0.057312 	4903 	0.055998
38.93 	0.065614 	4938 	0.064309
38.95 	0.058154 	4918 	0.057300
38.97 	0.055364 	4931 	0.054176
38.99 	0.053676 	4937 	0.052964
39.01 	0.063034 	4918 	0.060870
39.03 	0.054722 	4934 	0.053654
39.05 	0.057868 	4925 	0.056798
39.07 	0.055443 	4924 	0.054372
39.09 	0.056876 	4923 	0.055805
39.11 	0.053539 	4931 	0.052826
39.13 	0.050376 	4923 	0.050019
39.15 	0.051068 	4915 	0.050472
39.17 	0.055297 	4937 	0.054229
39.19 	0.052268 	4917 	0.051533
39.21 	0.057230 	4910 	0.056395
39.23 	0.058274 	4925 	0.057442
39.25 	0.054246 	4922 	0.053889
39.27 	0.056415 	4910 	0.055461
39.29 	0.058151 	4901 	0.057195
39.31 	0.050983 	4884 	0.050503
39.33 	0.060637 	4931 	0.059192
39.35 	0.062817 	4935 	0.061986
39.37 	0.055589 	4929 	0.054757
39.39 	0.063299 	4929 	0.062823
39.41 	0.050902 	4931 	0.050071
39.43 	0.063450 	4933 	0.062500
39.45 	0.051168 	4925 	0.050335
39.47 	0.056063 	4923 	0.055587
39.49 	0.055950 	4933 	0.054287
39.51 	0.057067 	4924 	0.056354
39.53 	0.057079 	4923 	0.055513
39.55 	0.054279 	4919 	0.053565
39.57 	0.064261 	4933 	0.062480
39.59 	0.056393 	4912 	0.055796
39.61 	0.056267 	4923 	0.055315
39.63 	0.056481 	4922 	0.055767
39.65 	0.050548 	4926 	0.049835
39.67 	0.056177 	4913 	0.055224
39.69 	0.054719 	4916 	0.054123
39.71 	0.052298 	4895 	0.051102
39.73 	0.061532 	4908 	0.060935
39.75 	0.053166 	4928 	0.052215
39.77 	0.050659 	4935 	0.049709
39.79 	0.048721 	4926 	0.048364
39.81 	0.053988 	4927 	0.052562
39.83 	0.058776 	4934 	0.057945
39.85 	0.055409 	4927 	0.053576
39.87 	0.051371 	4925 	0.050657
39.89 	0.058573 	4934 	0.057742
39.91 	0.056278 	4922 	0.054830
39.93 	0.054689 	4937 	0.053839
39.95 	0.051882 	4915 	0.051048
39.97 	0.051136 	4928 	0.050542
39.99 	0.064477 	4932 	0.063408
40.01 	0.051037 	4918 	0.050203
40.03 	0.053369 	4928 	0.053131
40.05 	0.048403 	4917 	0.047808
40.07 	0.051798 	4923 	0.051560
40.09 	0.051058 	4916 	0.050462
40.11 	0.051058 	4916 	0.050700
40.13 	0.053717 	4896 	0.052162
40.15 	0.050885 	4913 	0.049932
40.17 	0.056615 	4928 	0.055783
40.19 	0.050923 	4929 	0.050329
40.21 	0.047011 	4935 	0.046774
40.23 	0.051095 	4932 	0.050501
40.25 	0.050407 	4920 	0.049692
40.27 	0.051043 	4937 	0.050213
40.29 	0.050335 	4927 	0.049859
40.31 	0.060944 	4939 	0.060232
40.33 	0.051500 	4932 	0.051263
40.35 	0.048587 	4919 	0.047873
40.37 	0.049503 	4929 	0.048414
40.39 	0.049077 	4931 	0.048840
40.41 	0.052386 	4925 	0.051791
40.43 	0.054856 	4922 	0.053785
40.45 	0.051287 	4933 	0.050436
40.47 	0.052460 	4918 	0.051507
40.49 	0.046894 	4926 	0.046299
40.51 	0.054653 	4922 	0.054177
40.53 	0.049430 	4916 	0.049192
40.55 	0.049511 	4908 	0.049014
40.57 	0.059305 	4890 	0.058107
40.59 	0.052461 	4937 	0.051868
40.61 	0.050861 	4935 	0.050030
40.63 	0.053753 	4930 	0.052564
40.65 	0.051246 	4937 	0.050415
40.67 	0.050689 	4932 	0.049620
40.69 	0.057120 	4937 	0.055914
40.71 	0.054745 	4932 	0.054032
40.73 	0.053593 	4926 	0.052503
40.75 	0.054350 	4931 	0.053400
40.77 	0.047176 	4939 	0.046820
40.79 	0.051381 	4924 	0.050291
40.81 	0.053633 	4941 	0.053514
40.83 	0.052151 	4928 	0.051438
40.85 	0.053412 	4924 	0.053055
40.87 	0.044846 	4928 	0.044608
40.89 	0.047252 	4931 	0.046421
40.91 	0.048345 	4923 	0.047274
40.93 	0.050466 	4934 	0.048765
40.95 	0.044576 	4913 	0.043960
40.97 	0.047929 	4924 	0.046858
40.99 	0.052396 	4924 	0.051445
41.01 	0.055578 	4912 	0.054743
41.03 	0.049745 	4905 	0.049029
41.05 	0.050648 	4936 	0.049679
41.07 	0.058215 	4930 	0.057264
41.09 	0.051022 	4939 	0.050667
41.11 	0.054509 	4935 	0.053678
41.13 	0.044368 	4936 	0.043399
41.15 	0.053633 	4941 	0.053040
41.17 	0.047021 	4934 	0.045952
41.19 	0.045639 	4930 	0.044926
41.21 	0.054081 	4937 	0.053370
41.23 	0.051630 	4939 	0.051155
41.25 	0.050071 	4933 	0.048646
41.27 	0.047658 	4931 	0.046945
41.29 	0.046266 	4928 	0.045553
41.31 	0.049463 	4933 	0.048988
41.33 	0.046384 	4937 	0.045910
41.35 	0.058526 	4938 	0.056984
41.37 	0.049553 	4924 	0.048483
41.39 	0.051895 	4933 	0.051302
41.41 	0.053593 	4926 	0.052761
41.43 	0.039765 	4929 	0.039170
41.45 	0.052707 	4914 	0.051733
41.47 	0.053999 	4926 	0.052810
41.49 	0.050491 	4892 	0.049413
41.51 	0.056275 	4940 	0.055564
41.53 	0.052184 	4944 	0.051355
41.55 	0.050051 	4935 	0.049576
41.57 	0.050799 	4941 	0.050088
41.59 	0.054328 	4933 	0.053378
41.61 	0.047042 	4953 	0.045958
41.63 	0.052248 	4938 	0.051299
41.65 	0.044837 	4929 	0.043886
41.67 	0.047976 	4940 	0.047501
41.69 	0.052153 	4947 	0.051442
41.71 	0.049250 	4934 	0.048300
41.73 	0.050446 	4936 	0.049615
41.75 	0.054778 	4929 	0.053827
41.77 	0.045942 	4941 	0.045705
41.79 	0.048544 	4944 	0.047833
41.81 	0.054295 	4936 	0.053939
41.83 	0.050933 	4928 	0.050101
41.85 	0.044746 	4939 	0.044133
41.87 	0.053293 	4935 	0.052462
41.89 	0.054733 	4933 	0.053783
41.91 	0.051661 	4936 	0.050831
41.93 	0.044607 	4932 	0.044132
41.95 	0.041777 	4931 	0.040807
41.97 	0.049858 	4914 	0.049023
41.99 	0.047299 	4905 	0.046940
42.01 	0.046742 	4942 	0.045912
42.03 	0.049808 	4939 	0.049333
42.05 	0.049273 	4952 	0.048445
42.07 	0.046384 	4937 	0.045791
42.09 	0.048302 	4948 	0.047710
42.11 	0.047523 	4945 	0.046812
42.13 	0.045096 	4945 	0.044267
42.15 	0.046780 	4938 	0.046187
42.17 	0.049410 	4918 	0.048338
42.19 	0.052160 	4908 	0.051444
42.21 	0.046929 	4901 	0.046332
42.23 	0.044563 	4892 	0.043824
42.25 	0.046635 	4889 	0.045897
42.27 	0.043906 	4874 	0.043546
42.29 	0.051614 	4863 	0.050891
42.31 	0.053141 	4855 	0.052297
42.33 	0.045097 	4834 	0.044613
42.35 	0.044853 	4838 	0.043744
42.37 	0.048033 	4830 	0.047548
42.39 	0.049126 	4804 	0.048394
42.41 	0.044130 	4804 	0.043520
42.43 	0.051544 	4792 	0.050811
42.45 	0.053601 	4776 	0.052865
42.47 	0.050157 	4765 	0.049789
42.49 	0.048478 	4765 	0.047741
42.51 	0.045330 	4743 	0.044712
42.53 	0.047589 	4728 	0.046598
42.55 	0.047579 	4708 	0.047330
42.57 	0.046512 	4730 	0.045769
42.59 	0.049270 	4729 	0.048755
42.61 	0.047366 	4708 	0.046993
42.63 	0.045657 	4709 	0.045160
42.65 	0.046958 	4685 	0.046333
42.67 	0.049530 	4684 	0.048780
42.69 	0.043860 	4674 	0.043609
42.71 	0.046751 	4663 	0.045872
42.73 	0.051078 	4640 	0.050320
42.75 	0.045484 	4617 	0.044850
42.77 	0.044348 	4600 	0.043456
42.79 	0.051069 	4582 	0.050174
42.81 	0.042964 	4562 	0.042450
42.83 	0.053792 	4536 	0.052759
42.85 	0.049912 	4528 	0.049006
42.87 	0.046899 	4499 	0.046118
42.89 	0.042188 	4480 	0.041926
42.91 	0.049596 	4456 	0.048654
42.93 	0.052407 	4446 	0.051616
42.95 	0.040987 	4416 	0.040722
42.97 	0.044308 	4401 	0.043776
42.99 	0.044698 	4385 	0.044142
43.01 	0.046298 	4363 	0.045896
43.03 	0.048696 	4333 	0.047885
43.05 	0.046474 	4325 	0.045526
43.07 	0.050745 	4296 	0.050063
43.09 	0.041093 	4283 	0.040819
43.11 	0.052879 	4255 	0.052741
43.13 	0.046731 	4237 	0.046178
43.15 	0.048264 	4206 	0.047568
43.17 	0.043073 	4179 	0.042932
43.19 	0.048164 	4194 	0.047326
43.21 	0.041946 	4172 	0.041525
43.23 	0.056091 	4154 	0.054398
43.25 	0.048851 	4135 	0.047978
43.27 	0.051157 	4105 	0.050420
43.29 	0.043415 	4100 	0.042272
43.31 	0.046825 	4079 	0.046251
43.33 	0.042706 	4051 	0.041838
43.35 	0.046131 	4032 	0.045526
43.37 	0.050560 	4015 	0.049831
43.39 	0.050475 	4002 	0.049889
43.41 	0.044058 	3972 	0.043468
43.43 	0.047475 	3960 	0.047179
43.45 	0.043710 	3935 	0.043264
43.47 	0.051262 	3921 	0.050515
43.49 	0.052091 	3897 	0.051640
43.51 	0.047717 	3877 	0.047113
43.53 	0.050220 	3863 	0.049007
43.55 	0.045884 	2964 	0.045489
43.57 	0.046917 	2238 	0.045085
43.59 	0.041810 	1746 	0.041810
43.61 	0.051813 	1351 	0.051380
43.63 	0.037962 	1001 	0.037962
43.65 	0.036390 	687 	0.036390
43.67 	0.045817 	502 	0.045817
43.69 	0.054496 	367 	0.054496
43.71 	0.046025 	239 	0.046025
43.73 	0.025000 	120 	0.025000
43.75 	0.000000 	16 	0.000000