File: Example_Data/25SC_s1_0052.004.dat
#F C:\frames\spec\25SC_s1_0052.004
#C title =s:52 frm:4 25SC_s1
#C wavelength =0.15406

#S 1  fr_average C:\frames\spec\25SC_s1_0052.004 C:\win32app\speccom\mask.axs chi 0 180 0 360 0.02
#C 2 theta =0.000000 to 180 deg
#C   q   =0.000000 to 81.568 nm^-1
#C  chi  =0.000000 to 360 deg
#C collumns:
#C  1 position (2theta or chi in degrees)
#C  2 average intensity (sum of all counts in the region divided with number of pixels)
#C  3 Number of pixels in region)
#C  4 error (sum of sqrt(intensity) for all pixels divided by number)
#N 4
#L TTh  Int  N_pix  Err
32.99 	0.016393 	61 	0.016393
33.01 	0.065292 	873 	0.062608
33.03 	0.081237 	1391 	0.078710
33.05 	0.069437 	1757 	0.068103
33.07 	0.069756 	2050 	0.068613
33.09 	0.069876 	2347 	0.068628
33.11 	0.070958 	2579 	0.069595
33.13 	0.076978 	2793 	0.075091
33.15 	0.075358 	2999 	0.073601
33.17 	0.079350 	3201 	0.077856
33.19 	0.073309 	3342 	0.072258
33.21 	0.065774 	3436 	0.064212
33.23 	0.068691 	3523 	0.066862
33.25 	0.067553 	3612 	0.066255
33.27 	0.065289 	3630 	0.063837
33.29 	0.067434 	3648 	0.066765
33.31 	0.071585 	3660 	0.069664
33.33 	0.068367 	3686 	0.067254
33.35 	0.069843 	3694 	0.067940
33.37 	0.071621 	3714 	0.070201
33.39 	0.066506 	3729 	0.065406
33.41 	0.072460 	3740 	0.070894
33.43 	0.071524 	3761 	0.069499
33.45 	0.067320 	3773 	0.066078
33.47 	0.070827 	3798 	0.069130
33.49 	0.066947 	3809 	0.065716
33.51 	0.070773 	3815 	0.069698
33.53 	0.070555 	3841 	0.069029
33.55 	0.069737 	3843 	0.069432
33.57 	0.082022 	3877 	0.079756
33.59 	0.068299 	3880 	0.066613
33.61 	0.067536 	3909 	0.065888
33.63 	0.072467 	3919 	0.071571
33.65 	0.065632 	3931 	0.064440
33.67 	0.066515 	3954 	0.064589
33.69 	0.069820 	3953 	0.068783
33.71 	0.070943 	3975 	0.069470
33.73 	0.072178 	4004 	0.070422
33.75 	0.067267 	3999 	0.066681
33.77 	0.067081 	4025 	0.065747
33.79 	0.065083 	4041 	0.063175
33.81 	0.073304 	4038 	0.071853
33.83 	0.065185 	4050 	0.062703
33.85 	0.064894 	4099 	0.064179
33.87 	0.070056 	4111 	0.069343
33.89 	0.064547 	4121 	0.063837
33.91 	0.068450 	4149 	0.067603
33.93 	0.070826 	4151 	0.069838
33.95 	0.071753 	4181 	0.070632
33.97 	0.068019 	4190 	0.066062
33.99 	0.073571 	4200 	0.071619
34.01 	0.067648 	4213 	0.066396
34.03 	0.071159 	4244 	0.069641
34.05 	0.068674 	4252 	0.067571
34.07 	0.062793 	4268 	0.061535
34.09 	0.062762 	4286 	0.061783
34.11 	0.056485 	4302 	0.055646
34.13 	0.079387 	4308 	0.077755
34.15 	0.067652 	4331 	0.066164
34.17 	0.059770 	4350 	0.057481
34.19 	0.070839 	4362 	0.068937
34.21 	0.067033 	4371 	0.065000
34.23 	0.072160 	4393 	0.070693
34.25 	0.066303 	4404 	0.065239
34.27 	0.063998 	4422 	0.062673
34.29 	0.068095 	4435 	0.066642
34.31 	0.064827 	4458 	0.063623
34.33 	0.066875 	4471 	0.065151
34.35 	0.072480 	4484 	0.070499
34.37 	0.071922 	4491 	0.070074
34.39 	0.067970 	4502 	0.066278
34.41 	0.066284 	4526 	0.064731
34.43 	0.068958 	4539 	0.067796
34.45 	0.065932 	4535 	0.064511
34.47 	0.065549 	4592 	0.064273
34.49 	0.067653 	4597 	0.066379
34.51 	0.069475 	4606 	0.067440
34.53 	0.069782 	4643 	0.068626
34.55 	0.066121 	4643 	0.065112
34.57 	0.070815 	4660 	0.068511
34.59 	0.067594 	4675 	0.066591
34.61 	0.060464 	4697 	0.059217
34.63 	0.063057 	4710 	0.061938
34.65 	0.063334 	4721 	0.061845
34.67 	0.069184 	4741 	0.067825
34.69 	0.064788 	4754 	0.063062
34.71 	0.063785 	4766 	0.062802
34.73 	0.066221 	4787 	0.064488
34.75 	0.061980 	4808 	0.061371
34.77 	0.066210 	4818 	0.065481
34.79 	0.069859 	4824 	0.068280
34.81 	0.065635 	4845 	0.064547
34.83 	0.061909 	4862 	0.060824
34.85 	0.069008 	4869 	0.067304
34.87 	0.065325 	4868 	0.063119
34.89 	0.070053 	4882 	0.068733
34.91 	0.070258 	4882 	0.069298
34.93 	0.068790 	4899 	0.067096
34.95 	0.070961 	4890 	0.069404
34.97 	0.064055 	4902 	0.062144
34.99 	0.068001 	4897 	0.066685
35.01 	0.062970 	4923 	0.061165
35.03 	0.065750 	4943 	0.064920
35.05 	0.072165 	4947 	0.070744
35.07 	0.067814 	4940 	0.066154
35.09 	0.068847 	4953 	0.067783
35.11 	0.062664 	4947 	0.061835
35.13 	0.068778 	4958 	0.066868
35.15 	0.066640 	4937 	0.065334
35.17 	0.073190 	4946 	0.071177
35.19 	0.063132 	4942 	0.061710
35.21 	0.071385 	4945 	0.069845
35.23 	0.063701 	4945 	0.062635
35.25 	0.059680 	4943 	0.058377
35.27 	0.065279 	4948 	0.064450
35.29 	0.067947 	4945 	0.066289
35.31 	0.062437 	4933 	0.061724
35.33 	0.068582 	4943 	0.066804
35.35 	0.071631 	4942 	0.070090
35.37 	0.065803 	4939 	0.064142
35.39 	0.073407 	4945 	0.070999
35.41 	0.066179 	4926 	0.065228
35.43 	0.065477 	4933 	0.064527
35.45 	0.065829 	4937 	0.064267
35.47 	0.063070 	4931 	0.061645
35.49 	0.067617 	4910 	0.066185
35.51 	0.068616 	4926 	0.067030
35.53 	0.065266 	4949 	0.064200
35.55 	0.065116 	4945 	0.063932
35.57 	0.068518 	4933 	0.067449
35.59 	0.071385 	4945 	0.069727
35.61 	0.066168 	4942 	0.065101
35.63 	0.063929 	4943 	0.062862
35.65 	0.069363 	4945 	0.067705
35.67 	0.065561 	4942 	0.063783
35.69 	0.067934 	4946 	0.066749
35.71 	0.069678 	4937 	0.068116
35.73 	0.068882 	4936 	0.067102
35.75 	0.063679 	4931 	0.062610
35.77 	0.059988 	4951 	0.058904
35.79 	0.061436 	4932 	0.060367
35.81 	0.059396 	4933 	0.058921
35.83 	0.070158 	4946 	0.067552
35.85 	0.064235 	4935 	0.063009
35.87 	0.059923 	4923 	0.059209
35.89 	0.065261 	4934 	0.065024
35.91 	0.064745 	4927 	0.063893
35.93 	0.066978 	4927 	0.065789
35.95 	0.065487 	4917 	0.064038
35.97 	0.065757 	4912 	0.063691
35.99 	0.064588 	4939 	0.063382
36.01 	0.067140 	4930 	0.065476
36.03 	0.068784 	4943 	0.068073
36.05 	0.072599 	4945 	0.071532
36.07 	0.069042 	4939 	0.067856
36.09 	0.068421 	4940 	0.066642
36.11 	0.069994 	4929 	0.068192
36.13 	0.072036 	4942 	0.070732
36.15 	0.065803 	4939 	0.064380
36.17 	0.067817 	4925 	0.066866
36.19 	0.071457 	4940 	0.070272
36.21 	0.059444 	4929 	0.058731
36.23 	0.067882 	4935 	0.065746
36.25 	0.066586 	4941 	0.065519
36.27 	0.064365 	4925 	0.063295
36.29 	0.068140 	4931 	0.066477
36.31 	0.071226 	4928 	0.069799
36.33 	0.070545 	4933 	0.068883
36.35 	0.066951 	4929 	0.065406
36.37 	0.069470 	4923 	0.067804
36.39 	0.075391 	4921 	0.074201
36.41 	0.068627 	4896 	0.067172
36.43 	0.073255 	4928 	0.071828
36.45 	0.062880 	4930 	0.062167
36.47 	0.066653 	4936 	0.065466
36.49 	0.074666 	4942 	0.072888
36.51 	0.071153 	4933 	0.069491
36.53 	0.069593 	4943 	0.068171
36.55 	0.063325 	4927 	0.062373
36.57 	0.068504 	4934 	0.067198
36.59 	0.062766 	4939 	0.061580
36.61 	0.067938 	4931 	0.066136
36.63 	0.064490 	4931 	0.063758
36.65 	0.068532 	4932 	0.067819
36.67 	0.067951 	4930 	0.066149
36.69 	0.068574 	4929 	0.067623
36.71 	0.064621 	4921 	0.063312
36.73 	0.059289 	4925 	0.057605
36.75 	0.069175 	4944 	0.067634
36.77 	0.064037 	4919 	0.062013
36.79 	0.068685 	4921 	0.067138
36.81 	0.067331 	4916 	0.066497
36.83 	0.065717 	4915 	0.063413
36.85 	0.064312 	4898 	0.062857
36.87 	0.068770 	4944 	0.067230
36.89 	0.064280 	4916 	0.063188
36.91 	0.067598 	4941 	0.066175
36.93 	0.062069 	4930 	0.061237
36.95 	0.067505 	4933 	0.066673
36.97 	0.066477 	4934 	0.064529
36.99 	0.069706 	4935 	0.068282
37.01 	0.064261 	4933 	0.063192
37.03 	0.067831 	4924 	0.066007
37.05 	0.064542 	4927 	0.063116
37.07 	0.060385 	4935 	0.059198
37.09 	0.072849 	4928 	0.070828
37.11 	0.070111 	4935 	0.069162
37.13 	0.058692 	4924 	0.057740
37.15 	0.058668 	4909 	0.058190
37.17 	0.065059 	4934 	0.063990
37.19 	0.069645 	4925 	0.068098
37.21 	0.064674 	4917 	0.063701
37.23 	0.056527 	4918 	0.055812
37.25 	0.063124 	4911 	0.061334
37.27 	0.061708 	4894 	0.060751
37.29 	0.069980 	4930 	0.069267
37.31 	0.063222 	4935 	0.062391
37.33 	0.060280 	4927 	0.059091
37.35 	0.065209 	4938 	0.062935
37.37 	0.071646 	4927 	0.070219
37.39 	0.062665 	4931 	0.061596
37.41 	0.067938 	4931 	0.066868
37.43 	0.061030 	4932 	0.059466
37.45 	0.064175 	4924 	0.062966
37.47 	0.062893 	4929 	0.061705
37.49 	0.063579 	4923 	0.062270
37.51 	0.066491 	4933 	0.065303
37.53 	0.063224 	4919 	0.062510
37.55 	0.062069 	4930 	0.060861
37.57 	0.068020 	4925 	0.066950
37.59 	0.068159 	4915 	0.066729
37.61 	0.061560 	4922 	0.060370
37.63 	0.061801 	4919 	0.061444
37.65 	0.060390 	4918 	0.059557
37.67 	0.066069 	4904 	0.064496
37.69 	0.062883 	4898 	0.061687
37.71 	0.061270 	4929 	0.060082
37.73 	0.067762 	4929 	0.066811
37.75 	0.063158 	4940 	0.061735
37.77 	0.061992 	4920 	0.061158
37.79 	0.064097 	4930 	0.063028
37.81 	0.066288 	4933 	0.065220
37.83 	0.061179 	4920 	0.060226
37.85 	0.061560 	4922 	0.060608
37.87 	0.059931 	4939 	0.059220
37.89 	0.063756 	4925 	0.062567
37.91 	0.058215 	4930 	0.057264
37.93 	0.054889 	4919 	0.053817
37.95 	0.054867 	4921 	0.054391
37.97 	0.063299 	4929 	0.061873
37.99 	0.062704 	4912 	0.061750
38.01 	0.061688 	4928 	0.060500
38.03 	0.059279 	4909 	0.057489
38.05 	0.061320 	4925 	0.059873
38.07 	0.059686 	4909 	0.058970
38.09 	0.058221 	4878 	0.056900
38.11 	0.059372 	4935 	0.057947
38.13 	0.062994 	4937 	0.062045
38.15 	0.068727 	4918 	0.067397
38.17 	0.062475 	4930 	0.061762
38.19 	0.067951 	4930 	0.066525
38.21 	0.067439 	4923 	0.066011
38.23 	0.075537 	4938 	0.073876
38.25 	0.064267 	4917 	0.062837
38.27 	0.069777 	4930 	0.068094
38.29 	0.063363 	4924 	0.062273
38.31 	0.065151 	4927 	0.064200
38.33 	0.075548 	4924 	0.073288
38.35 	0.077516 	4928 	0.074862
38.37 	0.074736 	4924 	0.073189
38.39 	0.074557 	4909 	0.073602
38.41 	0.074345 	4923 	0.072659
38.43 	0.079740 	4916 	0.077833
38.45 	0.078487 	4918 	0.075986
38.47 	0.074587 	4907 	0.072797
38.49 	0.080172 	4877 	0.079091
38.51 	0.075223 	4932 	0.073085
38.53 	0.082978 	4929 	0.080681
38.55 	0.074352 	4936 	0.072196
38.57 	0.070485 	4923 	0.069415
38.59 	0.073111 	4924 	0.071208
38.61 	0.082050 	4936 	0.080607
38.63 	0.071690 	4924 	0.070381
38.65 	0.078691 	4918 	0.076666
38.67 	0.078995 	4937 	0.076266
38.69 	0.063389 	4922 	0.062437
38.71 	0.069456 	4924 	0.068246
38.73 	0.069134 	4918 	0.067824
38.75 	0.063122 	4927 	0.061695
38.77 	0.066423 	4923 	0.065114
38.79 	0.058573 	4934 	0.057623
38.81 	0.065350 	4912 	0.064038
38.83 	0.056312 	4919 	0.055240
38.85 	0.054357 	4912 	0.053403
38.87 	0.059866 	4911 	0.059150
38.89 	0.053706 	4897 	0.052869
38.91 	0.057516 	4903 	0.056799
38.93 	0.053665 	4938 	0.052242
38.95 	0.054290 	4918 	0.053695
38.97 	0.050700 	4931 	0.050106
38.99 	0.056917 	4937 	0.055849
39.01 	0.058967 	4918 	0.058372
39.03 	0.052493 	4934 	0.051167
39.05 	0.054213 	4925 	0.053381
39.07 	0.056458 	4924 	0.055269
39.09 	0.050782 	4923 	0.050187
39.11 	0.062259 	4931 	0.060576
39.13 	0.052204 	4923 	0.051371
39.15 	0.059817 	4915 	0.058744
39.17 	0.055904 	4937 	0.055311
39.19 	0.059182 	4917 	0.058110
39.21 	0.050306 	4910 	0.049470
39.23 	0.052995 	4925 	0.051667
39.25 	0.055059 	4922 	0.053869
39.27 	0.058045 	4910 	0.056832
39.29 	0.050602 	4901 	0.050004
39.31 	0.056306 	4884 	0.055467
39.33 	0.049280 	4931 	0.048805
39.35 	0.056535 	4935 	0.055704
39.37 	0.052546 	4929 	0.051477
39.39 	0.051532 	4929 	0.051056
39.41 	0.052728 	4931 	0.052252
39.43 	0.054733 	4933 	0.053783
39.45 	0.051980 	4925 	0.051009
39.47 	0.052813 	4923 	0.052218
39.49 	0.051287 	4933 	0.050080
39.51 	0.049756 	4924 	0.048567
39.53 	0.058095 	4923 	0.056667
39.55 	0.050010 	4919 	0.049534
39.57 	0.052909 	4933 	0.052078
39.59 	0.050489 	4912 	0.049396
39.61 	0.052001 	4923 	0.051525
39.63 	0.051605 	4922 	0.051367
39.65 	0.053593 	4926 	0.052642
39.67 	0.054549 	4913 	0.053834
39.69 	0.050854 	4916 	0.049881
39.71 	0.052707 	4895 	0.051869
39.73 	0.045232 	4908 	0.044516
39.75 	0.054789 	4928 	0.053481
39.77 	0.050659 	4935 	0.050184
39.79 	0.053796 	4926 	0.052845
39.81 	0.058656 	4927 	0.057705
39.83 	0.054317 	4934 	0.053367
39.85 	0.053379 	4927 	0.052666
39.87 	0.056041 	4925 	0.055327
39.89 	0.047629 	4934 	0.047510
39.91 	0.050386 	4922 	0.049910
39.93 	0.055094 	4937 	0.054501
39.95 	0.048627 	4915 	0.048388
39.97 	0.056209 	4928 	0.055258
39.99 	0.053325 	4932 	0.052494
40.01 	0.050630 	4918 	0.049558
40.03 	0.051948 	4928 	0.051235
40.05 	0.059386 	4917 	0.058671
40.07 	0.052204 	4923 	0.050895
40.09 	0.048007 	4916 	0.047172
40.11 	0.045159 	4916 	0.044682
40.13 	0.044730 	4896 	0.044491
40.15 	0.047629 	4913 	0.047152
40.17 	0.054383 	4928 	0.053670
40.19 	0.051126 	4929 	0.050532
40.21 	0.050861 	4935 	0.049773
40.23 	0.052514 	4932 	0.051445
40.25 	0.047561 	4920 	0.047323
40.27 	0.045372 	4937 	0.045253
40.29 	0.053582 	4927 	0.052869
40.31 	0.047783 	4939 	0.047309
40.33 	0.048054 	4932 	0.047460
40.35 	0.053466 	4919 	0.052752
40.37 	0.051938 	4929 	0.051343
40.39 	0.046441 	4931 	0.045372
40.41 	0.052386 	4925 	0.050958
40.43 	0.053840 	4922 	0.052769
40.45 	0.051693 	4933 	0.050861
40.47 	0.048190 	4918 	0.047357
40.49 	0.048315 	4926 	0.047245
40.51 	0.044494 	4922 	0.043542
40.53 	0.054516 	4916 	0.054039
40.55 	0.054808 	4908 	0.053973
40.57 	0.050716 	4890 	0.049757
40.59 	0.056309 	4937 	0.055360
40.61 	0.043566 	4935 	0.042735
40.63 	0.052738 	4930 	0.051649
40.65 	0.048613 	4937 	0.048019
40.67 	0.055556 	4932 	0.054487
40.69 	0.053474 	4937 	0.052643
40.71 	0.051095 	4932 	0.050857
40.73 	0.051360 	4926 	0.050766
40.75 	0.054147 	4931 	0.052722
40.77 	0.053047 	4939 	0.051980
40.79 	0.053412 	4924 	0.052460
40.81 	0.053430 	4941 	0.052700
40.83 	0.051542 	4928 	0.050710
40.85 	0.046101 	4924 	0.045506
40.87 	0.047890 	4928 	0.047533
40.89 	0.049280 	4931 	0.048330
40.91 	0.047532 	4923 	0.047294
40.93 	0.048439 	4934 	0.047965
40.95 	0.048239 	4913 	0.047624
40.97 	0.049147 	4924 	0.048671
40.99 	0.044476 	4924 	0.044357
41.01 	0.051303 	4912 	0.050826
41.03 	0.049134 	4905 	0.048298
41.05 	0.050243 	4936 	0.049294
41.07 	0.053550 	4930 	0.052837
41.09 	0.044341 	4939 	0.043629
41.11 	0.053698 	4935 	0.053105
41.13 	0.053079 	4936 	0.052486
41.15 	0.046549 	4941 	0.045601
41.17 	0.046615 	4934 	0.045784
41.19 	0.046856 	4930 	0.046143
41.21 	0.048005 	4937 	0.046462
41.23 	0.041304 	4939 	0.040948
41.25 	0.048855 	4933 	0.047905
41.27 	0.047252 	4931 	0.047133
41.29 	0.048904 	4928 	0.048310
41.31 	0.048449 	4933 	0.047618
41.33 	0.052664 	4937 	0.051477
41.35 	0.048603 	4938 	0.047891
41.37 	0.051787 	4924 	0.051073
41.39 	0.044395 	4933 	0.043920
41.41 	0.047909 	4926 	0.047552
41.43 	0.047880 	4929 	0.047405
41.45 	0.049044 	4914 	0.048328
41.47 	0.043849 	4926 	0.043254
41.49 	0.049673 	4892 	0.048954
41.51 	0.050607 	4940 	0.049540
41.53 	0.049353 	4944 	0.048523
41.55 	0.050051 	4935 	0.049457
41.57 	0.052216 	4941 	0.051386
41.59 	0.046827 	4933 	0.046234
41.61 	0.051484 	4953 	0.050893
41.63 	0.045768 	4938 	0.045174
41.65 	0.046054 	4929 	0.045579
41.67 	0.045951 	4940 	0.045596
41.69 	0.046493 	4947 	0.046019
41.71 	0.050669 	4934 	0.049462
41.73 	0.049838 	4936 	0.048770
41.75 	0.054778 	4929 	0.054302
41.77 	0.046752 	4941 	0.046396
41.79 	0.050769 	4944 	0.049939
41.81 	0.047204 	4936 	0.046611
41.83 	0.050122 	4928 	0.049290
41.85 	0.044543 	4939 	0.044069
41.87 	0.047416 	4935 	0.047060
41.89 	0.044800 	4933 	0.044068
41.91 	0.044165 	4936 	0.043335
41.93 	0.044404 	4932 	0.043790
41.95 	0.049077 	4931 	0.048602
41.97 	0.044770 	4914 	0.044293
41.99 	0.043221 	4905 	0.042863
42.01 	0.050384 	4942 	0.048943
42.03 	0.044138 	4939 	0.043664
42.05 	0.047859 	4952 	0.047150
42.07 	0.048005 	4937 	0.047412
42.09 	0.048707 	4948 	0.048233
42.11 	0.052376 	4945 	0.051902
42.13 	0.044894 	4945 	0.044420
42.15 	0.047388 	4938 	0.046676
42.17 	0.043514 	4918 	0.042680
42.19 	0.046455 	4908 	0.045739
42.21 	0.046929 	4901 	0.045973
42.23 	0.044358 	4892 	0.043759
42.25 	0.048272 	4889 	0.047673
42.27 	0.045753 	4874 	0.045032
42.29 	0.044211 	4863 	0.043609
42.31 	0.045520 	4855 	0.044314
42.33 	0.049235 	4834 	0.048144
42.35 	0.041959 	4838 	0.041596
42.37 	0.041615 	4830 	0.041251
42.39 	0.050999 	4804 	0.050511
42.41 	0.045587 	4804 	0.045221
42.43 	0.042988 	4792 	0.041501
42.45 	0.044179 	4776 	0.043198
42.47 	0.048269 	4765 	0.048023
42.49 	0.048898 	4765 	0.048284
42.51 	0.044065 	4743 	0.043077
42.53 	0.050973 	4728 	0.050477
42.55 	0.042056 	4708 	0.041683
42.57 	0.045032 	4730 	0.044412
42.59 	0.043561 	4729 	0.042818
42.61 	0.044817 	4708 	0.044568
42.63 	0.042260 	4709 	0.042011
42.65 	0.047385 	4685 	0.046760
42.67 	0.044193 	4684 	0.043193
42.69 	0.040864 	4674 	0.040238
42.71 	0.047823 	4663 	0.046693
42.73 	0.048276 	4640 	0.047771
42.75 	0.049166 	4617 	0.048130
42.77 	0.044565 	4600 	0.043546
42.79 	0.041030 	4582 	0.040519
42.81 	0.048663 	4562 	0.047764
42.83 	0.043871 	4536 	0.043484
42.85 	0.047261 	4528 	0.046615
42.87 	0.049567 	4499 	0.048634
42.89 	0.050670 	4480 	0.049624
42.91 	0.051840 	4456 	0.051051
42.93 	0.047683 	4446 	0.046893
42.95 	0.040761 	4416 	0.039965
42.97 	0.039536 	4401 	0.039004
42.99 	0.048347 	4385 	0.047679
43.01 	0.052716 	4363 	0.051642
43.03 	0.045234 	4333 	0.044423
43.05 	0.042312 	4325 	0.041770
43.07 	0.046322 	4296 	0.045640
43.09 	0.050899 	4283 	0.050352
43.11 	0.049589 	4255 	0.049176
43.13 	0.042011 	4237 	0.041596
43.15 	0.045649 	4206 	0.045231
43.17 	0.040201 	4179 	0.039500
43.19 	0.049118 	4194 	0.048140
43.21 	0.045302 	4172 	0.044600
43.23 	0.046461 	4154 	0.046320
43.25 	0.046917 	4135 	0.046468
43.27 	0.043849 	4105 	0.043278
43.29 	0.050244 	4100 	0.049363
43.31 	0.041187 	4079 	0.040612
43.33 	0.042459 	4051 	0.042314
43.35 	0.041915 	4032 	0.040898
43.37 	0.041843 	4015 	0.041697
43.39 	0.044978 	4002 	0.043953
43.41 	0.044310 	3972 	0.043425
43.43 	0.043182 	3960 	0.042590
43.45 	0.044473 	3935 	0.043728
43.47 	0.044121 	3921 	0.043524
43.49 	0.041827 	3897 	0.041226
43.51 	0.044106 	3877 	0.043653
43.53 	0.040901 	3863 	0.040421
43.55 	0.048246 	2964 	0.047850
43.57 	0.051385 	2238 	0.050338
43.59 	0.041810 	1746 	0.041474
43.61 	0.053294 	1351 	0.052427
43.63 	0.048951 	1001 	0.048366
43.65 	0.036390 	687 	0.036390
43.67 	0.043825 	502 	0.043825
43.69 	0.051771 	367 	0.051771
43.71 	0.037657 	239 	0.035206
43.73 	0.058333 	120 	0.058333
43.75 	0.062500 	16 	0.062500