File: Example_Data/25SC_s1_0051.004.dat
#F C:\frames\spec\25SC_s1_0051.004
#C title =s:51 frm:4 25SC_s1
#C wavelength =0.15406

#S 1  fr_average C:\frames\spec\25SC_s1_0051.004 C:\win32app\speccom\mask.axs chi 0 180 0 360 0.02
#C 2 theta =0.000000 to 180 deg
#C   q   =0.000000 to 81.568 nm^-1
#C  chi  =0.000000 to 360 deg
#C collumns:
#C  1 position (2theta or chi in degrees)
#C  2 average intensity (sum of all counts in the region divided with number of pixels)
#C  3 Number of pixels in region)
#C  4 error (sum of sqrt(intensity) for all pixels divided by number)
#N 4
#L TTh  Int  N_pix  Err
32.99 	0.032787 	61 	0.032787
33.01 	0.046964 	873 	0.044951
33.03 	0.050324 	1391 	0.048218
33.05 	0.042686 	1757 	0.042686
33.07 	0.054634 	2050 	0.054063
33.09 	0.054112 	2347 	0.052614
33.11 	0.054285 	2579 	0.053376
33.13 	0.059076 	2793 	0.058237
33.15 	0.048349 	2999 	0.046950
33.17 	0.057170 	3201 	0.056438
33.19 	0.046978 	3342 	0.046101
33.21 	0.053842 	3436 	0.053501
33.23 	0.050241 	3523 	0.049077
33.25 	0.053433 	3612 	0.052460
33.27 	0.055372 	3630 	0.054081
33.29 	0.051535 	3648 	0.051053
33.31 	0.051639 	3660 	0.051319
33.33 	0.056158 	3686 	0.054861
33.35 	0.047645 	3694 	0.047486
33.37 	0.054389 	3714 	0.053600
33.39 	0.048002 	3729 	0.047217
33.41 	0.054011 	3740 	0.053228
33.43 	0.049189 	3761 	0.048410
33.45 	0.043997 	3773 	0.043842
33.47 	0.060558 	3798 	0.059633
33.49 	0.052770 	3809 	0.052616
33.51 	0.057143 	3815 	0.055607
33.53 	0.054934 	3841 	0.054019
33.55 	0.054385 	3843 	0.053775
33.57 	0.050297 	3877 	0.050146
33.59 	0.054897 	3880 	0.053689
33.61 	0.053211 	3909 	0.052549
33.63 	0.049502 	3919 	0.048456
33.65 	0.051386 	3931 	0.050641
33.67 	0.057663 	3954 	0.056750
33.69 	0.049583 	3953 	0.049138
33.71 	0.047044 	3975 	0.046160
33.73 	0.055694 	4004 	0.055255
33.75 	0.046762 	3999 	0.046029
33.77 	0.048696 	4025 	0.048259
33.79 	0.058154 	4041 	0.057574
33.81 	0.052997 	4038 	0.052271
33.83 	0.049630 	4050 	0.048617
33.85 	0.051964 	4099 	0.051535
33.87 	0.050596 	4111 	0.050026
33.89 	0.051686 	4121 	0.051260
33.91 	0.055435 	4149 	0.054847
33.93 	0.051313 	4151 	0.050748
33.95 	0.049749 	4181 	0.048908
33.97 	0.061337 	4190 	0.060777
33.99 	0.050952 	4200 	0.050394
34.01 	0.052694 	4213 	0.051999
34.03 	0.052074 	4244 	0.051245
34.05 	0.051505 	4252 	0.051230
34.07 	0.052952 	4268 	0.052403
34.09 	0.050863 	4286 	0.050180
34.11 	0.053696 	4302 	0.053151
34.13 	0.054085 	4308 	0.052839
34.15 	0.052413 	4331 	0.051060
34.17 	0.053563 	4350 	0.052217
34.19 	0.046768 	4362 	0.046230
34.21 	0.056738 	4371 	0.056068
34.23 	0.049397 	4393 	0.048197
34.25 	0.050863 	4404 	0.050464
34.27 	0.055631 	4422 	0.054571
34.29 	0.052762 	4435 	0.051552
34.31 	0.059444 	4458 	0.058392
34.33 	0.047417 	4471 	0.046478
34.35 	0.051740 	4484 	0.050956
34.37 	0.051659 	4491 	0.051137
34.39 	0.053532 	4502 	0.053011
34.41 	0.057667 	4526 	0.056502
34.43 	0.056620 	4539 	0.055201
34.45 	0.052922 	4535 	0.051888
34.47 	0.044861 	4592 	0.044223
34.49 	0.047205 	4597 	0.046568
34.51 	0.053843 	4606 	0.052953
34.53 	0.055783 	4643 	0.055152
34.55 	0.049537 	4643 	0.049285
34.57 	0.052790 	4660 	0.052035
34.59 	0.057540 	4675 	0.056914
34.61 	0.053651 	4697 	0.052633
34.63 	0.055626 	4710 	0.055004
34.65 	0.050413 	4721 	0.049793
34.67 	0.053153 	4741 	0.052536
34.69 	0.053429 	4754 	0.052443
34.71 	0.057700 	4766 	0.056471
34.73 	0.054314 	4787 	0.053457
34.75 	0.052413 	4808 	0.052047
34.77 	0.047115 	4818 	0.046750
34.79 	0.057836 	4824 	0.056864
34.81 	0.051393 	4845 	0.050426
34.83 	0.058412 	4862 	0.056966
34.85 	0.057507 	4869 	0.056785
34.87 	0.050329 	4868 	0.049005
34.89 	0.051004 	4882 	0.050284
34.91 	0.053052 	4882 	0.052092
34.93 	0.054705 	4899 	0.053988
34.95 	0.050716 	4890 	0.050117
34.97 	0.055080 	4902 	0.053487
34.99 	0.051256 	4897 	0.049940
35.01 	0.055657 	4923 	0.054705
35.03 	0.051588 	4943 	0.050759
35.05 	0.057813 	4947 	0.056984
35.07 	0.053239 	4940 	0.052271
35.09 	0.057743 	4953 	0.056797
35.11 	0.056398 	4947 	0.055431
35.13 	0.052441 	4958 	0.051732
35.15 	0.049018 	4937 	0.048424
35.17 	0.050546 	4946 	0.049717
35.19 	0.048563 	4942 	0.048089
35.21 	0.046916 	4945 	0.045968
35.23 	0.051567 	4945 	0.050738
35.25 	0.052802 	4943 	0.051380
35.27 	0.050525 	4948 	0.049578
35.29 	0.051365 	4945 	0.050398
35.31 	0.048855 	4933 	0.048498
35.33 	0.051790 	4943 	0.051435
35.35 	0.054027 	4942 	0.053671
35.37 	0.060336 	4939 	0.059506
35.39 	0.045703 	4945 	0.044992
35.41 	0.048721 	4926 	0.047532
35.43 	0.054936 	4933 	0.053986
35.45 	0.053879 	4937 	0.052574
35.47 	0.054958 	4931 	0.054127
35.49 	0.056823 	4910 	0.055988
35.51 	0.049127 	4926 	0.048176
35.53 	0.051323 	4949 	0.050495
35.55 	0.047523 	4945 	0.047049
35.57 	0.055544 	4933 	0.054357
35.59 	0.057230 	4945 	0.056282
35.61 	0.052610 	4942 	0.051306
35.63 	0.049970 	4943 	0.048903
35.65 	0.051972 	4945 	0.051498
35.67 	0.046742 	4942 	0.045912
35.69 	0.051759 	4946 	0.050575
35.71 	0.054892 	4937 	0.053705
35.73 	0.049635 	4936 	0.049161
35.75 	0.053944 	4931 	0.053350
35.77 	0.055746 	4951 	0.055036
35.79 	0.047648 	4932 	0.046935
35.81 	0.048044 	4933 	0.047688
35.83 	0.047311 	4946 	0.046482
35.85 	0.043364 	4935 	0.043008
35.87 	0.054235 	4923 	0.053164
35.89 	0.053304 	4934 	0.052473
35.91 	0.047899 	4927 	0.047424
35.93 	0.053785 	4927 	0.052715
35.95 	0.053691 	4917 	0.052857
35.97 	0.049471 	4912 	0.048636
35.99 	0.048593 	4939 	0.048000
36.01 	0.048479 	4930 	0.047766
36.03 	0.056646 	4943 	0.055935
36.05 	0.054601 	4945 	0.053278
36.07 	0.055679 	4939 	0.054612
36.09 	0.048785 	4940 	0.048074
36.11 	0.051735 	4929 	0.050883
36.13 	0.055038 	4942 	0.053972
36.15 	0.053250 	4939 	0.052775
36.17 	0.051371 	4925 	0.050895
36.19 	0.051215 	4940 	0.050859
36.21 	0.048691 	4929 	0.048454
36.23 	0.052077 	4935 	0.051721
36.25 	0.059097 	4941 	0.057675
36.27 	0.052183 	4925 	0.051469
36.29 	0.057392 	4931 	0.055966
36.31 	0.051745 	4928 	0.050913
36.33 	0.052098 	4933 	0.051623
36.35 	0.053763 	4929 	0.052199
36.37 	0.054032 	4923 	0.053199
36.39 	0.052428 	4921 	0.051933
36.41 	0.046569 	4896 	0.046329
36.43 	0.052963 	4928 	0.052368
36.45 	0.050304 	4930 	0.048997
36.47 	0.054498 	4936 	0.053548
36.49 	0.050789 	4942 	0.050315
36.51 	0.049666 	4933 	0.049191
36.53 	0.049363 	4943 	0.048652
36.55 	0.056221 	4927 	0.055389
36.57 	0.048237 	4934 	0.047287
36.59 	0.054869 	4939 	0.053802
36.61 	0.055770 	4931 	0.054819
36.63 	0.050294 	4931 	0.048987
36.65 	0.044809 	4932 	0.044097
36.67 	0.055984 	4930 	0.054776
36.69 	0.051329 	4929 	0.050853
36.71 	0.056696 	4921 	0.056220
36.73 	0.051168 	4925 	0.050335
36.75 	0.056837 	4944 	0.056126
36.77 	0.055906 	4919 	0.054834
36.79 	0.046129 	4921 	0.045534
36.81 	0.052278 	4916 	0.051425
36.83 	0.053917 	4915 	0.052963
36.85 	0.054104 	4898 	0.053027
36.87 	0.048948 	4944 	0.048119
36.89 	0.051668 	4916 	0.051191
36.91 	0.049383 	4941 	0.048790
36.93 	0.052738 	4930 	0.052263
36.95 	0.050274 	4933 	0.049324
36.97 	0.046413 	4934 	0.045938
36.99 	0.052482 	4935 	0.051869
37.01 	0.051287 	4933 	0.050812
37.03 	0.048741 	4924 	0.048384
37.05 	0.047899 	4927 	0.047305
37.07 	0.048024 	4935 	0.046699
37.09 	0.050933 	4928 	0.049963
37.11 	0.049037 	4935 	0.047594
37.13 	0.054224 	4924 	0.053491
37.15 	0.048686 	4909 	0.048209
37.17 	0.053709 	4934 	0.052878
37.19 	0.047310 	4925 	0.046477
37.21 	0.053081 	4917 	0.052247
37.23 	0.050427 	4918 	0.050189
37.25 	0.050703 	4911 	0.050345
37.27 	0.042705 	4894 	0.042227
37.29 	0.055375 	4930 	0.054762
37.31 	0.045795 	4935 	0.045083
37.33 	0.051147 	4927 	0.050790
37.35 	0.053868 	4938 	0.052682
37.37 	0.054191 	4927 	0.053359
37.39 	0.051916 	4931 	0.051204
37.41 	0.049483 	4931 	0.048889
37.43 	0.046431 	4932 	0.045600
37.45 	0.044070 	4924 	0.043594
37.47 	0.052343 	4929 	0.051630
37.49 	0.049970 	4923 	0.048780
37.51 	0.043989 	4933 	0.043277
37.53 	0.050417 	4919 	0.049702
37.55 	0.044016 	4930 	0.043303
37.57 	0.053604 	4925 	0.052296
37.59 	0.046999 	4915 	0.046880
37.61 	0.049573 	4922 	0.048740
37.63 	0.048587 	4919 	0.047515
37.65 	0.047784 	4918 	0.047426
37.67 	0.050367 	4904 	0.049770
37.69 	0.049816 	4898 	0.049577
37.71 	0.051735 	4929 	0.050546
37.73 	0.053763 	4929 	0.052694
37.75 	0.053846 	4940 	0.052660
37.77 	0.049390 	4920 	0.048180
37.79 	0.051724 	4930 	0.050536
37.81 	0.049260 	4933 	0.048172
37.83 	0.049390 	4920 	0.048676
37.85 	0.054043 	4922 	0.053448
37.87 	0.055274 	4939 	0.054444
37.89 	0.047107 	4925 	0.046393
37.91 	0.056187 	4930 	0.054880
37.93 	0.050010 	4919 	0.048819
37.95 	0.046738 	4921 	0.046024
37.97 	0.047271 	4929 	0.046558
37.99 	0.049674 	4912 	0.049078
38.01 	0.051136 	4928 	0.050423
38.03 	0.049094 	4909 	0.048497
38.05 	0.050761 	4925 	0.049810
38.07 	0.045427 	4909 	0.044830
38.09 	0.052481 	4878 	0.051760
38.11 	0.051469 	4935 	0.050163
38.13 	0.051448 	4937 	0.050736
38.15 	0.050427 	4918 	0.049951
38.17 	0.049696 	4930 	0.049220
38.19 	0.052738 	4930 	0.051412
38.21 	0.049970 	4923 	0.049494
38.23 	0.054475 	4938 	0.053645
38.25 	0.054301 	4917 	0.053229
38.27 	0.051521 	4930 	0.050690
38.29 	0.047725 	4924 	0.046655
38.31 	0.059062 	4927 	0.057992
38.33 	0.057271 	4924 	0.056557
38.35 	0.057021 	4928 	0.056308
38.37 	0.049553 	4924 	0.049077
38.39 	0.059890 	4909 	0.059532
38.41 	0.058095 	4923 	0.057143
38.43 	0.058381 	4916 	0.057428
38.45 	0.055104 	4918 	0.054270
38.47 	0.058488 	4907 	0.057294
38.49 	0.064384 	4877 	0.063183
38.51 	0.057989 	4932 	0.057157
38.53 	0.062487 	4929 	0.061299
38.55 	0.060981 	4936 	0.059675
38.57 	0.061345 	4923 	0.060631
38.59 	0.057474 	4924 	0.056522
38.61 	0.058549 	4936 	0.057719
38.63 	0.063160 	4924 	0.062327
38.65 	0.061407 	4918 	0.059978
38.67 	0.053271 	4937 	0.052678
38.69 	0.059935 	4922 	0.058864
38.71 	0.055037 	4924 	0.054085
38.73 	0.056527 	4918 	0.055217
38.75 	0.057439 	4927 	0.056487
38.77 	0.051391 	4923 	0.050677
38.79 	0.056546 	4934 	0.055240
38.81 	0.061279 	4912 	0.059847
38.83 	0.052246 	4919 	0.051532
38.85 	0.051710 	4912 	0.051352
38.87 	0.045816 	4911 	0.044981
38.89 	0.053094 	4897 	0.052097
38.91 	0.052009 	4903 	0.050934
38.93 	0.049413 	4938 	0.048108
38.95 	0.045344 	4918 	0.044986
38.97 	0.053944 	4931 	0.053469
38.99 	0.045372 	4937 	0.044541
39.01 	0.050630 	4918 	0.049062
39.03 	0.052088 	4934 	0.051375
39.05 	0.050761 	4925 	0.049334
39.07 	0.052396 	4924 	0.051683
39.09 	0.045298 	4923 	0.044465
39.11 	0.048672 	4931 	0.047840
39.13 	0.048954 	4923 	0.047982
39.15 	0.054934 	4915 	0.054100
39.17 	0.050638 	4937 	0.049926
39.19 	0.038235 	4917 	0.037639
39.21 	0.045621 	4910 	0.045144
39.23 	0.050558 	4925 	0.049607
39.25 	0.055059 	4922 	0.054464
39.27 	0.051120 	4910 	0.050524
39.29 	0.047949 	4901 	0.047710
39.31 	0.049754 	4884 	0.049035
39.33 	0.059420 	4931 	0.058232
39.35 	0.045390 	4935 	0.045034
39.37 	0.053155 	4929 	0.052323
39.39 	0.046257 	4929 	0.045405
39.41 	0.051105 	4931 	0.050630
39.43 	0.049260 	4933 	0.048191
39.45 	0.048122 	4925 	0.047527
39.47 	0.050173 	4923 	0.049816
39.49 	0.050882 	4933 	0.050051
39.51 	0.051381 	4924 	0.050429
39.53 	0.054641 	4923 	0.054047
39.55 	0.048994 	4919 	0.047922
39.57 	0.051287 	4933 	0.050575
39.59 	0.046010 	4912 	0.045413
39.61 	0.047329 	4923 	0.046972
39.63 	0.048151 	4922 	0.047675
39.65 	0.049127 	4926 	0.048532
39.67 	0.051700 	4913 	0.050607
39.69 	0.043328 	4916 	0.042970
39.71 	0.054545 	4895 	0.053947
39.73 	0.049104 	4908 	0.047552
39.75 	0.048498 	4928 	0.047785
39.77 	0.049645 	4935 	0.049171
39.79 	0.048112 	4926 	0.047280
39.81 	0.045870 	4927 	0.045632
39.83 	0.044386 	4934 	0.043436
39.85 	0.052162 	4927 	0.051686
39.87 	0.048731 	4925 	0.048255
39.89 	0.052088 	4934 	0.051375
39.91 	0.050183 	4922 	0.049350
39.93 	0.051246 	4937 	0.050771
39.95 	0.048627 	4915 	0.048388
39.97 	0.044440 	4928 	0.043846
39.99 	0.049270 	4932 	0.048557
40.01 	0.051850 	4918 	0.051255
40.03 	0.049919 	4928 	0.048849
40.05 	0.051251 	4917 	0.050298
40.07 	0.045907 	4923 	0.045550
40.09 	0.046176 	4916 	0.045441
40.11 	0.047803 	4916 	0.047207
40.13 	0.052083 	4896 	0.051605
40.15 	0.048239 	4913 	0.047405
40.17 	0.047890 	4928 	0.046701
40.19 	0.050314 	4929 	0.049601
40.21 	0.043769 	4935 	0.042819
40.23 	0.045215 	4932 	0.044502
40.25 	0.043902 	4920 	0.043426
40.27 	0.043549 	4937 	0.043311
40.29 	0.044246 	4927 	0.043414
40.31 	0.051022 	4939 	0.049243
40.33 	0.049067 	4932 	0.048355
40.35 	0.046554 	4919 	0.045840
40.37 	0.049097 	4929 	0.048365
40.39 	0.045630 	4931 	0.045155
40.41 	0.051574 	4925 	0.050741
40.43 	0.047135 	4922 	0.045707
40.45 	0.043787 	4933 	0.043549
40.47 	0.041480 	4918 	0.041361
40.49 	0.046285 	4926 	0.045572
40.51 	0.046119 	4922 	0.045881
40.53 	0.043735 	4916 	0.043258
40.55 	0.046251 	4908 	0.045535
40.57 	0.041718 	4890 	0.041239
40.59 	0.041726 	4937 	0.041132
40.61 	0.047214 	4935 	0.046739
40.63 	0.049696 	4930 	0.049458
40.65 	0.043549 	4937 	0.042837
40.67 	0.049270 	4932 	0.048557
40.69 	0.048613 	4937 	0.048257
40.71 	0.045215 	4932 	0.044740
40.73 	0.047909 	4926 	0.047671
40.75 	0.041574 	4931 	0.040980
40.77 	0.044948 	4939 	0.044355
40.79 	0.049756 	4924 	0.048924
40.81 	0.041894 	4941 	0.041657
40.83 	0.050933 	4928 	0.049982
40.85 	0.050975 	4924 	0.050380
40.87 	0.042411 	4928 	0.041935
40.89 	0.046238 	4931 	0.045288
40.91 	0.050173 	4923 	0.048745
40.93 	0.047426 	4934 	0.046457
40.95 	0.050275 	4913 	0.048963
40.97 	0.046710 	4924 	0.045996
40.99 	0.043664 	4924 	0.043069
41.01 	0.045806 	4912 	0.045210
41.03 	0.046687 	4905 	0.046329
41.05 	0.044976 	4936 	0.044026
41.07 	0.046450 	4930 	0.046213
41.09 	0.044746 	4939 	0.044489
41.11 	0.046606 	4935 	0.046012
41.13 	0.045583 	4936 	0.045346
41.15 	0.047156 	4941 	0.046445
41.17 	0.048237 	4934 	0.047524
41.19 	0.043611 	4930 	0.042898
41.21 	0.041928 	4937 	0.041572
41.23 	0.043936 	4939 	0.043106
41.25 	0.046827 	4933 	0.045996
41.27 	0.051714 	4931 	0.050506
41.29 	0.046672 	4928 	0.045721
41.31 	0.036489 	4933 	0.036014
41.33 	0.039295 	4937 	0.038583
41.35 	0.041920 	4938 	0.041683
41.37 	0.040211 	4924 	0.039973
41.39 	0.052098 	4933 	0.051267
41.41 	0.045676 	4926 	0.044725
41.43 	0.035301 	4929 	0.034826
41.45 	0.047619 	4914 	0.047023
41.47 	0.048315 	4926 	0.047720
41.49 	0.045585 	4892 	0.044986
41.51 	0.045142 	4940 	0.044549
41.53 	0.048341 	4944 	0.047394
41.55 	0.048835 	4935 	0.047885
41.57 	0.037847 	4941 	0.037254
41.59 	0.046422 	4933 	0.045947
41.61 	0.044418 	4953 	0.043944
41.63 	0.040907 	4938 	0.040433
41.65 	0.049706 	4929 	0.048636
41.67 	0.048785 	4940 	0.048173
41.69 	0.045482 	4947 	0.044653
41.71 	0.043575 	4934 	0.042625
41.73 	0.041734 	4936 	0.040547
41.75 	0.044634 	4929 	0.044277
41.77 	0.048776 	4941 	0.048183
41.79 	0.043689 	4944 	0.043215
41.81 	0.041329 	4936 	0.040736
41.83 	0.038352 	4928 	0.037996
41.85 	0.040696 	4939 	0.040084
41.87 	0.045390 	4935 	0.044559
41.89 	0.042570 	4933 	0.042095
41.91 	0.039100 	4936 	0.038863
41.93 	0.042579 	4932 	0.041985
41.95 	0.042182 	4931 	0.041707
41.97 	0.044770 	4914 	0.044055
41.99 	0.044852 	4905 	0.044136
42.01 	0.043100 	4942 	0.042863
42.03 	0.045353 	4939 	0.044997
42.05 	0.040388 	4952 	0.040033
42.07 	0.042941 	4937 	0.042110
42.09 	0.043654 	4948 	0.042825
42.11 	0.034985 	4945 	0.034866
42.13 	0.043680 	4945 	0.043325
42.15 	0.039692 	4938 	0.039336
42.17 	0.041684 	4918 	0.041326
42.19 	0.037490 	4908 	0.037012
42.21 	0.043461 	4901 	0.043102
42.23 	0.042314 	4892 	0.041715
42.25 	0.043567 	4889 	0.042848
42.27 	0.043906 	4874 	0.043546
42.29 	0.040716 	4863 	0.040234
42.31 	0.040371 	4855 	0.040129
42.33 	0.035374 	4834 	0.035253
42.35 	0.040513 	4838 	0.040149
42.37 	0.039752 	4830 	0.039388
42.39 	0.044546 	4804 	0.043937
42.41 	0.044338 	4804 	0.043484
42.43 	0.049457 	4792 	0.049091
42.45 	0.045645 	4776 	0.044909
42.47 	0.043652 	4765 	0.043140
42.49 	0.043442 	4765 	0.042684
42.51 	0.044065 	4743 	0.043571
42.53 	0.042513 	4728 	0.041893
42.55 	0.038658 	4708 	0.038533
42.57 	0.040381 	4730 	0.039637
42.59 	0.040178 	4729 	0.039682
42.61 	0.032498 	4708 	0.032125
42.63 	0.042897 	4709 	0.042648
42.65 	0.042476 	4685 	0.041226
42.67 	0.039496 	4684 	0.038996
42.69 	0.045143 	4674 	0.044642
42.71 	0.042891 	4663 	0.042263
42.73 	0.036853 	4640 	0.036601
42.75 	0.043751 	4617 	0.043371
42.77 	0.036957 	4600 	0.036320
42.79 	0.047359 	4582 	0.046720
42.81 	0.039456 	4562 	0.039328
42.83 	0.039021 	4536 	0.038634
42.85 	0.041519 	4528 	0.041131
42.87 	0.041120 	4499 	0.040339
42.89 	0.039509 	4480 	0.038986
42.91 	0.043312 	4456 	0.042392
42.93 	0.044759 	4446 	0.044232
42.95 	0.046422 	4416 	0.045228
42.97 	0.036355 	4401 	0.036089
42.99 	0.047662 	4385 	0.047529
43.01 	0.044465 	4363 	0.043928
43.03 	0.042003 	4333 	0.041733
43.05 	0.040925 	4325 	0.040383
43.07 	0.040270 	4296 	0.039588
43.09 	0.043661 	4283 	0.042840
43.11 	0.044183 	4255 	0.043472
43.13 	0.044607 	4237 	0.044607
43.15 	0.041369 	4206 	0.040952
43.17 	0.044987 	4179 	0.044706
43.19 	0.039819 	4194 	0.038981
43.21 	0.039549 	4172 	0.039269
43.23 	0.041406 	4154 	0.040560
43.25 	0.043531 	4135 	0.042964
43.27 	0.039708 	4105 	0.039708
43.29 	0.042683 	4100 	0.041969
43.31 	0.036774 	4079 	0.036486
43.33 	0.041471 	4051 	0.041471
43.35 	0.042163 	4032 	0.041582
43.37 	0.045330 	4015 	0.044455
43.39 	0.042979 	4002 	0.042539
43.41 	0.037009 	3972 	0.037009
43.43 	0.038384 	3960 	0.037940
43.45 	0.047776 	3935 	0.047479
43.47 	0.039531 	3921 	0.039058
43.49 	0.042340 	3897 	0.041589
43.51 	0.043075 	3877 	0.041690
43.53 	0.040124 	3863 	0.039669
43.55 	0.043860 	2964 	0.043464
43.57 	0.041108 	2238 	0.040846
43.59 	0.050401 	1746 	0.049059
43.61 	0.039230 	1351 	0.037929
43.63 	0.047952 	1001 	0.046782
43.65 	0.048035 	687 	0.046330
43.67 	0.037849 	502 	0.037849
43.69 	0.049046 	367 	0.049046
43.71 	0.037657 	239 	0.035206
43.73 	0.033333 	120 	0.033333
43.75 	0.000000 	16 	0.000000