File: Example_Data/25SC_s1_0023.000.dat
#F C:\frames\spec\25SC_s1_0023.000
#C title =s:23 frm:0 25SC_s1
#C wavelength =0.15406

#S 1  fr_average C:\frames\spec\25SC_s1_0023.000 C:\win32app\speccom\mask.axs chi 0 180 0 360 0.02
#C 2 theta =0.000000 to 180 deg
#C   q   =0.000000 to 81.568 nm^-1
#C  chi  =0.000000 to 360 deg
#C collumns:
#C  1 position (2theta or chi in degrees)
#C  2 average intensity (sum of all counts in the region divided with number of pixels)
#C  3 Number of pixels in region)
#C  4 error (sum of sqrt(intensity) for all pixels divided by number)
#N 4
#L TTh  Int  N_pix  Err
32.99 	0.016393 	61 	0.016393
33.01 	0.058419 	873 	0.056406
33.03 	0.061826 	1391 	0.060984
33.05 	0.048947 	1757 	0.048280
33.07 	0.063902 	2050 	0.061902
33.09 	0.065190 	2347 	0.062902
33.11 	0.062815 	2579 	0.061225
33.13 	0.065163 	2793 	0.064289
33.15 	0.065022 	2999 	0.063850
33.17 	0.059981 	3201 	0.058700
33.19 	0.066727 	3342 	0.065149
33.21 	0.056752 	3436 	0.055531
33.23 	0.057054 	3523 	0.056222
33.25 	0.059801 	3612 	0.058665
33.27 	0.064187 	3630 	0.062896
33.29 	0.066064 	3648 	0.065742
33.31 	0.061202 	3660 	0.060562
33.33 	0.059685 	3686 	0.058573
33.35 	0.057390 	3694 	0.056597
33.37 	0.063543 	3714 	0.062439
33.39 	0.059265 	3729 	0.058323
33.41 	0.062032 	3740 	0.061249
33.43 	0.057166 	3761 	0.056075
33.45 	0.063610 	3773 	0.061411
33.47 	0.058189 	3798 	0.057726
33.49 	0.050407 	3809 	0.049177
33.51 	0.066055 	3815 	0.064187
33.53 	0.060141 	3841 	0.059073
33.55 	0.054905 	3843 	0.054600
33.57 	0.060098 	3877 	0.059040
33.59 	0.062113 	3880 	0.061007
33.61 	0.062932 	3909 	0.062033
33.63 	0.066854 	3919 	0.066106
33.65 	0.062579 	3931 	0.060940
33.67 	0.056146 	3954 	0.055109
33.69 	0.057425 	3953 	0.056536
33.71 	0.058113 	3975 	0.056934
33.73 	0.058941 	4004 	0.058063
33.75 	0.055264 	3999 	0.054214
33.77 	0.058385 	4025 	0.057657
33.79 	0.060134 	4041 	0.058829
33.81 	0.058692 	4038 	0.057967
33.83 	0.060000 	4050 	0.058988
33.85 	0.057819 	4099 	0.057104
33.87 	0.062029 	4111 	0.061459
33.89 	0.056782 	4121 	0.055787
33.91 	0.057845 	4149 	0.057281
33.93 	0.054686 	4151 	0.053980
33.95 	0.056924 	4181 	0.055943
33.97 	0.055847 	4190 	0.055008
33.99 	0.065000 	4200 	0.063884
34.01 	0.053643 	4213 	0.052948
34.03 	0.053723 	4244 	0.053033
34.05 	0.061618 	4252 	0.060929
34.07 	0.053421 	4268 	0.052597
34.09 	0.061596 	4286 	0.059956
34.11 	0.056020 	4302 	0.055203
34.13 	0.058728 	4308 	0.057776
34.15 	0.057723 	4331 	0.057453
34.17 	0.057701 	4350 	0.056624
34.19 	0.060752 	4362 	0.059678
34.21 	0.060856 	4371 	0.059895
34.23 	0.063055 	4393 	0.061988
34.25 	0.059946 	4404 	0.059147
34.27 	0.054726 	4422 	0.053667
34.29 	0.052537 	4435 	0.051062
34.31 	0.058322 	4458 	0.057534
34.33 	0.061284 	4471 	0.060236
34.35 	0.051517 	4484 	0.050863
34.37 	0.057226 	4491 	0.056291
34.39 	0.053088 	4502 	0.052437
34.41 	0.053911 	4526 	0.052725
34.43 	0.056620 	4539 	0.055459
34.45 	0.055127 	4535 	0.053943
34.47 	0.054007 	4592 	0.052583
34.49 	0.060909 	4597 	0.059741
34.51 	0.053843 	4606 	0.053588
34.53 	0.062029 	4643 	0.060620
34.55 	0.057937 	4643 	0.056675
34.57 	0.057725 	4660 	0.056343
34.59 	0.058610 	4675 	0.057231
34.61 	0.057058 	4697 	0.055561
34.63 	0.057749 	4710 	0.057252
34.65 	0.058886 	4721 	0.057645
34.67 	0.058426 	4741 	0.057438
34.69 	0.056584 	4754 	0.055475
34.71 	0.058120 	4766 	0.057137
34.73 	0.060999 	4787 	0.059632
34.75 	0.057196 	4808 	0.056343
34.77 	0.058323 	4818 	0.057209
34.79 	0.062396 	4824 	0.060646
34.81 	0.053870 	4845 	0.052903
34.83 	0.050391 	4862 	0.050029
34.85 	0.059560 	4869 	0.058598
34.87 	0.058546 	4868 	0.057703
34.89 	0.062679 	4882 	0.061719
34.91 	0.056944 	4882 	0.056224
34.93 	0.055930 	4899 	0.055332
34.95 	0.057873 	4890 	0.056675
34.97 	0.059976 	4902 	0.059259
34.99 	0.054115 	4897 	0.053517
35.01 	0.054845 	4923 	0.053992
35.03 	0.051790 	4943 	0.050961
35.05 	0.053972 	4947 	0.053617
35.07 	0.056883 	4940 	0.055815
35.09 	0.054916 	4953 	0.053714
35.11 	0.057004 	4947 	0.055820
35.13 	0.051432 	4958 	0.050723
35.15 	0.054487 	4937 	0.054012
35.17 	0.058229 	4946 	0.057143
35.19 	0.057062 	4942 	0.055719
35.21 	0.058241 	4945 	0.056188
35.23 	0.058645 	4945 	0.058171
35.25 	0.052802 	4943 	0.051854
35.27 	0.055578 	4948 	0.054986
35.29 	0.058645 	4945 	0.057460
35.31 	0.058585 	4933 	0.057734
35.33 	0.057253 	4943 	0.056897
35.35 	0.058681 	4942 	0.058562
35.37 	0.060134 	4939 	0.058948
35.39 	0.060465 	4945 	0.058807
35.41 	0.052172 	4926 	0.050864
35.43 	0.058180 	4933 	0.057210
35.45 	0.059955 	4937 	0.059006
35.47 	0.063070 	4931 	0.061764
35.49 	0.065173 	4910 	0.064457
35.51 	0.056638 	4926 	0.055925
35.53 	0.053142 	4949 	0.052313
35.55 	0.057836 	4945 	0.056533
35.57 	0.057166 	4933 	0.056097
35.59 	0.063296 	4945 	0.061993
35.61 	0.058276 	4942 	0.057683
35.63 	0.060692 	4943 	0.059625
35.65 	0.056825 	4945 	0.055621
35.67 	0.060907 	4942 	0.059484
35.69 	0.054792 	4946 	0.053963
35.71 	0.055702 	4937 	0.055227
35.73 	0.058955 	4936 	0.057768
35.75 	0.058203 	4931 	0.057134
35.77 	0.054534 	4951 	0.053076
35.79 	0.051095 	4932 	0.050382
35.81 	0.056152 	4933 	0.055677
35.83 	0.054994 	4946 	0.054165
35.85 	0.057953 	4935 	0.057122
35.87 	0.054845 	4923 	0.054607
35.89 	0.059384 	4934 	0.058434
35.91 	0.053176 	4927 	0.052582
35.93 	0.056424 	4927 	0.055829
35.95 	0.058979 	4917 	0.058503
35.97 	0.059853 	4912 	0.059138
35.99 	0.057502 	4939 	0.056908
36.01 	0.057404 	4930 	0.056453
36.03 	0.061703 	4943 	0.060755
36.05 	0.058847 	4945 	0.058373
36.07 	0.053047 	4939 	0.052079
36.09 	0.062753 	4940 	0.061449
36.11 	0.059850 	4929 	0.058899
36.13 	0.059895 	4942 	0.059065
36.15 	0.057299 	4939 	0.056469
36.17 	0.059289 	4925 	0.058437
36.19 	0.058907 	4940 	0.058077
36.21 	0.057618 	4929 	0.056905
36.23 	0.058561 	4935 	0.057236
36.25 	0.054038 	4941 	0.053563
36.27 	0.058477 	4925 	0.057764
36.29 	0.060434 	4931 	0.059127
36.31 	0.061080 	4928 	0.059653
36.33 	0.059599 	4933 	0.058886
36.35 	0.059444 	4929 	0.057642
36.37 	0.060938 	4923 	0.059868
36.39 	0.058321 	4921 	0.057369
36.41 	0.059028 	4896 	0.058171
36.43 	0.059456 	4928 	0.058267
36.45 	0.065720 	4930 	0.064413
36.47 	0.061386 	4936 	0.060199
36.49 	0.058074 	4942 	0.057007
36.51 	0.061423 	4933 	0.060117
36.53 	0.059073 	4943 	0.058125
36.55 	0.060280 	4927 	0.058953
36.57 	0.058573 	4934 	0.057623
36.59 	0.060336 	4939 	0.059249
36.61 	0.054958 	4931 	0.054364
36.63 	0.062665 	4931 	0.061833
36.65 	0.057786 	4932 	0.056836
36.67 	0.058824 	4930 	0.057853
36.69 	0.056604 	4929 	0.055653
36.71 	0.054664 	4921 	0.053592
36.73 	0.062335 	4925 	0.061146
36.75 	0.052589 	4944 	0.051760
36.77 	0.057735 	4919 	0.056902
36.79 	0.053851 	4921 	0.053137
36.81 	0.058381 	4916 	0.057428
36.83 	0.059207 	4915 	0.058372
36.85 	0.057779 	4898 	0.055606
36.87 	0.060882 	4944 	0.060171
36.89 	0.058991 	4916 	0.058038
36.91 	0.062943 	4941 	0.061520
36.93 	0.056187 	4930 	0.055098
36.95 	0.061423 	4933 	0.060354
36.97 	0.057357 	4934 	0.056645
36.99 	0.060790 	4935 	0.059841
37.01 	0.054328 	4933 	0.053497
37.03 	0.057271 	4924 	0.056914
37.05 	0.058656 	4927 	0.058062
37.07 	0.049848 	4935 	0.049373
37.09 	0.056006 	4928 	0.054561
37.11 	0.056940 	4935 	0.056109
37.13 	0.054021 	4924 	0.052831
37.15 	0.059279 	4909 	0.058324
37.17 	0.063843 	4934 	0.061924
37.19 	0.059289 	4925 	0.058576
37.21 	0.053488 	4917 	0.053488
37.23 	0.061000 	4918 	0.060286
37.25 	0.055386 	4911 	0.054670
37.27 	0.057417 	4894 	0.056220
37.29 	0.061258 	4930 	0.059812
37.31 	0.059574 	4935 	0.058744
37.33 	0.050132 	4927 	0.049300
37.35 	0.060753 	4938 	0.060042
37.37 	0.053582 	4927 	0.053107
37.39 	0.054958 	4931 	0.054364
37.41 	0.056784 	4931 	0.055477
37.43 	0.057178 	4932 	0.055852
37.45 	0.057271 	4924 	0.056319
37.47 	0.057821 	4929 	0.056613
37.49 	0.061345 	4923 	0.060611
37.51 	0.059193 	4933 	0.058362
37.53 	0.059362 	4919 	0.058032
37.55 	0.057606 	4930 	0.056299
37.57 	0.055431 	4925 	0.054480
37.59 	0.054730 	4915 	0.053419
37.61 	0.060951 	4922 	0.059880
37.63 	0.057735 	4919 	0.056783
37.65 	0.054494 	4918 	0.053303
37.67 	0.058728 	4904 	0.057633
37.69 	0.057779 	4898 	0.056583
37.71 	0.051938 	4929 	0.051462
37.73 	0.055589 	4929 	0.054995
37.75 	0.056883 	4940 	0.055934
37.77 	0.054878 	4920 	0.054402
37.79 	0.059229 	4930 	0.057685
37.81 	0.063653 	4933 	0.062465
37.83 	0.059146 	4920 	0.057956
37.85 	0.056684 	4922 	0.055256
37.87 	0.057502 	4939 	0.056553
37.89 	0.056447 	4925 	0.055832
37.91 	0.052941 	4930 	0.051515
37.93 	0.054889 	4919 	0.054294
37.95 	0.061166 	4921 	0.060095
37.97 	0.054778 	4929 	0.054184
37.99 	0.058428 	4912 	0.057117
38.01 	0.054383 	4928 	0.052957
38.03 	0.059279 	4909 	0.058563
38.05 	0.055838 	4925 	0.055243
38.07 	0.065798 	4909 	0.064823
38.09 	0.058631 	4878 	0.057670
38.11 	0.047619 	4935 	0.047263
38.13 	0.056715 	4937 	0.056121
38.15 	0.062830 	4918 	0.061639
38.17 	0.061460 	4930 	0.060391
38.19 	0.056187 	4930 	0.055593
38.21 	0.064798 	4923 	0.063251
38.23 	0.063386 	4938 	0.062556
38.25 	0.062030 	4917 	0.061196
38.27 	0.059026 	4930 	0.058313
38.29 	0.062145 	4924 	0.061074
38.31 	0.067587 	4927 	0.066041
38.33 	0.068846 	4924 	0.067776
38.35 	0.064123 	4928 	0.063410
38.37 	0.066003 	4924 	0.065646
38.39 	0.068242 	4909 	0.067407
38.41 	0.072314 	4923 	0.070648
38.43 	0.067128 	4916 	0.066174
38.45 	0.072590 	4918 	0.070685
38.47 	0.080293 	4907 	0.078503
38.49 	0.078122 	4877 	0.075720
38.51 	0.079886 	4932 	0.078105
38.53 	0.075472 	4929 	0.073669
38.55 	0.075162 	4936 	0.073975
38.57 	0.072314 	4923 	0.071005
38.59 	0.080219 	4924 	0.077939
38.61 	0.081848 	4936 	0.079455
38.63 	0.069862 	4924 	0.068434
38.65 	0.081537 	4918 	0.079631
38.67 	0.077780 	4937 	0.076238
38.69 	0.073344 	4922 	0.071797
38.71 	0.079813 	4924 	0.077434
38.73 	0.073200 	4918 	0.071414
38.75 	0.069008 	4927 	0.067799
38.77 	0.078814 	4923 	0.076890
38.79 	0.074179 	4934 	0.072992
38.81 	0.067182 	4912 	0.065751
38.83 	0.061801 	4919 	0.060848
38.85 	0.066164 	4912 	0.064972
38.87 	0.065974 	4911 	0.064782
38.89 	0.071268 	4897 	0.069952
38.91 	0.061187 	4903 	0.060470
38.93 	0.059741 	4938 	0.058080
38.95 	0.058764 	4918 	0.058049
38.97 	0.058609 	4931 	0.057777
38.99 	0.053271 	4937 	0.052322
39.01 	0.055917 	4918 	0.055202
39.03 	0.055938 	4934 	0.054989
39.05 	0.047919 	4925 	0.047681
39.07 	0.052193 	4924 	0.051717
39.09 	0.052204 	4923 	0.051708
39.11 	0.048469 	4931 	0.047875
39.13 	0.050173 	4923 	0.049459
39.15 	0.045575 	4915 	0.044383
39.17 	0.056715 	4937 	0.056121
39.19 	0.050031 	4917 	0.049316
39.21 	0.047454 	4910 	0.046619
39.23 	0.047919 	4925 	0.046491
39.25 	0.046932 	4922 	0.046218
39.27 	0.050102 	4910 	0.049147
39.29 	0.046113 	4901 	0.044918
39.31 	0.049140 	4884 	0.048061
39.33 	0.046846 	4931 	0.045896
39.35 	0.048227 	4935 	0.047752
39.37 	0.045648 	4929 	0.045054
39.39 	0.045445 	4929 	0.044732
39.41 	0.044007 	4931 	0.043295
39.43 	0.043584 	4933 	0.043465
39.45 	0.049137 	4925 	0.048423
39.47 	0.048548 	4923 	0.048310
39.49 	0.051895 	4933 	0.049877
39.51 	0.047522 	4924 	0.047284
39.53 	0.048141 	4923 	0.047427
39.55 	0.043911 	4919 	0.043058
39.57 	0.046625 	4933 	0.045794
39.59 	0.044788 	4912 	0.044550
39.61 	0.040219 	4923 	0.040219
39.63 	0.038399 	4922 	0.038161
39.65 	0.045676 	4926 	0.044963
39.67 	0.042540 	4913 	0.041944
39.69 	0.046379 	4916 	0.045426
39.71 	0.043105 	4895 	0.042627
39.73 	0.053586 	4908 	0.052114
39.75 	0.044643 	4928 	0.044286
39.77 	0.051874 	4935 	0.050925
39.79 	0.048518 	4926 	0.047923
39.81 	0.044855 	4927 	0.044260
39.83 	0.044791 	4934 	0.044316
39.85 	0.042825 	4927 	0.041993
39.87 	0.051371 	4925 	0.050637
39.89 	0.047223 	4934 	0.046630
39.91 	0.042462 	4922 	0.041986
39.93 	0.044359 	4937 	0.043647
39.95 	0.044354 	4915 	0.043758
39.97 	0.048904 	4928 	0.047815
39.99 	0.041768 	4932 	0.041293
40.01 	0.042497 	4918 	0.042021
40.03 	0.042208 	4928 	0.041970
40.05 	0.048200 	4917 	0.047604
40.07 	0.044079 	4923 	0.043603
40.09 	0.040683 	4916 	0.039969
40.11 	0.044345 	4916 	0.043511
40.13 	0.044935 	4896 	0.044456
40.15 	0.042744 	4913 	0.042267
40.17 	0.045860 	4928 	0.045246
40.19 	0.047068 	4929 	0.046355
40.21 	0.045998 	4935 	0.045642
40.23 	0.044201 	4932 	0.043845
40.25 	0.044715 	4920 	0.044358
40.27 	0.043751 	4937 	0.043395
40.29 	0.043028 	4927 	0.042672
40.31 	0.044543 	4939 	0.043950
40.33 	0.039943 	4932 	0.039349
40.35 	0.042488 	4919 	0.042250
40.37 	0.045445 	4929 	0.045089
40.39 	0.042993 	4931 	0.042281
40.41 	0.041827 	4925 	0.041471
40.43 	0.042462 	4922 	0.042224
40.45 	0.041760 	4933 	0.041047
40.47 	0.044327 	4918 	0.043493
40.49 	0.046894 	4926 	0.046299
40.51 	0.045307 	4922 	0.044831
40.53 	0.038649 	4916 	0.038292
40.55 	0.035045 	4908 	0.034806
40.57 	0.037832 	4890 	0.036994
40.59 	0.039093 	4937 	0.038143
40.61 	0.039514 	4935 	0.039158
40.63 	0.041785 	4930 	0.041191
40.65 	0.047600 	4937 	0.047125
40.67 	0.043998 	4932 	0.043405
40.69 	0.043954 	4937 	0.043242
40.71 	0.041565 	4932 	0.041209
40.73 	0.044255 	4926 	0.043898
40.75 	0.042385 	4931 	0.041553
40.77 	0.045961 	4939 	0.045130
40.79 	0.041836 	4924 	0.041003
40.81 	0.042299 	4941 	0.041943
40.83 	0.040381 	4928 	0.040263
40.85 	0.044273 	4924 	0.043559
40.87 	0.040990 	4928 	0.040396
40.89 	0.049280 	4931 	0.048805
40.91 	0.042454 	4923 	0.042097
40.93 	0.045602 	4934 	0.044652
40.95 	0.045593 	4913 	0.045116
40.97 	0.043461 	4924 	0.042866
40.99 	0.041836 	4924 	0.041479
41.01 	0.044381 	4912 	0.043666
41.03 	0.039348 	4905 	0.038611
41.05 	0.040519 	4936 	0.039688
41.07 	0.039554 	4930 	0.039197
41.09 	0.042924 	4939 	0.042568
41.11 	0.038501 	4935 	0.038501
41.13 	0.041126 	4936 	0.040652
41.15 	0.044323 	4941 	0.043612
41.17 	0.039724 	4934 	0.039606
41.19 	0.040568 	4930 	0.039736
41.21 	0.043751 	4937 	0.043277
41.23 	0.040696 	4939 	0.039985
41.25 	0.037503 	4933 	0.037384
41.27 	0.046846 	4931 	0.046253
41.29 	0.044034 	4928 	0.043559
41.31 	0.037705 	4933 	0.036637
41.33 	0.041726 	4937 	0.041370
41.35 	0.042730 	4938 	0.042018
41.37 	0.043258 	4924 	0.042782
41.39 	0.041557 	4933 	0.041438
41.41 	0.041616 	4926 	0.041140
41.43 	0.044431 	4929 	0.044193
41.45 	0.042532 	4914 	0.042055
41.47 	0.035932 	4926 	0.035932
41.49 	0.039248 	4892 	0.039008
41.51 	0.048988 	4940 	0.048395
41.53 	0.040251 	4944 	0.039895
41.55 	0.036879 	4935 	0.036523
41.57 	0.041287 	4941 	0.040813
41.59 	0.041354 	4933 	0.040998
41.61 	0.038159 	4953 	0.037686
41.63 	0.038072 	4938 	0.037835
41.65 	0.038142 	4929 	0.037904
41.67 	0.040081 	4940 	0.039725
41.69 	0.043259 	4947 	0.042193
41.71 	0.037698 	4934 	0.037104
41.73 	0.038493 	4936 	0.038255
41.75 	0.039156 	4929 	0.038562
41.77 	0.046347 	4941 	0.045517
41.79 	0.040049 	4944 	0.039812
41.81 	0.040316 	4936 	0.039841
41.83 	0.038149 	4928 	0.038149
41.85 	0.040899 	4939 	0.040780
41.87 	0.047619 	4935 	0.046907
41.89 	0.043179 	4933 	0.042466
41.91 	0.046191 	4936 	0.046073
41.93 	0.036699 	4932 	0.035986
41.95 	0.040763 	4931 	0.040287
41.97 	0.037851 	4914 	0.037613
41.99 	0.035066 	4905 	0.034827
42.01 	0.038041 	4942 	0.037449
42.03 	0.042316 	4939 	0.041605
42.05 	0.041195 	4952 	0.040604
42.07 	0.039093 	4937 	0.038381
42.09 	0.040016 	4948 	0.039543
42.11 	0.038625 	4945 	0.037914
42.13 	0.038625 	4945 	0.038269
42.15 	0.038072 	4938 	0.037242
42.17 	0.038837 	4918 	0.038718
42.19 	0.040546 	4908 	0.040188
42.21 	0.039788 	4901 	0.039071
42.23 	0.039861 	4892 	0.039023
42.25 	0.040090 	4889 	0.039251
42.27 	0.034879 	4874 	0.034038
42.29 	0.037220 	4863 	0.036858
42.31 	0.042430 	4855 	0.042310
42.33 	0.037443 	4834 	0.036837
42.35 	0.044233 	4838 	0.043628
42.37 	0.041201 	4830 	0.040958
42.39 	0.038718 	4804 	0.037742
42.41 	0.038926 	4804 	0.038438
42.43 	0.040693 	4792 	0.040082
42.45 	0.034548 	4776 	0.034302
42.47 	0.038405 	4765 	0.038036
42.49 	0.032739 	4765 	0.032493
42.51 	0.043222 	4743 	0.042728
42.53 	0.040398 	4728 	0.039778
42.55 	0.032923 	4708 	0.032549
42.57 	0.041015 	4730 	0.040396
42.59 	0.030662 	4729 	0.030414
42.61 	0.037171 	4708 	0.036798
42.63 	0.044383 	4709 	0.043512
42.65 	0.040768 	4685 	0.040268
42.67 	0.034372 	4684 	0.033997
42.69 	0.040223 	4674 	0.039847
42.71 	0.035599 	4663 	0.035097
42.73 	0.041164 	4640 	0.041038
42.75 	0.042452 	4617 	0.041944
42.77 	0.040652 	4600 	0.040143
42.79 	0.034701 	4582 	0.034573
42.81 	0.036607 	4562 	0.036478
42.83 	0.040123 	4536 	0.039478
42.85 	0.047041 	4528 	0.046653
42.87 	0.042454 	4499 	0.041803
42.89 	0.040179 	4480 	0.039525
42.91 	0.035233 	4456 	0.034839
42.93 	0.032614 	4446 	0.032218
42.95 	0.039402 	4416 	0.039004
42.97 	0.043172 	4401 	0.043039
42.99 	0.037856 	4385 	0.037188
43.01 	0.032776 	4363 	0.032507
43.03 	0.039003 	4333 	0.038192
43.05 	0.034913 	4325 	0.034642
43.07 	0.038873 	4296 	0.038737
43.09 	0.036190 	4283 	0.035643
43.11 	0.043243 	4255 	0.042693
43.13 	0.040831 	4237 	0.040278
43.15 	0.044460 	4206 	0.043602
43.17 	0.038047 	4179 	0.037627
43.19 	0.036719 	4194 	0.036300
43.21 	0.037152 	4172 	0.037012
43.23 	0.037554 	4154 	0.036990
43.25 	0.044256 	4135 	0.043548
43.27 	0.044336 	4105 	0.043599
43.29 	0.034634 	4100 	0.034348
43.31 	0.035793 	4079 	0.034931
43.33 	0.034559 	4051 	0.034126
43.35 	0.036458 	4032 	0.035732
43.37 	0.037360 	4015 	0.036922
43.39 	0.036982 	4002 	0.035957
43.41 	0.039527 	3972 	0.038765
43.43 	0.038889 	3960 	0.038445
43.45 	0.036341 	3935 	0.035745
43.47 	0.037490 	3921 	0.037192
43.49 	0.039261 	3897 	0.038960
43.51 	0.033015 	3877 	0.032864
43.53 	0.036500 	3863 	0.036197
43.55 	0.034413 	2964 	0.033820
43.57 	0.037534 	2238 	0.037272
43.59 	0.038373 	1746 	0.038373
43.61 	0.039970 	1351 	0.039970
43.63 	0.031968 	1001 	0.031968
43.65 	0.032023 	687 	0.031171
43.67 	0.029880 	502 	0.028714
43.69 	0.021798 	367 	0.021798
43.71 	0.020921 	239 	0.020921
43.73 	0.025000 	120 	0.025000
43.75 	0.000000 	16 	0.000000