File: Example_Data/25SC_s1_0044.002.dat
#F C:\frames\spec\25SC_s1_0044.002
#C title =s:44 frm:2 25SC_s1
#C wavelength =0.15406

#S 1  fr_average C:\frames\spec\25SC_s1_0044.002 C:\win32app\speccom\mask.axs chi 0 180 0 360 0.02
#C 2 theta =0.000000 to 180 deg
#C   q   =0.000000 to 81.568 nm^-1
#C  chi  =0.000000 to 360 deg
#C collumns:
#C  1 position (2theta or chi in degrees)
#C  2 average intensity (sum of all counts in the region divided with number of pixels)
#C  3 Number of pixels in region)
#C  4 error (sum of sqrt(intensity) for all pixels divided by number)
#N 4
#L TTh  Int  N_pix  Err
32.99 	0.016393 	61 	0.016393
33.01 	0.065292 	873 	0.063950
33.03 	0.047448 	1391 	0.046606
33.05 	0.062038 	1757 	0.061704
33.07 	0.060976 	2050 	0.060976
33.09 	0.055816 	2347 	0.055067
33.11 	0.060876 	2579 	0.059741
33.13 	0.062657 	2793 	0.061189
33.15 	0.058019 	2999 	0.057238
33.17 	0.058419 	3201 	0.057687
33.19 	0.057451 	3342 	0.056574
33.21 	0.059953 	3436 	0.058249
33.23 	0.057054 	3523 	0.056389
33.25 	0.055094 	3612 	0.053959
33.27 	0.059780 	3630 	0.058462
33.29 	0.057018 	3648 	0.056375
33.31 	0.058197 	3660 	0.056916
33.33 	0.056158 	3686 	0.055523
33.35 	0.059015 	3694 	0.058697
33.37 	0.062197 	3714 	0.061093
33.39 	0.057388 	3729 	0.056446
33.41 	0.059091 	3740 	0.058308
33.43 	0.051050 	3761 	0.050271
33.45 	0.052743 	3773 	0.051812
33.47 	0.051869 	3798 	0.051227
33.49 	0.063796 	3809 	0.062258
33.51 	0.055832 	3815 	0.055218
33.53 	0.057537 	3841 	0.056775
33.55 	0.058808 	3843 	0.057589
33.57 	0.060098 	3877 	0.058864
33.59 	0.057474 	3880 	0.056266
33.61 	0.053978 	3909 	0.052779
33.63 	0.068130 	3919 	0.067233
33.65 	0.059527 	3931 	0.058484
33.67 	0.057663 	3954 	0.056626
33.69 	0.060460 	3953 	0.059275
33.71 	0.058113 	3975 	0.057818
33.73 	0.059441 	4004 	0.058709
33.75 	0.055514 	3999 	0.053756
33.77 	0.065093 	4025 	0.064220
33.79 	0.056669 	4041 	0.055944
33.81 	0.050025 	4038 	0.049154
33.83 	0.060000 	4050 	0.058819
33.85 	0.054647 	4099 	0.053933
33.87 	0.056920 	4111 	0.056042
33.89 	0.055569 	4121 	0.054716
33.91 	0.056640 	4149 	0.055346
33.93 	0.057336 	4151 	0.056630
33.95 	0.055967 	4181 	0.054987
33.97 	0.057995 	4190 	0.057017
33.99 	0.058810 	4200 	0.057275
34.01 	0.056967 	4213 	0.055437
34.03 	0.052074 	4244 	0.051245
34.05 	0.050094 	4252 	0.048992
34.07 	0.056701 	4268 	0.055740
34.09 	0.056463 	4286 	0.055780
34.11 	0.056950 	4302 	0.056133
34.13 	0.054085 	4308 	0.053542
34.15 	0.060725 	4331 	0.059643
34.17 	0.055862 	4350 	0.055323
34.19 	0.059835 	4362 	0.058201
34.21 	0.060398 	4371 	0.059594
34.23 	0.056226 	4393 	0.055426
34.25 	0.053361 	4404 	0.052009
34.27 	0.060154 	4422 	0.059094
34.29 	0.059526 	4435 	0.058470
34.31 	0.054957 	4458 	0.054695
34.33 	0.047864 	4471 	0.047602
34.35 	0.052409 	4484 	0.051755
34.37 	0.054331 	4491 	0.052853
34.39 	0.053976 	4502 	0.052805
34.41 	0.054795 	4526 	0.054147
34.43 	0.064992 	4539 	0.063680
34.45 	0.063506 	4535 	0.061956
34.47 	0.057274 	4592 	0.055615
34.49 	0.060039 	4597 	0.058765
34.51 	0.051889 	4606 	0.050617
34.53 	0.056860 	4643 	0.056229
34.55 	0.059660 	4643 	0.058377
34.57 	0.055150 	4660 	0.054145
34.59 	0.056471 	4675 	0.054967
34.61 	0.059400 	4697 	0.059275
34.63 	0.060722 	4710 	0.060204
34.65 	0.056768 	4721 	0.055651
34.67 	0.053997 	4741 	0.053132
34.69 	0.057846 	4754 	0.056860
34.71 	0.054763 	4766 	0.054394
34.73 	0.052434 	4787 	0.051699
34.75 	0.059900 	4808 	0.058804
34.77 	0.057700 	4818 	0.056363
34.79 	0.057007 	4824 	0.055914
34.81 	0.053044 	4845 	0.052319
34.83 	0.060469 	4862 	0.059264
34.85 	0.056274 	4869 	0.055192
34.87 	0.054232 	4868 	0.053750
34.89 	0.059197 	4882 	0.058717
34.91 	0.053257 	4882 	0.052777
34.93 	0.052868 	4899 	0.052150
34.95 	0.058078 	4890 	0.057000
34.97 	0.056304 	4902 	0.055706
34.99 	0.056974 	4897 	0.055897
35.01 	0.053016 	4923 	0.051827
35.03 	0.059680 	4943 	0.058732
35.05 	0.055791 	4947 	0.054844
35.07 	0.053239 	4940 	0.051697
35.09 	0.061377 	4953 	0.060293
35.11 	0.059834 	4947 	0.059361
35.13 	0.059701 	4958 	0.059111
35.15 	0.055702 	4937 	0.054229
35.17 	0.049939 	4946 	0.048755
35.19 	0.055241 	4942 	0.054885
35.21 	0.053994 	4945 	0.053402
35.23 	0.050758 	4945 	0.049929
35.25 	0.057253 	4943 	0.056186
35.27 	0.058003 	4948 	0.057175
35.29 	0.053387 	4945 	0.052676
35.31 	0.053112 	4933 	0.052162
35.33 	0.064131 	4943 	0.062215
35.35 	0.053622 	4942 	0.052318
35.37 	0.047176 	4939 	0.046820
35.39 	0.057836 	4945 	0.056533
35.41 	0.057450 	4926 	0.056737
35.43 	0.056761 	4933 	0.055692
35.45 	0.055904 	4937 	0.055430
35.47 	0.053539 	4931 	0.052707
35.49 	0.061914 	4910 	0.061318
35.51 	0.054405 	4926 	0.053335
35.53 	0.050717 	4949 	0.049889
35.55 	0.060263 	4945 	0.058486
35.57 	0.055747 	4933 	0.055153
35.59 	0.051769 	4945 	0.050940
35.61 	0.058276 	4942 	0.057170
35.63 	0.056241 	4943 	0.055530
35.65 	0.055814 	4945 	0.055340
35.67 	0.058883 	4942 	0.058172
35.69 	0.055803 	4946 	0.055329
35.71 	0.059955 	4937 	0.058532
35.73 	0.052674 	4936 	0.051725
35.75 	0.057189 	4931 	0.056358
35.77 	0.053323 	4951 	0.052357
35.79 	0.054947 	4932 	0.053265
35.81 	0.059801 	4933 	0.058238
35.83 	0.051355 	4946 	0.050032
35.85 	0.051672 	4935 	0.051059
35.87 	0.051391 	4923 	0.050796
35.89 	0.055330 	4934 	0.054737
35.91 	0.055815 	4927 	0.054606
35.93 	0.053176 	4927 	0.051750
35.95 	0.058572 	4917 	0.057381
35.97 	0.052321 	4912 	0.051367
35.99 	0.057906 	4939 	0.057313
36.01 	0.055781 	4930 	0.054830
36.03 	0.058871 	4943 	0.058042
36.05 	0.056421 	4945 	0.056065
36.07 	0.051225 	4939 	0.050632
36.09 	0.061741 	4940 	0.060792
36.11 	0.053155 	4929 	0.052085
36.13 	0.054634 	4942 	0.053804
36.15 	0.056692 	4939 	0.056079
36.17 	0.053198 	4925 	0.052246
36.19 	0.051619 	4940 	0.050789
36.21 	0.052140 	4929 	0.051665
36.23 	0.058561 	4935 	0.057968
36.25 	0.057276 	4941 	0.056090
36.27 	0.056853 	4925 	0.056020
36.29 	0.055161 	4931 	0.054092
36.31 	0.058847 	4928 	0.057540
36.33 	0.064058 	4933 	0.062633
36.35 	0.051938 	4929 	0.051224
36.37 	0.060938 	4923 	0.059749
36.39 	0.054460 	4921 	0.053012
36.41 	0.054739 	4896 	0.054499
36.43 	0.049513 	4928 	0.048681
36.45 	0.054158 	4930 	0.053683
36.47 	0.057739 	4936 	0.057027
36.49 	0.058074 	4942 	0.056770
36.51 	0.059193 	4933 	0.058124
36.53 	0.055837 	4943 	0.054770
36.55 	0.056830 	4927 	0.056116
36.57 	0.057357 	4934 	0.056645
36.59 	0.059324 	4939 	0.058256
36.61 	0.054756 	4931 	0.053686
36.63 	0.054553 	4931 	0.053672
36.65 	0.061030 	4932 	0.059842
36.67 	0.050304 	4930 	0.049948
36.69 	0.057212 	4929 	0.056262
36.71 	0.050193 	4921 	0.049479
36.73 	0.054619 	4925 	0.053787
36.75 	0.053196 	4944 	0.053077
36.77 	0.059362 	4919 	0.058409
36.79 	0.055477 	4921 	0.054524
36.81 	0.060415 	4916 	0.059462
36.83 	0.053306 	4915 	0.053068
36.85 	0.054512 	4898 	0.053914
36.87 	0.055218 	4944 	0.054389
36.89 	0.053906 	4916 	0.053052
36.91 	0.052823 	4941 	0.051756
36.93 	0.051116 	4930 	0.050284
36.95 	0.056761 	4933 	0.055929
36.97 	0.052898 	4934 	0.052067
36.99 	0.057953 	4935 	0.057241
37.01 	0.060612 	4933 	0.060137
37.03 	0.055443 	4924 	0.054848
37.05 	0.054597 	4927 	0.053527
37.07 	0.060182 	4935 	0.059708
37.09 	0.056006 	4928 	0.055531
37.11 	0.051469 	4935 	0.051350
37.13 	0.054021 	4924 	0.053288
37.15 	0.052149 	4909 	0.051791
37.17 	0.048034 	4934 	0.047322
37.19 	0.054010 	4925 	0.053653
37.21 	0.055318 	4917 	0.054127
37.23 	0.055714 	4918 	0.055218
37.25 	0.054571 	4911 	0.053140
37.27 	0.055170 	4894 	0.054571
37.29 	0.053753 	4930 	0.052901
37.31 	0.053901 	4935 	0.052951
37.33 	0.057845 	4927 	0.056893
37.35 	0.049615 	4938 	0.048903
37.37 	0.051147 	4927 	0.050314
37.39 	0.054147 	4931 	0.053415
37.41 	0.056784 	4931 	0.056308
37.43 	0.053731 	4932 	0.053018
37.45 	0.049756 	4924 	0.049280
37.47 	0.055995 	4929 	0.055757
37.49 	0.056673 	4923 	0.056197
37.51 	0.052706 	4933 	0.052231
37.53 	0.057532 	4919 	0.056818
37.55 	0.051318 	4930 	0.050249
37.57 	0.053604 	4925 	0.052653
37.59 	0.052899 	4915 	0.051946
37.61 	0.053027 	4922 	0.051718
37.63 	0.058345 	4919 	0.057492
37.65 	0.055104 	4918 	0.053893
37.67 	0.056688 	4904 	0.055833
37.69 	0.049612 	4898 	0.049373
37.71 	0.051735 	4929 	0.051022
37.73 	0.057618 	4929 	0.056549
37.75 	0.054049 	4940 	0.053337
37.77 	0.050610 	4920 	0.050014
37.79 	0.047262 	4930 	0.046549
37.81 	0.053112 	4933 	0.052399
37.83 	0.044919 	4920 	0.044085
37.85 	0.054246 	4922 	0.053532
37.87 	0.054060 	4939 	0.052873
37.89 	0.057868 	4925 	0.056560
37.91 	0.048884 	4930 	0.047815
37.93 	0.046961 	4919 	0.046008
37.95 	0.051209 	4921 	0.050376
37.97 	0.055995 	4929 	0.054807
37.99 	0.053746 	4912 	0.053269
38.01 	0.049310 	4928 	0.048597
38.03 	0.049501 	4909 	0.048785
38.05 	0.049543 	4925 	0.048948
38.07 	0.056834 	4909 	0.055472
38.09 	0.043870 	4878 	0.043270
38.11 	0.049037 	4935 	0.048681
38.13 	0.059955 	4937 	0.058769
38.15 	0.054494 	4918 	0.053898
38.17 	0.046653 	4930 	0.045802
38.19 	0.051116 	4930 	0.050403
38.21 	0.054438 	4923 	0.052634
38.23 	0.056096 	4938 	0.055384
38.25 	0.051251 	4917 	0.050655
38.27 	0.058621 	4930 	0.057908
38.29 	0.054833 	4924 	0.053644
38.31 	0.051756 	4927 	0.051042
38.33 	0.054630 	4924 	0.053798
38.35 	0.060268 	4928 	0.059674
38.37 	0.062145 	4924 	0.061074
38.39 	0.058464 	4909 	0.057390
38.41 	0.066829 	4923 	0.065401
38.43 	0.063059 	4916 	0.061629
38.45 	0.065067 	4918 	0.063599
38.47 	0.059303 	4907 	0.057970
38.49 	0.062538 	4877 	0.061698
38.51 	0.066504 	4932 	0.065317
38.53 	0.067154 	4929 	0.066678
38.55 	0.064425 	4936 	0.063713
38.57 	0.063173 	4923 	0.062201
38.59 	0.061942 	4924 	0.060514
38.61 	0.061994 	4936 	0.060451
38.63 	0.059708 	4924 	0.058756
38.65 	0.055307 	4918 	0.054592
38.67 	0.057525 	4937 	0.056813
38.69 	0.054449 	4922 	0.053735
38.71 	0.052396 	4924 	0.051564
38.73 	0.053680 	4918 	0.052966
38.75 	0.054191 	4927 	0.053002
38.77 	0.052001 	4923 	0.051168
38.79 	0.046818 	4934 	0.045868
38.81 	0.046824 	4912 	0.046228
38.83 	0.051637 	4919 	0.051041
38.85 	0.050081 	4912 	0.048889
38.87 	0.047241 	4911 	0.046525
38.89 	0.051460 	4897 	0.051460
38.91 	0.050989 	4903 	0.050272
38.93 	0.048603 	4938 	0.047654
38.95 	0.039650 	4918 	0.039293
38.97 	0.048672 	4931 	0.048078
38.99 	0.045979 	4937 	0.045149
39.01 	0.048190 	4918 	0.047476
39.03 	0.043575 	4934 	0.042111
39.05 	0.049340 	4925 	0.048626
39.07 	0.050162 	4924 	0.049568
39.09 	0.051188 	4923 	0.050474
39.11 	0.047860 	4931 	0.046910
39.13 	0.044282 	4923 	0.043806
39.15 	0.048220 	4915 	0.047028
39.17 	0.044967 	4937 	0.044492
39.19 	0.044336 	4917 	0.043502
39.21 	0.046232 	4910 	0.045377
39.23 	0.049340 	4925 	0.048508
39.25 	0.043681 	4922 	0.043205
39.27 	0.044603 	4910 	0.044006
39.29 	0.045909 	4901 	0.045431
39.31 	0.048935 	4884 	0.048456
39.33 	0.046238 	4931 	0.045763
39.35 	0.044985 	4935 	0.044747
39.37 	0.046460 	4929 	0.045747
39.39 	0.039359 	4929 	0.039121
39.41 	0.047252 	4931 	0.046421
39.43 	0.041962 	4933 	0.041369
39.45 	0.048122 	4925 	0.047884
39.47 	0.039407 	4923 	0.038931
39.49 	0.046422 	4933 	0.045116
39.51 	0.043461 	4924 	0.042985
39.53 	0.043876 	4923 	0.043162
39.55 	0.044318 	4919 	0.043723
39.57 	0.046219 	4933 	0.045744
39.59 	0.042956 	4912 	0.042598
39.61 	0.046516 	4923 	0.045802
39.63 	0.043885 	4922 	0.043409
39.65 	0.046082 	4926 	0.045250
39.67 	0.043965 	4913 	0.043488
39.69 	0.045566 	4916 	0.045327
39.71 	0.037794 	4895 	0.036956
39.73 	0.040546 	4908 	0.040546
39.75 	0.048295 	4928 	0.047939
39.77 	0.043566 	4935 	0.043210
39.79 	0.049736 	4926 	0.048904
39.81 	0.048914 	4927 	0.048201
39.83 	0.045805 	4934 	0.045448
39.85 	0.045058 	4927 	0.044344
39.87 	0.042437 	4925 	0.041842
39.89 	0.041751 	4934 	0.041157
39.91 	0.040431 	4922 	0.039717
39.93 	0.049423 	4937 	0.048217
39.95 	0.046185 	4915 	0.045351
39.97 	0.047687 	4928 	0.046736
39.99 	0.045012 	4932 	0.044656
40.01 	0.050224 	4918 	0.049747
40.03 	0.039164 	4928 	0.038688
40.05 	0.046166 	4917 	0.045809
40.07 	0.042251 	4923 	0.041418
40.09 	0.042514 	4916 	0.042276
40.11 	0.043328 	4916 	0.042713
40.13 	0.047590 	4896 	0.046872
40.15 	0.041115 	4913 	0.040519
40.17 	0.040990 	4928 	0.040277
40.19 	0.040779 	4929 	0.040541
40.21 	0.043364 	4935 	0.042652
40.23 	0.043998 	4932 	0.043761
40.25 	0.039228 	4920 	0.038990
40.27 	0.045574 	4937 	0.045100
40.29 	0.042013 	4927 	0.041756
40.31 	0.043734 	4939 	0.043022
40.33 	0.045012 	4932 	0.044775
40.35 	0.041269 	4919 	0.040911
40.37 	0.049503 	4929 	0.048790
40.39 	0.044818 	4931 	0.044106
40.41 	0.043655 	4925 	0.043298
40.43 	0.041040 	4922 	0.040683
40.45 	0.041760 	4933 	0.041285
40.47 	0.039447 	4918 	0.039090
40.49 	0.043443 	4926 	0.042967
40.51 	0.040024 	4922 	0.039429
40.53 	0.036615 	4916 	0.035900
40.55 	0.037082 	4908 	0.036605
40.57 	0.042331 	4890 	0.041493
40.59 	0.042941 	4937 	0.042822
40.61 	0.041945 	4935 	0.041114
40.63 	0.041379 	4930 	0.040904
40.65 	0.042536 	4937 	0.042061
40.67 	0.042579 	4932 	0.042342
40.69 	0.043954 	4937 	0.043717
40.71 	0.038727 	4932 	0.038370
40.73 	0.038368 	4926 	0.038011
40.75 	0.041574 	4931 	0.041099
40.77 	0.044746 	4939 	0.044509
40.79 	0.041227 	4924 	0.040751
40.81 	0.039263 	4941 	0.038671
40.83 	0.037744 	4928 	0.036793
40.85 	0.043867 	4924 	0.043510
40.87 	0.041193 	4928 	0.040480
40.89 	0.042385 	4931 	0.041395
40.91 	0.046110 	4923 	0.045872
40.93 	0.040738 	4934 	0.039907
40.95 	0.042337 	4913 	0.041740
40.97 	0.042445 	4924 	0.042207
40.99 	0.043664 	4924 	0.043426
41.01 	0.040920 	4912 	0.040085
41.03 	0.040571 	4905 	0.040451
41.05 	0.044368 	4936 	0.043775
41.07 	0.050304 	4930 	0.049591
41.09 	0.042519 	4939 	0.042025
41.11 	0.045187 	4935 	0.044456
41.13 	0.041734 	4936 	0.040903
41.15 	0.042502 	4941 	0.042027
41.17 	0.040535 	4934 	0.040179
41.19 	0.036308 	4930 	0.035833
41.21 	0.047600 	4937 	0.047006
41.23 	0.045758 	4939 	0.045402
41.25 	0.044800 	4933 	0.044444
41.27 	0.039140 	4931 	0.038665
41.29 	0.042817 	4928 	0.042579
41.31 	0.041962 	4933 	0.041725
41.33 	0.038282 	4937 	0.037808
41.35 	0.039692 	4938 	0.038961
41.37 	0.043054 	4924 	0.042698
41.39 	0.038111 	4933 	0.037873
41.41 	0.046285 	4926 	0.045314
41.43 	0.044025 	4929 	0.043431
41.45 	0.043549 	4914 	0.042834
41.47 	0.038368 	4926 	0.038130
41.49 	0.041701 	4892 	0.040623
41.51 	0.039676 	4940 	0.038965
41.53 	0.044701 	4944 	0.044108
41.55 	0.039716 	4935 	0.039242
41.57 	0.043918 	4941 	0.043800
41.59 	0.043989 	4933 	0.042901
41.61 	0.041591 	4953 	0.040881
41.63 	0.039490 	4938 	0.038758
41.65 	0.045040 	4929 	0.044089
41.67 	0.039271 	4940 	0.038916
41.69 	0.034162 	4947 	0.033452
41.71 	0.040738 	4934 	0.040500
41.73 	0.038088 	4936 	0.037494
41.75 	0.040779 	4929 	0.040423
41.77 	0.038454 	4941 	0.038217
41.79 	0.035801 	4944 	0.035327
41.81 	0.041937 	4936 	0.041343
41.83 	0.036323 	4928 	0.035966
41.85 	0.039887 	4939 	0.039412
41.87 	0.038095 	4935 	0.037620
41.89 	0.040341 	4933 	0.039609
41.91 	0.038088 	4936 	0.037850
41.93 	0.036902 	4932 	0.036546
41.95 	0.041168 	4931 	0.040693
41.97 	0.037037 	4914 	0.036560
41.99 	0.041386 	4905 	0.041147
42.01 	0.036423 	4942 	0.035830
42.03 	0.038469 	4939 	0.037876
42.05 	0.034128 	4952 	0.033418
42.07 	0.037067 	4937 	0.036711
42.09 	0.040622 	4948 	0.040622
42.11 	0.039232 	4945 	0.038876
42.13 	0.037614 	4945 	0.037377
42.15 	0.036655 	4938 	0.036299
42.17 	0.040667 	4918 	0.040071
42.19 	0.037694 	4908 	0.037455
42.21 	0.039992 	4901 	0.039514
42.23 	0.040270 	4892 	0.039671
42.25 	0.035386 	4889 	0.035146
42.27 	0.035700 	4874 	0.035459
42.29 	0.040510 	4863 	0.039908
42.31 	0.031720 	4855 	0.031599
42.33 	0.038271 	4834 	0.037907
42.35 	0.033485 	4838 	0.033001
42.37 	0.036232 	4830 	0.035606
42.39 	0.040799 	4804 	0.040312
42.41 	0.038510 	4804 	0.037900
42.43 	0.039023 	4792 	0.038412
42.45 	0.039154 	4776 	0.038173
42.47 	0.038195 	4765 	0.037826
42.49 	0.036516 	4765 	0.036393
42.51 	0.035631 	4743 	0.035261
42.53 	0.035956 	4728 	0.035584
42.55 	0.035259 	4708 	0.035010
42.57 	0.031924 	4730 	0.031800
42.59 	0.038697 	4729 	0.038450
42.61 	0.037171 	4708 	0.036922
42.63 	0.035464 	4709 	0.035340
42.65 	0.038207 	4685 	0.037957
42.67 	0.040564 	4684 	0.040188
42.69 	0.043432 	4674 	0.042930
42.71 	0.039674 	4663 	0.039423
42.73 	0.034914 	4640 	0.034156
42.75 	0.038337 	4617 	0.038083
42.77 	0.041087 	4600 	0.040832
42.79 	0.039721 	4582 	0.039337
42.81 	0.037045 	4562 	0.036917
42.83 	0.042769 	4536 	0.042123
42.85 	0.039532 	4528 	0.039144
42.87 	0.035341 	4499 	0.035211
42.89 	0.035714 	4480 	0.035191
42.91 	0.038151 	4456 	0.037888
42.93 	0.033738 	4446 	0.033475
42.95 	0.033288 	4416 	0.033288
42.97 	0.037264 	4401 	0.037131
42.99 	0.040365 	4385 	0.040098
43.01 	0.035297 	4363 	0.035028
43.03 	0.033695 	4333 	0.033560
43.05 	0.039769 	4325 	0.039227
43.07 	0.035149 	4296 	0.034876
43.09 	0.040859 	4283 	0.040449
43.11 	0.037603 	4255 	0.036777
43.13 	0.045787 	4237 	0.045372
43.15 	0.038516 	4206 	0.037959
43.17 	0.042355 	4179 	0.041514
43.19 	0.040773 	4194 	0.040074
43.21 	0.040988 	4172 	0.040707
43.23 	0.038758 	4154 	0.038476
43.25 	0.037727 	4135 	0.037585
43.27 	0.038977 	4105 	0.038121
43.29 	0.038537 	4100 	0.038251
43.31 	0.038000 	4079 	0.037712
43.33 	0.041224 	4051 	0.040791
43.35 	0.040427 	4032 	0.039991
43.37 	0.039851 	4015 	0.039705
43.39 	0.037231 	4002 	0.037085
43.41 	0.034995 	3972 	0.034405
43.43 	0.040152 	3960 	0.039856
43.45 	0.036086 	3935 	0.035789
43.47 	0.035705 	3921 	0.035556
43.49 	0.038235 	3897 	0.037784
43.51 	0.034821 	3877 	0.034670
43.53 	0.036241 	3863 	0.035786
43.55 	0.040148 	2964 	0.039753
43.57 	0.030831 	2238 	0.030569
43.59 	0.029782 	1746 	0.029782
43.61 	0.042191 	1351 	0.041324
43.63 	0.033966 	1001 	0.033966
43.65 	0.045124 	687 	0.044271
43.67 	0.051793 	502 	0.051793
43.69 	0.046322 	367 	0.046322
43.71 	0.033473 	239 	0.033473
43.73 	0.025000 	120 	0.025000
43.75 	0.062500 	16 	0.062500