File: Example_Data/25SC_s1_0042.001.dat
#F C:\frames\spec\25SC_s1_0042.001
#C title =s:42 frm:1 25SC_s1
#C wavelength =0.15406

#S 1  fr_average C:\frames\spec\25SC_s1_0042.001 C:\win32app\speccom\mask.axs chi 0 180 0 360 0.02
#C 2 theta =0.000000 to 180 deg
#C   q   =0.000000 to 81.568 nm^-1
#C  chi  =0.000000 to 360 deg
#C collumns:
#C  1 position (2theta or chi in degrees)
#C  2 average intensity (sum of all counts in the region divided with number of pixels)
#C  3 Number of pixels in region)
#C  4 error (sum of sqrt(intensity) for all pixels divided by number)
#N 4
#L TTh  Int  N_pix  Err
32.99 	0.049180 	61 	0.049180
33.01 	0.046964 	873 	0.046293
33.03 	0.073329 	1391 	0.072065
33.05 	0.056915 	1757 	0.055915
33.07 	0.066829 	2050 	0.065972
33.09 	0.063911 	2347 	0.063163
33.11 	0.058162 	2579 	0.056989
33.13 	0.057644 	2793 	0.056351
33.15 	0.057352 	2999 	0.056766
33.17 	0.064980 	3201 	0.063516
33.19 	0.058348 	3342 	0.057472
33.21 	0.064028 	3436 	0.062323
33.23 	0.065569 	3523 	0.064904
33.25 	0.062569 	3612 	0.060623
33.27 	0.057576 	3630 	0.056608
33.29 	0.058388 	3648 	0.057585
33.31 	0.054645 	3660 	0.054005
33.33 	0.051275 	3686 	0.050639
33.35 	0.058473 	3694 	0.057363
33.37 	0.063813 	3714 	0.062078
33.39 	0.066238 	3729 	0.065609
33.41 	0.059626 	3740 	0.058216
33.43 	0.060090 	3761 	0.059156
33.45 	0.063080 	3773 	0.061682
33.47 	0.059242 	3798 	0.057699
33.49 	0.061433 	3809 	0.060203
33.51 	0.058978 	3815 	0.058056
33.53 	0.059620 	3841 	0.059162
33.55 	0.057247 	3843 	0.056942
33.57 	0.063451 	3877 	0.062545
33.59 	0.062113 	3880 	0.061359
33.61 	0.058327 	3909 	0.057128
33.63 	0.057413 	3919 	0.056815
33.65 	0.061053 	3931 	0.059712
33.67 	0.066262 	3954 	0.065669
33.69 	0.061725 	3953 	0.060836
33.71 	0.060377 	3975 	0.059493
33.73 	0.062687 	4004 	0.061956
33.75 	0.054264 	3999 	0.053531
33.77 	0.058137 	4025 	0.057263
33.79 	0.055432 	4041 	0.054562
33.81 	0.058197 	4038 	0.057037
33.83 	0.059012 	4050 	0.057566
33.85 	0.054891 	4099 	0.054463
33.87 	0.066650 	4111 	0.065795
33.89 	0.055812 	4121 	0.054225
33.91 	0.063389 	4149 	0.062259
33.93 	0.058781 	4151 	0.058217
33.95 	0.057642 	4181 	0.056381
33.97 	0.057995 	4190 	0.056877
33.99 	0.061429 	4200 	0.060034
34.01 	0.059340 	4213 	0.058367
34.03 	0.060085 	4244 	0.059395
34.05 	0.064440 	4252 	0.063338
34.07 	0.060684 	4268 	0.059449
34.09 	0.057396 	4286 	0.056303
34.11 	0.054858 	4302 	0.054019
34.13 	0.049675 	4308 	0.049131
34.15 	0.053336 	4331 	0.052795
34.17 	0.055172 	4350 	0.054095
34.19 	0.052270 	4362 	0.051464
34.21 	0.066118 	4371 	0.065179
34.23 	0.051673 	4393 	0.050340
34.25 	0.051317 	4404 	0.050785
34.27 	0.059023 	4422 	0.058493
34.29 	0.055693 	4435 	0.055033
34.31 	0.049798 	4458 	0.049535
34.33 	0.059271 	4471 	0.057961
34.35 	0.062890 	4484 	0.061845
34.37 	0.054776 	4491 	0.053994
34.39 	0.053754 	4502 	0.052453
34.41 	0.057888 	4526 	0.056982
34.43 	0.055739 	4539 	0.054836
34.45 	0.056891 	4535 	0.056374
34.47 	0.058580 	4592 	0.057028
34.49 	0.060039 	4597 	0.058892
34.51 	0.058836 	4606 	0.056908
34.53 	0.054706 	4643 	0.053697
34.55 	0.052983 	4643 	0.051847
34.57 	0.054077 	4660 	0.053197
34.59 	0.052406 	4675 	0.051905
34.61 	0.058761 	4697 	0.057888
34.63 	0.056900 	4710 	0.055657
34.65 	0.054226 	4721 	0.053481
34.67 	0.052521 	4741 	0.052273
34.69 	0.055532 	4754 	0.054916
34.71 	0.058959 	4766 	0.058099
34.73 	0.054105 	4787 	0.053860
34.75 	0.056572 	4808 	0.055354
34.77 	0.054587 	4818 	0.054344
34.79 	0.056592 	4824 	0.055378
34.81 	0.054489 	4845 	0.053623
34.83 	0.053065 	4862 	0.052342
34.85 	0.058739 	4869 	0.057757
34.87 	0.053615 	4868 	0.052532
34.89 	0.055510 	4882 	0.055030
34.91 	0.063294 	4882 	0.061854
34.93 	0.052664 	4899 	0.051588
34.95 	0.054397 	4890 	0.053798
34.97 	0.055488 	4902 	0.055010
34.99 	0.059220 	4897 	0.058143
35.01 	0.059720 	4923 	0.058649
35.03 	0.058264 	4943 	0.056961
35.05 	0.054174 	4947 	0.053701
35.07 	0.053441 	4940 	0.052493
35.09 	0.060973 	4953 	0.059436
35.11 	0.051749 	4947 	0.050801
35.13 	0.053247 	4958 	0.052538
35.15 	0.059145 	4937 	0.057840
35.17 	0.059644 	4946 	0.058460
35.19 	0.057467 	4942 	0.056281
35.21 	0.059858 	4945 	0.058911
35.23 	0.053185 	4945 	0.052474
35.25 	0.055230 	4943 	0.054519
35.27 	0.054365 	4948 	0.053537
35.29 	0.058038 	4945 	0.057071
35.31 	0.056152 	4933 	0.055440
35.33 	0.051386 	4943 	0.050181
35.35 	0.058681 	4942 	0.057851
35.37 	0.052237 	4939 	0.051407
35.39 	0.049545 	4945 	0.049071
35.41 	0.056029 	4926 	0.054840
35.43 	0.064464 	4933 	0.063019
35.45 	0.055904 	4937 	0.055074
35.47 	0.052322 	4931 	0.051372
35.49 	0.056823 	4910 	0.056107
35.51 	0.052375 	4926 	0.051781
35.53 	0.060214 	4949 	0.059248
35.55 	0.060465 	4945 	0.059281
35.57 	0.052909 	4933 	0.051840
35.59 	0.061274 	4945 	0.060800
35.61 	0.055241 	4942 	0.054530
35.63 	0.053611 	4943 	0.053019
35.65 	0.056623 	4945 	0.055912
35.67 	0.057669 	4942 	0.056247
35.69 	0.055196 	4946 	0.054604
35.71 	0.058132 	4937 	0.057658
35.73 	0.055713 	4936 	0.055238
35.75 	0.060231 	4931 	0.059637
35.77 	0.053323 	4951 	0.052849
35.79 	0.062449 	4932 	0.061262
35.81 	0.052706 	4933 	0.051994
35.83 	0.056005 	4946 	0.054939
35.85 	0.057345 	4935 	0.056396
35.87 	0.058298 	4923 	0.057822
35.89 	0.061613 	4934 	0.060426
35.91 	0.057033 	4927 	0.056200
35.93 	0.063122 	4927 	0.062170
35.95 	0.060403 	4917 	0.059192
35.97 	0.055375 	4912 	0.054778
35.99 	0.057502 	4939 	0.057027
36.01 	0.059838 	4930 	0.058274
36.03 	0.055837 	4943 	0.054770
36.05 	0.057432 	4945 	0.056839
36.07 	0.057704 	4939 	0.056992
36.09 	0.056680 	4940 	0.056324
36.11 	0.054981 	4929 	0.054030
36.13 	0.050182 	4942 	0.049234
36.15 	0.053452 	4939 	0.052622
36.17 	0.060305 	4925 	0.059948
36.19 	0.057287 	4940 	0.056220
36.21 	0.052546 	4929 	0.051595
36.23 	0.059980 	4935 	0.058674
36.25 	0.056062 	4941 	0.054757
36.27 	0.058680 	4925 	0.057729
36.29 	0.051511 	4931 	0.050917
36.31 	0.058036 	4928 	0.057441
36.33 	0.054733 	4933 	0.053783
36.35 	0.055792 	4929 	0.054604
36.37 	0.056063 	4923 	0.055111
36.39 	0.053851 	4921 	0.052899
36.41 	0.053513 	4896 	0.052436
36.43 	0.057021 	4928 	0.055456
36.45 	0.054767 	4930 	0.054173
36.47 	0.054295 	4936 	0.052990
36.49 	0.055848 	4942 	0.055255
36.51 	0.057774 	4933 	0.056349
36.53 	0.065143 	4943 	0.063602
36.55 	0.055206 	4927 	0.054136
36.57 	0.044589 	4934 	0.044351
36.59 	0.056692 	4939 	0.055961
36.61 	0.050294 	4931 	0.049819
36.63 	0.053944 	4931 	0.053588
36.65 	0.054745 	4932 	0.053794
36.67 	0.054361 	4930 	0.053529
36.69 	0.052546 	4929 	0.051952
36.71 	0.054460 	4921 	0.053270
36.73 	0.056447 	4925 	0.055971
36.75 	0.054612 	4944 	0.053782
36.77 	0.060378 	4919 	0.059306
36.79 	0.055273 	4921 	0.054321
36.81 	0.054109 	4916 	0.053037
36.83 	0.050661 	4915 	0.050065
36.85 	0.058800 	4898 	0.057604
36.87 	0.058657 	4944 	0.056998
36.89 	0.049430 	4916 	0.048835
36.91 	0.054442 	4941 	0.053949
36.93 	0.051116 	4930 	0.050403
36.95 	0.050274 	4933 	0.049779
36.97 	0.054317 	4934 	0.053011
36.99 	0.056535 	4935 	0.055585
37.01 	0.054733 	4933 	0.053289
37.03 	0.052396 	4924 	0.051068
37.05 	0.050335 	4927 	0.049978
37.07 	0.050861 	4935 	0.049674
37.09 	0.059456 	4928 	0.058505
37.11 	0.057345 	4935 	0.056871
37.13 	0.059504 	4924 	0.058315
37.15 	0.054797 	4909 	0.053962
37.17 	0.057965 	4934 	0.057015
37.19 	0.055431 	4925 	0.055194
37.21 	0.050437 	4917 	0.049246
37.23 	0.052664 	4918 	0.051830
37.25 	0.057829 	4911 	0.056637
37.27 	0.059052 	4894 	0.058334
37.29 	0.061055 	4930 	0.060579
37.31 	0.055927 	4935 	0.055452
37.33 	0.054800 	4927 	0.054443
37.35 	0.057513 	4938 	0.055912
37.37 	0.048711 	4927 	0.047879
37.39 	0.055972 	4931 	0.054784
37.41 	0.060840 	4931 	0.060246
37.43 	0.057178 	4932 	0.055495
37.45 	0.051178 	4924 	0.050226
37.47 	0.055589 	4929 	0.054757
37.49 	0.054641 	4923 	0.053809
37.51 	0.057166 	4933 	0.056097
37.53 	0.057125 	4919 	0.056054
37.55 	0.049696 	4930 	0.048745
37.57 	0.052995 	4925 	0.052281
37.59 	0.053917 	4915 	0.052586
37.61 	0.053434 	4922 	0.052719
37.63 	0.055499 	4919 	0.054308
37.65 	0.054494 	4918 	0.054017
37.67 	0.062398 	4904 	0.061303
37.69 	0.054512 	4898 	0.054034
37.71 	0.052140 	4929 	0.051665
37.73 	0.060053 	4929 	0.058944
37.75 	0.048381 	4940 	0.047551
37.77 	0.053862 	4920 	0.053266
37.79 	0.052333 	4930 	0.051739
37.81 	0.053720 	4933 	0.053007
37.83 	0.055081 	4920 	0.054367
37.85 	0.052215 	4922 	0.051738
37.87 	0.047176 	4939 	0.046938
37.89 	0.056447 	4925 	0.055376
37.91 	0.049087 	4930 	0.048493
37.93 	0.053060 	4919 	0.052087
37.95 	0.059134 	4921 	0.058658
37.97 	0.055386 	4929 	0.054555
37.99 	0.055375 	4912 	0.054301
38.01 	0.056412 	4928 	0.055224
38.03 	0.056020 	4909 	0.055184
38.05 	0.057259 	4925 	0.056426
38.07 	0.051334 	4909 	0.050618
38.09 	0.055146 	4878 	0.054185
38.11 	0.055319 	4935 	0.054844
38.13 	0.055499 	4937 	0.054313
38.15 	0.057747 	4918 	0.056675
38.17 	0.059635 	4930 	0.058684
38.19 	0.054361 	4930 	0.053391
38.21 	0.060126 	4923 	0.058916
38.23 	0.063994 	4938 	0.062550
38.25 	0.059589 	4917 	0.058517
38.27 	0.057809 	4930 	0.057334
38.29 	0.064785 	4924 	0.063833
38.31 	0.062310 	4927 	0.060388
38.33 	0.067425 	4924 	0.066235
38.35 	0.071429 	4928 	0.069646
38.37 	0.075751 	4924 	0.073848
38.39 	0.072520 	4909 	0.070849
38.41 	0.069876 	4923 	0.068686
38.43 	0.069976 	4916 	0.069022
38.45 	0.076251 	4918 	0.074821
38.47 	0.079071 	4907 	0.077399
38.49 	0.073816 	4877 	0.072014
38.51 	0.077859 	4932 	0.075959
38.53 	0.073443 	4929 	0.072017
38.55 	0.070097 	4936 	0.068673
38.57 	0.074345 	4923 	0.073036
38.59 	0.068237 	4924 	0.067167
38.61 	0.066451 	4936 	0.064651
38.63 	0.072502 	4924 	0.071154
38.65 	0.069337 	4918 	0.067908
38.67 	0.068260 	4937 	0.067311
38.69 	0.060748 	4922 	0.059538
38.71 	0.058083 	4924 	0.057131
38.73 	0.052460 	4918 	0.051507
38.75 	0.055612 	4927 	0.054285
38.77 	0.050985 	4923 	0.050390
38.79 	0.056344 	4934 	0.055394
38.81 	0.051710 	4912 	0.050995
38.83 	0.057735 	4919 	0.057021
38.85 	0.048249 	4912 	0.047653
38.87 	0.052331 	4911 	0.051854
38.89 	0.051256 	4897 	0.050897
38.91 	0.049969 	4903 	0.049730
38.93 	0.047388 	4938 	0.046794
38.95 	0.053274 	4918 	0.052678
38.97 	0.042791 	4931 	0.042434
38.99 	0.044967 	4937 	0.044136
39.01 	0.043310 	4918 	0.043072
39.03 	0.046210 	4934 	0.045735
39.05 	0.045685 	4925 	0.045328
39.07 	0.047725 	4924 	0.046893
39.09 	0.043266 	4923 	0.042790
39.11 	0.045224 	4931 	0.044373
39.13 	0.044891 	4923 	0.044415
39.15 	0.045575 	4915 	0.044979
39.17 	0.050638 	4937 	0.049057
39.19 	0.050031 	4917 	0.049554
39.21 	0.045010 	4910 	0.043817
39.23 	0.043858 	4925 	0.043263
39.25 	0.053434 	4922 	0.052719
39.27 	0.049491 	4910 	0.048775
39.29 	0.045909 	4901 	0.045550
39.31 	0.038288 	4884 	0.037669
39.33 	0.044210 	4931 	0.043854
39.35 	0.048227 	4935 	0.047396
39.37 	0.043822 	4929 	0.043466
39.39 	0.047880 	4929 	0.047523
39.41 	0.043196 	4931 	0.042959
39.43 	0.040138 	4933 	0.039663
39.45 	0.043858 	4925 	0.043363
39.47 	0.040219 	4923 	0.039505
39.49 	0.045003 	4933 	0.044528
39.51 	0.049553 	4924 	0.049196
39.53 	0.042251 	4923 	0.041894
39.55 	0.044115 	4919 	0.043519
39.57 	0.040138 	4933 	0.039900
39.59 	0.045195 	4912 	0.044957
39.61 	0.043876 	4923 	0.043757
39.63 	0.041853 	4922 	0.041258
39.65 	0.043646 	4926 	0.042814
39.67 	0.037859 	4913 	0.037501
39.69 	0.039463 	4916 	0.039086
39.71 	0.040449 	4895 	0.040210
39.73 	0.047881 	4908 	0.047165
39.75 	0.041193 	4928 	0.040480
39.77 	0.043161 	4935 	0.042449
39.79 	0.037556 	4926 	0.037318
39.81 	0.040999 	4927 	0.040523
39.83 	0.044791 	4934 	0.044673
39.85 	0.041405 	4927 	0.040691
39.87 	0.040406 	4925 	0.040049
39.89 	0.041143 	4934 	0.040431
39.91 	0.048964 	4922 	0.048607
39.93 	0.039700 	4937 	0.039463
39.95 	0.045168 	4915 	0.044214
39.97 	0.044846 	4928 	0.044489
39.99 	0.042174 	4932 	0.041580
40.01 	0.042497 	4918 	0.042259
40.03 	0.035714 	4928 	0.035595
40.05 	0.038235 	4917 	0.037877
40.07 	0.039001 	4923 	0.038763
40.09 	0.047193 	4916 	0.046955
40.11 	0.042514 	4916 	0.042157
40.13 	0.044118 	4896 	0.043519
40.15 	0.042947 	4913 	0.042590
40.17 	0.040584 	4928 	0.040347
40.19 	0.039968 	4929 	0.038898
40.21 	0.038906 	4935 	0.038550
40.23 	0.045418 	4932 	0.044824
40.25 	0.044309 	4920 	0.043952
40.27 	0.040105 	4937 	0.039868
40.29 	0.043231 	4927 	0.042993
40.31 	0.041304 	4939 	0.040948
40.33 	0.042174 	4932 	0.041698
40.35 	0.044928 	4919 	0.044451
40.37 	0.044025 	4929 	0.043669
40.39 	0.037518 	4931 	0.037280
40.41 	0.049340 	4925 	0.048270
40.43 	0.044088 	4922 	0.043612
40.45 	0.039935 	4933 	0.039341
40.47 	0.043920 	4918 	0.042848
40.49 	0.039180 	4926 	0.038704
40.51 	0.039415 	4922 	0.038939
40.53 	0.043531 	4916 	0.042816
40.55 	0.041157 	4908 	0.040799
40.57 	0.039468 	4890 	0.039349
40.59 	0.044359 	4937 	0.043884
40.61 	0.041540 	4935 	0.041065
40.63 	0.038540 	4930 	0.038302
40.65 	0.040105 	4937 	0.039749
40.67 	0.040146 	4932 	0.039908
40.69 	0.042131 	4937 	0.041419
40.71 	0.041565 	4932 	0.040971
40.73 	0.038165 	4926 	0.037927
40.75 	0.038937 	4931 	0.038581
40.77 	0.044746 	4939 	0.044271
40.79 	0.044070 	4924 	0.043237
40.81 	0.043918 	4941 	0.043563
40.83 	0.041599 	4928 	0.041005
40.85 	0.041024 	4924 	0.039933
40.87 	0.044034 	4928 	0.043559
40.89 	0.037112 	4931 	0.036518
40.91 	0.038391 	4923 	0.038034
40.93 	0.046007 	4934 	0.045058
40.95 	0.048646 	4913 	0.047931
40.97 	0.038790 	4924 	0.038314
40.99 	0.041836 	4924 	0.041222
41.01 	0.039292 	4912 	0.038815
41.03 	0.045464 	4905 	0.044867
41.05 	0.043152 	4936 	0.042183
41.07 	0.039554 	4930 	0.038960
41.09 	0.041911 	4939 	0.041318
41.11 	0.038501 	4935 	0.038263
41.13 	0.044165 	4936 	0.043809
41.15 	0.039870 	4941 	0.039633
41.17 	0.042764 	4934 	0.042052
41.19 	0.038134 	4930 	0.037421
41.21 	0.039903 	4937 	0.039310
41.23 	0.041101 	4939 	0.040983
41.25 	0.036489 	4933 	0.036251
41.27 	0.042385 	4931 	0.042029
41.29 	0.043425 	4928 	0.043188
41.31 	0.042165 	4933 	0.041690
41.33 	0.045169 	4937 	0.045050
41.35 	0.044957 	4938 	0.044483
41.37 	0.041836 	4924 	0.041122
41.39 	0.040138 	4933 	0.039663
41.41 	0.041819 	4926 	0.041462
41.43 	0.039968 	4929 	0.039492
41.45 	0.036427 	4914 	0.036188
41.47 	0.043240 	4926 	0.042764
41.49 	0.038021 	4892 	0.037662
41.51 	0.037045 	4940 	0.036689
41.53 	0.045712 	4944 	0.044290
41.55 	0.039108 	4935 	0.038515
41.57 	0.044525 	4941 	0.043557
41.59 	0.040138 	4933 	0.040019
41.61 	0.041793 	4953 	0.041320
41.63 	0.047590 	4938 	0.047234
41.65 	0.043417 	4929 	0.043179
41.67 	0.037045 	4940 	0.036807
41.69 	0.043461 	4947 	0.042513
41.71 	0.038914 	4934 	0.038320
41.73 	0.040721 	4936 	0.040603
41.75 	0.038750 	4929 	0.038513
41.77 	0.040073 	4941 	0.039954
41.79 	0.039846 	4944 	0.039728
41.81 	0.037277 	4936 	0.036921
41.83 	0.036932 	4928 	0.036694
41.85 	0.041506 	4939 	0.040538
41.87 	0.034650 	4935 	0.034650
41.89 	0.033245 	4933 	0.032770
41.91 	0.037885 	4936 	0.037292
41.93 	0.040754 	4932 	0.040754
41.95 	0.035895 	4931 	0.035895
41.97 	0.040090 	4914 	0.039970
41.99 	0.037717 	4905 	0.036861
42.01 	0.036018 	4942 	0.035544
42.03 	0.038267 	4939 	0.037437
42.05 	0.040590 	4952 	0.040235
42.07 	0.038890 	4937 	0.038534
42.09 	0.043856 	4948 	0.043619
42.11 	0.042265 	4945 	0.041436
42.13 	0.039434 	4945 	0.038723
42.15 	0.040300 	4938 	0.039944
42.17 	0.041684 	4918 	0.040969
42.19 	0.037490 	4908 	0.037251
42.21 	0.041216 	4901 	0.040858
42.23 	0.035773 	4892 	0.035413
42.25 	0.039476 	4889 	0.039237
42.27 	0.039393 	4874 	0.037830
42.29 	0.041949 	4863 	0.041588
42.31 	0.035633 	4855 	0.035513
42.33 	0.032892 	4834 	0.032286
42.35 	0.037826 	4838 	0.037462
42.37 	0.044306 	4830 	0.043700
42.39 	0.039550 	4804 	0.038941
42.41 	0.034971 	4804 	0.034727
42.43 	0.038606 	4792 	0.037486
42.45 	0.038107 	4776 	0.037494
42.47 	0.034627 	4765 	0.033993
42.49 	0.037775 	4765 	0.037284
42.51 	0.039216 	4743 	0.038454
42.53 	0.035956 	4728 	0.035832
42.55 	0.037596 	4708 	0.037222
42.57 	0.036575 	4730 	0.036451
42.59 	0.036371 	4729 	0.036124
42.61 	0.040357 	4708 	0.040108
42.63 	0.038012 	4709 	0.037619
42.65 	0.041195 	4685 	0.040570
42.67 	0.036507 	4684 	0.036132
42.69 	0.036585 	4674 	0.036209
42.71 	0.038387 	4663 	0.037885
42.73 	0.036638 	4640 	0.036259
42.75 	0.039853 	4617 	0.038965
42.77 	0.040217 	4600 	0.039453
42.79 	0.032519 	4582 	0.032263
42.81 	0.033976 	4562 	0.033463
42.83 	0.041005 	4536 	0.040101
42.85 	0.041740 	4528 	0.041740
42.87 	0.035341 	4499 	0.035211
42.89 	0.032812 	4480 	0.032551
42.91 	0.035233 	4456 	0.034576
42.93 	0.036437 	4446 	0.035625
42.95 	0.039629 	4416 	0.039231
42.97 	0.037491 	4401 	0.037225
42.99 	0.034664 	4385 	0.034263
43.01 	0.032317 	4363 	0.031780
43.03 	0.038541 	4333 	0.038136
43.05 	0.037225 	4325 	0.036548
43.07 	0.037709 	4296 	0.037028
43.09 	0.039925 	4283 	0.039241
43.11 	0.039953 	4255 	0.038852
43.13 	0.036819 	4237 	0.036542
43.15 	0.033286 	4206 	0.032868
43.17 	0.036612 	4179 	0.035771
43.19 	0.033143 	4194 	0.033003
43.21 	0.038111 	4172 	0.037830
43.23 	0.040202 	4154 	0.039779
43.25 	0.037485 	4135 	0.037202
43.27 	0.040195 	4105 	0.039196
43.29 	0.037317 	4100 	0.036888
43.31 	0.036529 	4079 	0.036529
43.33 	0.030857 	4051 	0.030857
43.35 	0.035466 	4032 	0.035176
43.37 	0.039851 	4015 	0.039559
43.39 	0.031984 	4002 	0.031691
43.41 	0.039023 	3972 	0.038581
43.43 	0.040404 	3960 	0.039960
43.45 	0.038374 	3935 	0.037778
43.47 	0.039531 	3921 	0.038933
43.49 	0.034899 	3897 	0.034297
43.51 	0.035079 	3877 	0.035079
43.53 	0.035206 	3863 	0.034751
43.55 	0.038799 	2964 	0.038601
43.57 	0.038427 	2238 	0.038427
43.59 	0.042383 	1746 	0.042047
43.61 	0.042191 	1351 	0.041324
43.63 	0.040959 	1001 	0.040959
43.65 	0.042213 	687 	0.042213
43.67 	0.047809 	502 	0.047809
43.69 	0.038147 	367 	0.038147
43.71 	0.016736 	239 	0.016736
43.73 	0.033333 	120 	0.033333
43.75 	0.000000 	16 	0.000000