File: Example_Data/25SC_s1_0015.002.dat
#F C:\frames\spec\25SC_s1_0015.002
#C title =s:15 frm:2 25SC_s1
#C wavelength =0.15406

#S 1  fr_average C:\frames\spec\25SC_s1_0015.002 C:\win32app\speccom\mask.axs chi 0 180 0 360 0.02
#C 2 theta =0.000000 to 180 deg
#C   q   =0.000000 to 81.568 nm^-1
#C  chi  =0.000000 to 360 deg
#C collumns:
#C  1 position (2theta or chi in degrees)
#C  2 average intensity (sum of all counts in the region divided with number of pixels)
#C  3 Number of pixels in region)
#C  4 error (sum of sqrt(intensity) for all pixels divided by number)
#N 4
#L TTh  Int  N_pix  Err
32.99 	0.016393 	61 	0.016393
33.01 	0.075601 	873 	0.074259
33.03 	0.069734 	1391 	0.068892
33.05 	0.057484 	1757 	0.057484
33.07 	0.049268 	2050 	0.048983
33.09 	0.066894 	2347 	0.065896
33.11 	0.054672 	2579 	0.053764
33.13 	0.054422 	2793 	0.053163
33.15 	0.056019 	2999 	0.055042
33.17 	0.051546 	3201 	0.050997
33.19 	0.060742 	3342 	0.059866
33.21 	0.054424 	3436 	0.053401
33.23 	0.060744 	3523 	0.059746
33.25 	0.062016 	3612 	0.061367
33.27 	0.057300 	3630 	0.056816
33.29 	0.060581 	3648 	0.059297
33.31 	0.055191 	3660 	0.054071
33.33 	0.066196 	3686 	0.064130
33.35 	0.066594 	3694 	0.065643
33.37 	0.060043 	3714 	0.058781
33.39 	0.066774 	3729 	0.065203
33.41 	0.057219 	3740 	0.056097
33.43 	0.065142 	3761 	0.063740
33.45 	0.056189 	3773 	0.055412
33.47 	0.064508 	3798 	0.064045
33.49 	0.054345 	3809 	0.053268
33.51 	0.059240 	3815 	0.058779
33.53 	0.059099 	3841 	0.058184
33.55 	0.059329 	3843 	0.057652
33.57 	0.056745 	3877 	0.056141
33.59 	0.054124 	3880 	0.053671
33.61 	0.059094 	3909 	0.058345
33.63 	0.055882 	3919 	0.054088
33.65 	0.056983 	3931 	0.055344
33.67 	0.062974 	3954 	0.061789
33.69 	0.061219 	3953 	0.060330
33.71 	0.053333 	3975 	0.052278
33.73 	0.060939 	4004 	0.060061
33.75 	0.056764 	3999 	0.055446
33.77 	0.060124 	4025 	0.058936
33.79 	0.064835 	4041 	0.063966
33.81 	0.056959 	4038 	0.056088
33.83 	0.062716 	4050 	0.062427
33.85 	0.059039 	4099 	0.057300
33.87 	0.061542 	4111 	0.060687
33.89 	0.053142 	4121 	0.052574
33.91 	0.059291 	4149 	0.058162
33.93 	0.052036 	4151 	0.051612
33.95 	0.057881 	4181 	0.057040
33.97 	0.060621 	4190 	0.059362
33.99 	0.058095 	4200 	0.057537
34.01 	0.056492 	4213 	0.055658
34.03 	0.052780 	4244 	0.052366
34.05 	0.065851 	4252 	0.064749
34.07 	0.062793 	4268 	0.061832
34.09 	0.058563 	4286 	0.057879
34.11 	0.057415 	4302 	0.056440
34.13 	0.053621 	4308 	0.052805
34.15 	0.055414 	4331 	0.054468
34.17 	0.063218 	4350 	0.063084
34.19 	0.060981 	4362 	0.059213
34.21 	0.060398 	4371 	0.059058
34.23 	0.055315 	4393 	0.053693
34.25 	0.057902 	4404 	0.056306
34.27 	0.052239 	4422 	0.051709
34.29 	0.052086 	4435 	0.051029
34.31 	0.057425 	4458 	0.056636
34.33 	0.061507 	4471 	0.059935
34.35 	0.051740 	4484 	0.051217
34.37 	0.050100 	4491 	0.049448
34.39 	0.055309 	4502 	0.054528
34.41 	0.057225 	4526 	0.056578
34.43 	0.058383 	4539 	0.057609
34.45 	0.056670 	4535 	0.056412
34.47 	0.052483 	4592 	0.051845
34.49 	0.051990 	4597 	0.050823
34.51 	0.061876 	4606 	0.061494
34.53 	0.055137 	4643 	0.054506
34.55 	0.054491 	4643 	0.053860
34.57 	0.062017 	4660 	0.060886
34.59 	0.057968 	4675 	0.056423
34.61 	0.059613 	4697 	0.058740
34.63 	0.056688 	4710 	0.055817
34.65 	0.056344 	4721 	0.055475
34.67 	0.059481 	4741 	0.058369
34.69 	0.051956 	4754 	0.050601
34.71 	0.054133 	4766 	0.053130
34.73 	0.052851 	4787 	0.051995
34.75 	0.058236 	4808 	0.056774
34.77 	0.056040 	4818 	0.054702
34.79 	0.054934 	4824 	0.054327
34.81 	0.051600 	4845 	0.050995
34.83 	0.061909 	4862 	0.060704
34.85 	0.054015 	4869 	0.053293
34.87 	0.051150 	4868 	0.050910
34.89 	0.063499 	4882 	0.062659
34.91 	0.054076 	4882 	0.053236
34.93 	0.051643 	4899 	0.051045
34.95 	0.057669 	4890 	0.056830
34.97 	0.065075 	4902 	0.063761
34.99 	0.053502 	4897 	0.052545
35.01 	0.059720 	4923 	0.059006
35.03 	0.063322 	4943 	0.062255
35.05 	0.057004 	4947 	0.056175
35.07 	0.053644 	4940 	0.053169
35.09 	0.061983 	4953 	0.060445
35.11 	0.057206 	4947 	0.056378
35.13 	0.057079 	4958 	0.056725
35.15 	0.060361 	4937 	0.059649
35.17 	0.055803 	4946 	0.054737
35.19 	0.056455 	4942 	0.055625
35.21 	0.059454 	4945 	0.058487
35.23 	0.059656 	4945 	0.059182
35.25 	0.052802 	4943 	0.052328
35.27 	0.052749 	4948 	0.051683
35.29 	0.057836 	4945 	0.056889
35.31 	0.058180 	4933 	0.057111
35.33 	0.058062 	4943 	0.057469
35.35 	0.058883 	4942 	0.058290
35.37 	0.058919 	4939 	0.058207
35.39 	0.059656 	4945 	0.058709
35.41 	0.060089 	4926 	0.059851
35.43 	0.053314 	4933 	0.052364
35.45 	0.055297 	4937 	0.054585
35.47 	0.058609 	4931 	0.057421
35.49 	0.060081 	4910 	0.058869
35.51 	0.062322 	4926 	0.061728
35.53 	0.057183 	4949 	0.056828
35.55 	0.056421 	4945 	0.055354
35.57 	0.055342 	4933 	0.054510
35.59 	0.063701 	4945 	0.062635
35.61 	0.062525 	4942 	0.061340
35.63 	0.052397 	4943 	0.051449
35.65 	0.056016 	4945 	0.054358
35.67 	0.062323 	4942 	0.061138
35.69 	0.055398 	4946 	0.054569
35.71 	0.064817 	4937 	0.063729
35.73 	0.057131 	4936 	0.056301
35.75 	0.051916 	4931 	0.050728
35.77 	0.061200 	4951 	0.060608
35.79 	0.046026 	4932 	0.045195
35.81 	0.054733 	4933 	0.054377
35.83 	0.057622 	4946 	0.057149
35.85 	0.059980 	4935 	0.059030
35.87 	0.059517 	4923 	0.058446
35.89 	0.062019 	4934 	0.060555
35.91 	0.057642 	4927 	0.056552
35.93 	0.058656 	4927 	0.057705
35.95 	0.057149 	4917 	0.056196
35.97 	0.058225 	4912 	0.057509
35.99 	0.056692 	4939 	0.055624
36.01 	0.060446 	4930 	0.059377
36.03 	0.061299 	4943 	0.060469
36.05 	0.061072 	4945 	0.059986
36.07 	0.059729 	4939 	0.058780
36.09 	0.054656 	4940 	0.053589
36.11 	0.055792 	4929 	0.055198
36.13 	0.059895 	4942 	0.058709
36.15 	0.052035 	4939 	0.051205
36.17 	0.058680 	4925 	0.058085
36.19 	0.056073 	4940 	0.055599
36.21 	0.057618 	4929 	0.056786
36.23 	0.052685 	4935 	0.051953
36.25 	0.060109 	4941 	0.058074
36.27 	0.058883 	4925 	0.057317
36.29 	0.062868 	4931 	0.062036
36.31 	0.054992 	4928 	0.053684
36.33 	0.064464 	4933 	0.064108
36.35 	0.062082 	4929 	0.061230
36.37 	0.061142 	4923 	0.060190
36.39 	0.055070 	4921 	0.054237
36.41 	0.054126 	4896 	0.053288
36.43 	0.062500 	4928 	0.061787
36.45 	0.055375 	4930 	0.053949
36.47 	0.057131 	4936 	0.056419
36.49 	0.052003 	4942 	0.050936
36.51 	0.063653 	4933 	0.062465
36.53 	0.059276 	4943 	0.057972
36.55 	0.058859 	4927 	0.057908
36.57 	0.055533 	4934 	0.055058
36.59 	0.057704 	4939 	0.056518
36.61 	0.056784 	4931 	0.056308
36.63 	0.058000 	4931 	0.057169
36.65 	0.057380 	4932 	0.056311
36.67 	0.055781 	4930 	0.054949
36.69 	0.061676 	4929 	0.060705
36.71 	0.059541 	4921 	0.057993
36.73 	0.055431 	4925 	0.054837
36.75 	0.058455 	4944 	0.057507
36.77 	0.053263 	4919 	0.053025
36.79 	0.054257 	4921 	0.053543
36.81 	0.058584 	4916 	0.056916
36.83 	0.059207 	4915 	0.057895
36.85 	0.055125 	4898 	0.054168
36.87 	0.054814 	4944 	0.053985
36.89 	0.055736 	4916 	0.054664
36.91 	0.055252 	4941 	0.054778
36.93 	0.055984 	4930 	0.054558
36.95 	0.058180 	4933 	0.057586
36.97 	0.060195 	4934 	0.059601
36.99 	0.056332 	4935 	0.056095
37.01 	0.057774 	4933 	0.056824
37.03 	0.054224 	4924 	0.053629
37.05 	0.057033 	4927 	0.055963
37.07 	0.056332 	4935 	0.055126
37.09 	0.051948 	4928 	0.051235
37.11 	0.054914 	4935 	0.053964
37.13 	0.054833 	4924 	0.054001
37.15 	0.050723 	4909 	0.049769
37.17 	0.058776 	4934 	0.058063
37.19 	0.056244 	4925 	0.055273
37.21 	0.055318 	4917 	0.054246
37.23 	0.053274 	4918 	0.052678
37.25 	0.056608 	4911 	0.056130
37.27 	0.052922 	4894 	0.052204
37.29 	0.060041 	4930 	0.058852
37.31 	0.053901 	4935 	0.053426
37.33 	0.061498 	4927 	0.060903
37.35 	0.052450 	4938 	0.050889
37.37 	0.053582 	4927 	0.052512
37.39 	0.054756 	4931 	0.053805
37.41 	0.058812 	4931 	0.057604
37.43 	0.048865 	4932 	0.048033
37.45 	0.050366 	4924 	0.050128
37.47 	0.050314 	4929 	0.049720
37.49 	0.057079 	4923 	0.056246
37.51 	0.055544 	4933 	0.054476
37.53 	0.050620 	4919 	0.049906
37.55 	0.059432 	4930 	0.058481
37.57 	0.052995 	4925 	0.052043
37.59 	0.055748 	4915 	0.054437
37.61 	0.052824 	4922 	0.052110
37.63 	0.049807 	4919 	0.049211
37.65 	0.054494 	4918 	0.053422
37.67 	0.051183 	4904 	0.050347
37.69 	0.052062 	4898 	0.051344
37.71 	0.052343 	4929 	0.051511
37.73 	0.050720 	4929 	0.050483
37.75 	0.054656 	4940 	0.053589
37.77 	0.054065 	4920 	0.052993
37.79 	0.054767 	4930 	0.054173
37.81 	0.054125 	4933 	0.053175
37.83 	0.045528 	4920 	0.045409
37.85 	0.050386 	4922 	0.049553
37.87 	0.054869 	4939 	0.054276
37.89 	0.047919 	4925 	0.047324
37.91 	0.054361 	4930 	0.053292
37.93 	0.055906 	4919 	0.055310
37.95 	0.057712 	4921 	0.056760
37.97 	0.048286 	4929 	0.047335
37.99 	0.050489 	4912 	0.050131
38.01 	0.051542 	4928 	0.051186
38.03 	0.042575 	4909 	0.041859
38.05 	0.047919 	4925 	0.047205
38.07 	0.049094 	4909 	0.048497
38.09 	0.048380 	4878 	0.047540
38.11 	0.054306 	4935 	0.053099
38.13 	0.053676 	4937 	0.053083
38.15 	0.054900 	4918 	0.054424
38.17 	0.051927 	4930 	0.051689
38.19 	0.053550 	4930 	0.052837
38.21 	0.057892 	4923 	0.056940
38.23 	0.056906 	4938 	0.055957
38.25 	0.052674 	4917 	0.052317
38.27 	0.054564 	4930 	0.053970
38.29 	0.053006 	4924 	0.052530
38.31 	0.057439 	4927 	0.056250
38.33 	0.056864 	4924 	0.055913
38.35 	0.059050 	4928 	0.057505
38.37 	0.055646 	4924 	0.054575
38.39 	0.053982 	4909 	0.053147
38.41 	0.056267 	4923 	0.055791
38.43 	0.058177 	4916 	0.056490
38.45 	0.060797 	4918 	0.059606
38.47 	0.058692 	4907 	0.058214
38.49 	0.065204 	4877 	0.064363
38.51 	0.063666 	4932 	0.062953
38.53 	0.063705 	4929 	0.062278
38.55 	0.059968 	4936 	0.058781
38.57 	0.057079 	4923 	0.056008
38.59 	0.066613 	4924 	0.065899
38.61 	0.062601 	4936 	0.061632
38.63 	0.062348 	4924 	0.061634
38.65 	0.072997 	4918 	0.071667
38.67 	0.062994 	4937 	0.062400
38.69 	0.062983 	4922 	0.062030
38.71 	0.060317 	4924 	0.058889
38.73 	0.066084 	4918 	0.065250
38.75 	0.062513 	4927 	0.061680
38.77 	0.063579 	4923 	0.062251
38.79 	0.062627 	4934 	0.060846
38.81 	0.055171 	4912 	0.053840
38.83 	0.060378 	4919 	0.059187
38.85 	0.056800 	4912 	0.055965
38.87 	0.056200 	4911 	0.055346
38.89 	0.050439 	4897 	0.049602
38.91 	0.055272 	4903 	0.054436
38.93 	0.052855 	4938 	0.051788
38.95 	0.051240 	4918 	0.050764
38.97 	0.050497 	4931 	0.049784
38.99 	0.048815 	4937 	0.048340
39.01 	0.048394 	4918 	0.047203
39.03 	0.053912 	4934 	0.053081
39.05 	0.053604 	4925 	0.052771
39.07 	0.050162 	4924 	0.049568
39.09 	0.056470 	4923 	0.055399
39.11 	0.053539 	4931 	0.052945
39.13 	0.045907 	4923 	0.045193
39.15 	0.047406 	4915 	0.046671
39.17 	0.050841 	4937 	0.050010
39.19 	0.045353 	4917 	0.044400
39.21 	0.049287 	4910 	0.048313
39.23 	0.039594 	4925 	0.039118
39.25 	0.049777 	4922 	0.048705
39.27 	0.042159 	4910 	0.041562
39.29 	0.048153 	4901 	0.048034
39.31 	0.047912 	4884 	0.047792
39.33 	0.045224 	4931 	0.044987
39.35 	0.046606 	4935 	0.045656
39.37 	0.041185 	4929 	0.040828
39.39 	0.047880 	4929 	0.047405
39.41 	0.045427 	4931 	0.044595
39.43 	0.047841 	4933 	0.046535
39.45 	0.041827 	4925 	0.041352
39.47 	0.046516 	4923 	0.046040
39.49 	0.046422 	4933 	0.045828
39.51 	0.048538 	4924 	0.047467
39.53 	0.041844 	4923 	0.041487
39.55 	0.042488 	4919 	0.042131
39.57 	0.040746 	4933 	0.040390
39.59 	0.041938 	4912 	0.041342
39.61 	0.043469 	4923 	0.042874
39.63 	0.047948 	4922 	0.047115
39.65 	0.045676 	4926 	0.045200
39.67 	0.046204 	4913 	0.046204
39.69 	0.044345 	4916 	0.043988
39.71 	0.043922 	4895 	0.043683
39.73 	0.046455 	4908 	0.045858
39.75 	0.043831 	4928 	0.042504
39.77 	0.050861 	4935 	0.049555
39.79 	0.046488 	4926 	0.045775
39.81 	0.047087 	4927 	0.046612
39.83 	0.043373 	4934 	0.042641
39.85 	0.047696 	4927 	0.047577
39.87 	0.048731 	4925 	0.048374
39.89 	0.047426 	4934 	0.047070
39.91 	0.041243 	4922 	0.040529
39.93 	0.048207 	4937 	0.047357
39.95 	0.044964 	4915 	0.044249
39.97 	0.049919 	4928 	0.049186
39.99 	0.044607 	4932 	0.044132
40.01 	0.046970 	4918 	0.045898
40.03 	0.040787 	4928 	0.040550
40.05 	0.040065 	4917 	0.039589
40.07 	0.040219 	4923 	0.039743
40.09 	0.045769 	4916 	0.045292
40.11 	0.042514 	4916 	0.041799
40.13 	0.042075 	4896 	0.041716
40.15 	0.041930 	4913 	0.041095
40.17 	0.043831 	4928 	0.042761
40.19 	0.040576 	4929 	0.040220
40.21 	0.053293 	4935 	0.052818
40.23 	0.049473 	4932 	0.048285
40.25 	0.042073 	4920 	0.041359
40.27 	0.043549 	4937 	0.042955
40.29 	0.047290 	4927 	0.046696
40.31 	0.041101 	4939 	0.040746
40.33 	0.040349 	4932 	0.040111
40.35 	0.043098 	4919 	0.042622
40.37 	0.041388 	4929 	0.040793
40.39 	0.041371 	4931 	0.040777
40.41 	0.050355 	4925 	0.049761
40.43 	0.041040 	4922 	0.040564
40.45 	0.044598 	4933 	0.043628
40.47 	0.038837 	4918 	0.038122
40.49 	0.045676 	4926 	0.044725
40.51 	0.045104 	4922 	0.044628
40.53 	0.042107 	4916 	0.041611
40.55 	0.040139 	4908 	0.039900
40.57 	0.044172 	4890 	0.043932
40.59 	0.042131 	4937 	0.041775
40.61 	0.042958 	4935 	0.042009
40.63 	0.044422 	4930 	0.043590
40.65 	0.044561 	4937 	0.043731
40.67 	0.040957 	4932 	0.040838
40.69 	0.043144 	4937 	0.042550
40.71 	0.043187 	4932 	0.042950
40.73 	0.041819 	4926 	0.041581
40.75 	0.040560 	4931 	0.040184
40.77 	0.043126 	4939 	0.042296
40.79 	0.042445 	4924 	0.042088
40.81 	0.039466 	4941 	0.039110
40.83 	0.041396 	4928 	0.040445
40.85 	0.044882 	4924 	0.044287
40.87 	0.040787 	4928 	0.040550
40.89 	0.045427 	4931 	0.044595
40.91 	0.044891 	4923 	0.043701
40.93 	0.042764 	4934 	0.042052
40.95 	0.037859 	4913 	0.037620
40.97 	0.046710 	4924 	0.046234
40.99 	0.047116 	4924 	0.046878
41.01 	0.044992 	4912 	0.044038
41.03 	0.042813 	4905 	0.041600
41.05 	0.041329 	4936 	0.040854
41.07 	0.040771 	4930 	0.040533
41.09 	0.041911 	4939 	0.041081
41.11 	0.041135 	4935 	0.040660
41.13 	0.042545 	4936 	0.042189
41.15 	0.044323 	4941 	0.043730
41.17 	0.043373 	4934 	0.042898
41.19 	0.039148 	4930 	0.038792
41.21 	0.039498 	4937 	0.038667
41.23 	0.041304 	4939 	0.040829
41.25 	0.040543 	4933 	0.040425
41.27 	0.045630 	4931 	0.044204
41.29 	0.042817 	4928 	0.041866
41.31 	0.043381 	4933 	0.043025
41.33 	0.041118 	4937 	0.039813
41.35 	0.044957 	4938 	0.044127
41.37 	0.045085 	4924 	0.044490
41.39 	0.047436 	4933 	0.046723
41.41 	0.045473 	4926 	0.045116
41.43 	0.044634 	4929 	0.043802
41.45 	0.042328 	4914 	0.041732
41.47 	0.050751 	4926 	0.050038
41.49 	0.041701 	4892 	0.041461
41.51 	0.041498 	4940 	0.041261
41.53 	0.041060 	4944 	0.041060
41.55 	0.043364 	4935 	0.043008
41.57 	0.042906 	4941 	0.042432
41.59 	0.040543 	4933 	0.040187
41.61 	0.037755 	4953 	0.037755
41.63 	0.045362 	4938 	0.044532
41.65 	0.045242 	4929 	0.045005
41.67 	0.044939 	4940 	0.043872
41.69 	0.038205 	4947 	0.037613
41.71 	0.044994 	4934 	0.044756
41.73 	0.038695 	4936 	0.038221
41.75 	0.037330 	4929 	0.036855
41.77 	0.044121 	4941 	0.043646
41.79 	0.039442 	4944 	0.038968
41.81 	0.036467 	4936 	0.035992
41.83 	0.040179 	4928 	0.039703
41.85 	0.037052 	4939 	0.036933
41.87 	0.039311 	4935 	0.038955
41.89 	0.043179 	4933 	0.042565
41.91 	0.041126 	4936 	0.040177
41.93 	0.044404 	4932 	0.043691
41.95 	0.040357 	4931 	0.040119
41.97 	0.040497 	4914 	0.039901
41.99 	0.045464 	4905 	0.044986
42.01 	0.042291 	4942 	0.042054
42.03 	0.038267 	4939 	0.037911
42.05 	0.043821 	4952 	0.043229
42.07 	0.037472 	4937 	0.037235
42.09 	0.040420 	4948 	0.039947
42.11 	0.045096 	4945 	0.044385
42.13 	0.037007 	4945 	0.036770
42.15 	0.038275 	4938 	0.038037
42.17 	0.041480 	4918 	0.040885
42.19 	0.037897 	4908 	0.037778
42.21 	0.042644 	4901 	0.042525
42.23 	0.034137 	4892 	0.034018
42.25 	0.042954 	4889 	0.042474
42.27 	0.039598 	4874 	0.039357
42.29 	0.039071 	4863 	0.038709
42.31 	0.039753 	4855 	0.039391
42.33 	0.040960 	4834 	0.040596
42.35 	0.038446 	4838 	0.038446
42.37 	0.039130 	4830 	0.038767
42.39 	0.047044 	4804 	0.045765
42.41 	0.041007 	4804 	0.040642
42.43 	0.040693 	4792 	0.040204
42.45 	0.037688 	4776 	0.037198
42.47 	0.039035 	4765 	0.038789
42.49 	0.040714 	4765 	0.040099
42.51 	0.041957 	4743 	0.041586
42.53 	0.042724 	4728 	0.041609
42.55 	0.042906 	4708 	0.042657
42.57 	0.036786 	4730 	0.036539
42.59 	0.036160 	4729 	0.036036
42.61 	0.038870 	4708 	0.038248
42.63 	0.042897 	4709 	0.042275
42.65 	0.042689 	4685 	0.041689
42.67 	0.041204 	4684 	0.040704
42.69 	0.040650 	4674 	0.039898
42.71 	0.036886 	4663 	0.036886
42.73 	0.038793 	4640 	0.038162
42.75 	0.038337 	4617 	0.037702
42.77 	0.035870 	4600 	0.035488
42.79 	0.039939 	4582 	0.039683
42.81 	0.040333 	4562 	0.039948
42.83 	0.037257 	4536 	0.036612
42.85 	0.046820 	4528 	0.046432
42.87 	0.046899 	4499 	0.046118
42.89 	0.039732 	4480 	0.039340
42.91 	0.039048 	4456 	0.038391
42.93 	0.036437 	4446 	0.036042
42.95 	0.042799 	4416 	0.042534
42.97 	0.039764 	4401 	0.039364
42.99 	0.034208 	4385 	0.033807
43.01 	0.036214 	4363 	0.035945
43.03 	0.038772 	4333 	0.038367
43.05 	0.043237 	4325 	0.042966
43.07 	0.038408 	4296 	0.037999
43.09 	0.043194 	4283 	0.042351
43.11 	0.036193 	4255 	0.035917
43.13 	0.037763 	4237 	0.037348
43.15 	0.040418 	4206 	0.040001
43.17 	0.034458 	4179 	0.034178
43.19 	0.039819 	4194 	0.039400
43.21 	0.045062 	4172 	0.044922
43.23 	0.038999 	4154 	0.038293
43.25 	0.035550 	4135 	0.035267
43.27 	0.039951 	4105 	0.038952
43.29 	0.041463 	4100 	0.040606
43.31 	0.042167 	4079 	0.041306
43.33 	0.034066 	4051 	0.033776
43.35 	0.033730 	4032 	0.033585
43.37 	0.038854 	4015 	0.038271
43.39 	0.035232 	4002 	0.034623
43.41 	0.037764 	3972 	0.037027
43.43 	0.040909 	3960 	0.040293
43.45 	0.033799 	3935 	0.033353
43.47 	0.035195 	3921 	0.034896
43.49 	0.034385 	3897 	0.033934
43.51 	0.035079 	3877 	0.034625
43.53 	0.039089 	3863 	0.038786
43.55 	0.032726 	2964 	0.032726
43.57 	0.036640 	2238 	0.035855
43.59 	0.038946 	1746 	0.038611
43.61 	0.040711 	1351 	0.040277
43.63 	0.035964 	1001 	0.035964
43.65 	0.053857 	687 	0.052152
43.67 	0.039841 	502 	0.039841
43.69 	0.046322 	367 	0.046322
43.71 	0.046025 	239 	0.043574
43.73 	0.025000 	120 	0.025000
43.75 	0.000000 	16 	0.000000