File: Example_Data/25SC_s1_0048.002.dat
#F C:\frames\spec\25SC_s1_0048.002
#C title =s:48 frm:2 25SC_s1
#C wavelength =0.15406

#S 1  fr_average C:\frames\spec\25SC_s1_0048.002 C:\win32app\speccom\mask.axs chi 0 180 0 360 0.02
#C 2 theta =0.000000 to 180 deg
#C   q   =0.000000 to 81.568 nm^-1
#C  chi  =0.000000 to 360 deg
#C collumns:
#C  1 position (2theta or chi in degrees)
#C  2 average intensity (sum of all counts in the region divided with number of pixels)
#C  3 Number of pixels in region)
#C  4 error (sum of sqrt(intensity) for all pixels divided by number)
#N 4
#L TTh  Int  N_pix  Err
32.99 	0.098361 	61 	0.098361
33.01 	0.071019 	873 	0.069006
33.03 	0.057513 	1391 	0.056670
33.05 	0.062607 	1757 	0.060606
33.07 	0.058049 	2050 	0.056906
33.09 	0.057094 	2347 	0.055846
33.11 	0.051570 	2579 	0.049753
33.13 	0.065521 	2793 	0.063843
33.15 	0.057019 	2999 	0.055847
33.17 	0.056545 	3201 	0.054898
33.19 	0.060144 	3342 	0.058216
33.21 	0.054715 	3436 	0.054544
33.23 	0.053931 	3523 	0.053266
33.25 	0.061739 	3612 	0.060603
33.27 	0.055923 	3630 	0.055277
33.29 	0.059211 	3648 	0.058247
33.31 	0.054098 	3660 	0.053298
33.33 	0.053717 	3686 	0.052922
33.35 	0.059556 	3694 	0.058446
33.37 	0.063813 	3714 	0.062866
33.39 	0.065969 	3729 	0.064530
33.41 	0.051337 	3740 	0.050397
33.43 	0.057166 	3761 	0.056075
33.45 	0.058574 	3773 	0.057177
33.47 	0.060821 	3798 	0.060205
33.49 	0.056183 	3809 	0.055106
33.51 	0.059240 	3815 	0.058319
33.53 	0.061182 	3841 	0.059657
33.55 	0.057247 	3843 	0.056002
33.57 	0.056745 	3877 	0.055385
33.59 	0.059794 	3880 	0.058737
33.61 	0.055513 	3909 	0.054614
33.63 	0.060730 	3919 	0.059982
33.65 	0.056474 	3931 	0.055258
33.67 	0.055893 	3954 	0.055276
33.69 	0.053377 	3953 	0.052636
33.71 	0.057358 	3975 	0.056622
33.73 	0.054446 	4004 	0.053568
33.75 	0.055514 	3999 	0.054635
33.77 	0.053665 	4025 	0.052500
33.79 	0.058649 	4041 	0.057634
33.81 	0.058940 	4038 	0.058360
33.83 	0.061975 	4050 	0.060818
33.85 	0.058307 	4099 	0.056878
33.87 	0.055704 	4111 	0.055419
33.89 	0.061393 	4121 	0.060682
33.91 	0.056399 	4149 	0.055693
33.93 	0.058058 	4151 	0.057353
33.95 	0.051901 	4181 	0.050641
33.97 	0.060621 	4190 	0.059921
33.99 	0.054286 	4200 	0.053309
34.01 	0.053881 	4213 	0.053047
34.03 	0.053723 	4244 	0.052895
34.05 	0.054092 	4252 	0.053105
34.07 	0.062090 	4268 	0.061266
34.09 	0.059963 	4286 	0.059143
34.11 	0.054393 	4302 	0.053032
34.13 	0.060817 	4308 	0.059865
34.15 	0.062341 	4331 	0.061530
34.17 	0.064368 	4350 	0.063425
34.19 	0.055708 	4362 	0.055171
34.21 	0.053763 	4371 	0.053093
34.23 	0.050307 	4393 	0.050041
34.25 	0.056540 	4404 	0.055741
34.27 	0.054953 	4422 	0.054025
34.29 	0.057046 	4435 	0.056254
34.31 	0.054957 	4458 	0.054432
34.33 	0.061507 	4471 	0.060590
34.35 	0.055085 	4484 	0.054170
34.37 	0.060120 	4491 	0.059338
34.39 	0.060862 	4502 	0.059300
34.41 	0.054353 	4526 	0.053188
34.43 	0.057281 	4539 	0.055991
34.45 	0.062624 	4535 	0.061440
34.47 	0.058145 	4592 	0.057103
34.49 	0.061344 	4597 	0.059943
34.51 	0.056014 	4606 	0.054615
34.53 	0.055783 	4643 	0.055278
34.55 	0.057506 	4643 	0.056749
34.57 	0.059871 	4660 	0.059368
34.59 	0.054973 	4675 	0.053720
34.61 	0.055780 	4697 	0.054907
34.63 	0.056900 	4710 	0.056527
34.65 	0.057615 	4721 	0.056995
34.67 	0.048935 	4741 	0.048564
34.69 	0.052377 	4754 	0.052007
34.71 	0.060008 	4766 	0.059271
34.73 	0.055985 	4787 	0.055231
34.75 	0.059692 	4808 	0.058230
34.77 	0.053964 	4818 	0.052870
34.79 	0.062189 	4824 	0.060469
34.81 	0.056966 	4845 	0.055636
34.83 	0.055944 	4862 	0.055101
34.85 	0.052988 	4869 	0.052387
34.87 	0.056286 	4868 	0.055203
34.89 	0.060631 	4882 	0.059791
34.91 	0.055920 	4882 	0.054840
34.93 	0.056950 	4899 	0.056353
34.95 	0.050102 	4890 	0.049743
34.97 	0.055284 	4902 	0.054188
34.99 	0.058812 	4897 	0.057615
35.01 	0.058298 	4923 	0.057346
35.03 	0.054420 	4943 	0.053946
35.05 	0.054376 	4947 	0.053784
35.07 	0.055061 	4940 	0.054705
35.09 	0.057541 	4953 	0.056831
35.11 	0.055589 	4947 	0.054642
35.13 	0.057079 	4958 	0.055307
35.15 	0.060158 	4937 	0.059683
35.17 	0.063081 	4946 	0.062134
35.19 	0.057871 	4942 	0.057160
35.21 	0.053387 	4945 	0.052676
35.23 	0.059656 	4945 	0.058827
35.25 	0.053004 	4943 	0.051701
35.27 	0.061439 	4948 	0.060137
35.29 	0.060465 	4945 	0.059991
35.31 	0.050476 	4933 	0.049388
35.33 	0.054623 	4943 	0.052964
35.35 	0.057467 	4942 	0.057348
35.37 	0.057502 	4939 	0.056790
35.39 	0.054196 	4945 	0.052874
35.41 	0.056841 	4926 	0.055890
35.43 	0.062437 	4933 	0.061605
35.45 	0.057525 	4937 	0.056220
35.47 	0.055364 	4931 	0.054532
35.49 	0.061914 	4910 	0.060225
35.51 	0.058871 	4926 	0.058396
35.53 	0.053546 	4949 	0.053073
35.55 	0.052376 	4945 	0.051428
35.57 	0.060207 	4933 	0.059138
35.59 	0.049545 	4945 	0.048815
35.61 	0.056253 	4942 	0.055660
35.63 	0.057860 	4943 	0.056556
35.65 	0.060667 	4945 	0.060075
35.67 	0.059288 	4942 	0.058102
35.69 	0.053376 	4946 	0.052666
35.71 	0.056715 	4937 	0.055291
35.73 	0.055105 	4936 	0.054512
35.75 	0.055770 	4931 	0.055176
35.77 	0.056150 	4951 	0.055322
35.79 	0.052717 	4932 	0.052123
35.81 	0.056152 	4933 	0.055559
35.83 	0.057825 	4946 	0.057588
35.85 	0.058156 	4935 	0.057306
35.87 	0.052407 	4923 	0.051555
35.89 	0.055533 	4934 	0.054583
35.91 	0.061295 	4927 	0.060582
35.93 	0.058047 	4927 	0.056977
35.95 	0.055318 	4917 	0.054484
35.97 	0.057003 	4912 	0.056168
35.99 	0.058311 	4939 	0.057125
36.01 	0.056187 	4930 	0.055949
36.03 	0.052195 	4943 	0.051247
36.05 	0.055005 	4945 	0.054413
36.07 	0.053047 	4939 	0.052336
36.09 	0.054049 	4940 	0.052981
36.11 	0.055792 	4929 	0.055079
36.13 	0.055038 	4942 	0.054209
36.15 	0.055679 	4939 	0.054612
36.17 	0.059695 	4925 	0.058149
36.19 	0.057692 	4940 	0.056744
36.21 	0.054575 	4929 	0.053505
36.23 	0.060790 	4935 	0.059959
36.25 	0.055657 	4941 	0.055064
36.27 	0.053401 	4925 	0.052331
36.29 	0.055364 	4931 	0.054414
36.31 	0.055398 	4928 	0.054328
36.33 	0.061423 	4933 	0.060473
36.35 	0.055589 	4929 	0.054876
36.37 	0.054235 	4923 	0.053283
36.39 	0.058118 	4921 	0.057404
36.41 	0.054330 	4896 	0.053612
36.43 	0.059659 	4928 	0.058332
36.45 	0.059838 	4930 	0.058531
36.47 	0.060373 	4936 	0.059423
36.49 	0.054836 	4942 	0.053769
36.51 	0.058382 	4933 	0.057789
36.53 	0.062917 	4943 	0.061357
36.55 	0.055409 	4927 	0.054815
36.57 	0.055736 	4934 	0.054430
36.59 	0.064588 	4939 	0.063501
36.61 	0.053539 	4931 	0.052945
36.63 	0.060231 	4931 	0.059043
36.65 	0.056164 	4932 	0.055808
36.67 	0.049899 	4930 	0.049542
36.69 	0.047880 	4929 	0.047266
36.71 	0.060150 	4921 	0.059079
36.73 	0.061726 	4925 	0.060774
36.75 	0.049757 	4944 	0.048928
36.77 	0.050213 	4919 	0.049499
36.79 	0.059744 	4921 	0.058911
36.81 	0.058177 	4916 	0.056867
36.83 	0.062869 	4915 	0.061319
36.85 	0.051450 	4898 	0.050473
36.87 	0.060073 	4944 	0.058888
36.89 	0.051058 	4916 	0.049966
36.91 	0.055657 	4941 	0.054353
36.93 	0.055984 	4930 	0.054895
36.95 	0.059599 	4933 	0.058411
36.97 	0.047831 	4934 	0.047119
36.99 	0.060385 	4935 	0.059317
37.01 	0.052301 	4933 	0.051945
37.03 	0.057271 	4924 	0.056438
37.05 	0.056018 	4927 	0.055067
37.07 	0.053698 	4935 	0.053105
37.09 	0.053774 	4928 	0.053061
37.11 	0.052888 	4935 	0.051325
37.13 	0.054224 	4924 	0.053629
37.15 	0.060705 	4909 	0.059273
37.17 	0.053912 	4934 	0.053437
37.19 	0.051574 	4925 	0.051098
37.21 	0.057352 	4917 	0.056260
37.23 	0.054494 	4918 	0.053541
37.25 	0.052331 	4911 	0.051735
37.27 	0.047814 	4894 	0.046856
37.29 	0.058621 	4930 	0.057294
37.31 	0.058359 	4935 	0.057528
37.33 	0.052162 	4927 	0.051924
37.35 	0.048805 	4938 	0.047975
37.37 	0.045261 	4927 	0.045023
37.39 	0.050294 	4931 	0.049581
37.41 	0.050294 	4931 	0.049443
37.43 	0.053325 	4932 	0.052494
37.45 	0.054021 	4924 	0.052931
37.47 	0.049097 	4929 	0.048859
37.49 	0.054235 	4923 	0.053640
37.51 	0.052706 	4933 	0.051519
37.53 	0.049807 	4919 	0.048716
37.55 	0.052738 	4930 	0.051907
37.57 	0.049949 	4925 	0.049216
37.59 	0.052289 	4915 	0.051455
37.61 	0.049370 	4922 	0.048775
37.63 	0.051027 	4919 	0.050431
37.65 	0.057340 	4918 	0.056626
37.67 	0.054445 	4904 	0.053351
37.69 	0.054920 	4898 	0.053844
37.71 	0.062690 	4929 	0.060769
37.73 	0.055792 	4929 	0.055198
37.75 	0.048178 	4940 	0.047585
37.77 	0.049187 	4920 	0.048592
37.79 	0.053753 	4930 	0.052446
37.81 	0.056355 	4933 	0.054317
37.83 	0.050813 	4920 	0.049603
37.85 	0.054653 	4922 	0.053700
37.87 	0.046366 	4939 	0.045654
37.89 	0.049340 	4925 	0.048488
37.91 	0.056592 	4930 	0.055642
37.93 	0.055296 	4919 	0.053748
37.95 	0.048567 	4921 	0.048210
37.97 	0.050923 	4929 	0.050091
37.99 	0.053542 	4912 	0.052827
38.01 	0.049513 	4928 	0.048780
38.03 	0.060297 	4909 	0.059343
38.05 	0.049543 	4925 	0.048711
38.07 	0.055408 	4909 	0.054334
38.09 	0.054736 	4878 	0.054375
38.11 	0.054103 	4935 	0.053372
38.13 	0.054284 	4937 	0.053572
38.15 	0.053274 	4918 	0.052539
38.17 	0.052941 	4930 	0.052585
38.19 	0.056592 	4930 	0.055761
38.21 	0.052001 	4923 	0.050930
38.23 	0.060753 	4938 	0.059448
38.25 	0.055725 	4917 	0.054633
38.27 	0.058215 	4930 	0.056789
38.29 	0.061332 	4924 	0.060856
38.31 	0.052973 	4927 	0.052022
38.33 	0.058489 	4924 	0.056705
38.35 	0.059862 	4928 	0.058317
38.37 	0.060520 	4924 	0.060044
38.39 	0.055205 	4909 	0.054489
38.41 	0.063782 	4923 	0.062454
38.43 	0.067738 	4916 	0.066308
38.45 	0.064864 	4918 	0.063911
38.47 	0.066436 	4907 	0.064625
38.49 	0.069715 	4877 	0.068374
38.51 	0.070154 	4932 	0.068591
38.53 	0.060459 	4929 	0.059745
38.55 	0.064019 	4936 	0.062714
38.57 	0.069673 	4923 	0.067512
38.59 	0.062551 	4924 	0.061837
38.61 	0.061994 	4936 	0.060569
38.63 	0.064582 	4924 	0.063610
38.65 	0.061000 	4918 	0.059452
38.67 	0.052664 	4937 	0.052070
38.69 	0.057700 	4922 	0.057343
38.71 	0.059504 	4924 	0.058791
38.73 	0.053680 	4918 	0.052946
38.75 	0.053379 	4927 	0.052309
38.77 	0.054438 	4923 	0.053843
38.79 	0.054722 	4934 	0.053654
38.81 	0.053746 	4912 	0.052911
38.83 	0.042895 	4919 	0.042061
38.85 	0.048249 	4912 	0.047295
38.87 	0.046019 	4911 	0.044946
38.89 	0.052277 	4897 	0.052277
38.91 	0.044667 	4903 	0.044428
38.93 	0.046375 	4938 	0.045545
38.95 	0.049817 	4918 	0.049460
38.97 	0.047252 	4931 	0.046639
38.99 	0.045372 	4937 	0.045134
39.01 	0.049004 	4918 	0.048170
39.03 	0.047629 	4934 	0.046798
39.05 	0.042437 	4925 	0.041723
39.07 	0.046710 	4924 	0.045401
39.09 	0.047329 	4923 	0.047091
39.11 	0.048063 	4931 	0.047469
39.13 	0.047735 	4923 	0.046902
39.15 	0.045778 	4915 	0.045301
39.17 	0.045574 	4937 	0.045100
39.19 	0.048810 	4917 	0.047976
39.21 	0.045214 	4910 	0.044737
39.23 	0.043046 	4925 	0.042332
39.25 	0.041853 	4922 	0.041258
39.27 	0.041955 	4910 	0.041239
39.29 	0.046521 	4901 	0.046282
39.31 	0.036650 	4884 	0.036171
39.33 	0.046644 	4931 	0.045931
39.35 	0.048024 	4935 	0.046956
39.37 	0.039562 	4929 	0.038968
39.39 	0.044634 	4929 	0.043802
39.41 	0.047252 	4931 	0.046539
39.43 	0.039530 	4933 	0.038936
39.45 	0.049137 	4925 	0.048423
39.47 	0.047126 	4923 	0.046531
39.49 	0.043381 	4933 	0.043263
39.51 	0.045695 	4924 	0.045100
39.53 	0.050173 	4923 	0.050173
39.55 	0.043708 	4919 	0.043113
39.57 	0.047841 	4933 	0.047228
39.59 	0.047028 	4912 	0.046551
39.61 	0.048954 	4923 	0.047883
39.63 	0.047135 	4922 	0.046183
39.65 	0.046285 	4926 	0.045809
39.67 	0.046204 	4913 	0.045608
39.69 	0.044345 	4916 	0.043511
39.71 	0.042084 	4895 	0.041485
39.73 	0.046862 	4908 	0.045788
39.75 	0.044237 	4928 	0.043762
39.77 	0.044985 	4935 	0.044747
39.79 	0.047097 	4926 	0.046502
39.81 	0.045667 	4927 	0.045310
39.83 	0.040332 	4934 	0.039739
39.85 	0.045464 	4927 	0.044988
39.87 	0.046497 	4925 	0.046022
39.89 	0.041548 	4934 	0.041192
39.91 	0.044494 	4922 	0.044018
39.93 	0.042131 	4937 	0.041894
39.95 	0.049644 	4915 	0.049148
39.97 	0.050933 	4928 	0.050101
39.99 	0.043998 	4932 	0.043048
40.01 	0.046360 	4918 	0.045765
40.03 	0.038555 	4928 	0.038436
40.05 	0.050641 	4917 	0.050283
40.07 	0.044079 	4923 	0.043246
40.09 	0.041904 	4916 	0.041070
40.11 	0.042514 	4916 	0.041541
40.13 	0.042484 	4896 	0.042125
40.15 	0.040098 	4913 	0.039859
40.17 	0.044237 	4928 	0.043643
40.19 	0.046257 	4929 	0.045306
40.21 	0.037487 	4935 	0.037369
40.23 	0.046026 	4932 	0.045670
40.25 	0.042073 	4920 	0.041478
40.27 	0.043549 	4937 	0.043193
40.29 	0.039578 	4927 	0.039221
40.31 	0.039279 	4939 	0.039042
40.33 	0.039538 	4932 	0.039063
40.35 	0.041472 	4919 	0.040876
40.37 	0.047068 	4929 	0.046712
40.39 	0.041777 	4931 	0.041064
40.41 	0.044264 	4925 	0.043769
40.43 	0.042259 	4922 	0.042021
40.45 	0.041151 	4933 	0.040795
40.47 	0.041480 	4918 	0.040508
40.49 	0.044458 	4926 	0.044101
40.51 	0.044088 	4922 	0.043493
40.53 	0.040073 	4916 	0.039597
40.55 	0.040954 	4908 	0.040476
40.57 	0.047648 	4890 	0.046810
40.59 	0.043549 	4937 	0.042718
40.61 	0.039919 	4935 	0.039563
40.63 	0.041785 	4930 	0.041072
40.65 	0.043954 	4937 	0.043361
40.67 	0.038929 	4932 	0.038692
40.69 	0.046587 	4937 	0.045756
40.71 	0.043998 	4932 	0.043286
40.73 	0.040804 	4926 	0.040209
40.75 	0.044818 	4931 	0.044086
40.77 	0.043734 	4939 	0.043141
40.79 	0.045898 	4924 	0.045065
40.81 	0.044121 	4941 	0.043884
40.83 	0.044440 	4928 	0.043846
40.85 	0.048538 	4924 	0.047824
40.87 	0.043019 	4928 	0.042425
40.89 	0.046846 	4931 	0.046253
40.91 	0.040016 	4923 	0.039183
40.93 	0.043981 	4934 	0.043387
40.95 	0.043151 	4913 	0.042555
40.97 	0.042851 	4924 	0.042494
40.99 	0.042648 	4924 	0.041934
41.01 	0.046824 	4912 	0.046109
41.03 	0.044037 	4905 	0.043440
41.05 	0.040519 	4936 	0.040163
41.07 	0.045233 	4930 	0.044402
41.09 	0.040899 	4939 	0.040306
41.11 	0.041135 	4935 	0.040541
41.13 	0.040721 	4936 	0.040365
41.15 	0.043918 	4941 	0.043444
41.17 	0.041346 	4934 	0.041108
41.19 	0.039757 	4930 	0.039162
41.21 	0.041321 	4937 	0.040708
41.23 	0.039482 	4939 	0.039363
41.25 	0.041354 	4933 	0.040879
41.27 	0.041168 	4931 	0.040693
41.29 	0.041802 	4928 	0.041089
41.31 	0.051287 	4933 	0.049862
41.33 	0.038890 	4937 	0.038653
41.35 	0.039692 	4938 	0.039574
41.37 	0.042851 	4924 	0.042494
41.39 	0.043989 	4933 	0.043396
41.41 	0.038977 	4926 	0.038739
41.43 	0.042605 	4929 	0.042248
41.45 	0.038462 	4914 	0.038462
41.47 	0.043646 	4926 	0.042814
41.49 	0.044358 	4892 	0.043879
41.51 	0.040081 	4940 	0.039844
41.53 	0.044094 	4944 	0.043501
41.55 	0.044174 	4935 	0.043818
41.57 	0.044121 	4941 	0.043291
41.59 	0.041760 	4933 	0.041403
41.61 	0.039168 	4953 	0.038813
41.63 	0.042730 	4938 	0.041899
41.65 	0.040779 	4929 	0.040185
41.67 	0.035020 	4940 	0.034665
41.69 	0.045280 	4947 	0.044925
41.71 	0.040738 	4934 	0.040243
41.73 	0.039708 	4936 	0.039234
41.75 	0.040779 	4929 	0.040304
41.77 	0.045740 	4941 	0.045266
41.79 	0.040251 	4944 	0.039777
41.81 	0.043152 	4936 	0.042559
41.83 	0.041802 	4928 	0.041326
41.85 	0.034622 	4939 	0.034385
41.87 	0.039919 	4935 	0.039800
41.89 	0.035678 	4933 	0.035322
41.91 	0.038898 	4936 	0.038067
41.93 	0.040754 	4932 	0.040517
41.95 	0.041168 	4931 	0.040931
41.97 	0.041921 	4914 	0.041444
41.99 	0.035270 	4905 	0.034912
42.01 	0.042291 	4942 	0.041816
42.03 	0.039887 	4939 	0.039056
42.05 	0.037561 	4952 	0.037087
42.07 	0.038485 	4937 	0.037773
42.09 	0.041431 	4948 	0.040957
42.11 	0.038018 	4945 	0.037781
42.13 	0.033771 	4945 	0.033535
42.15 	0.036452 	4938 	0.036215
42.17 	0.039040 	4918 	0.038683
42.19 	0.038305 	4908 	0.037947
42.21 	0.043052 	4901 	0.042574
42.23 	0.035773 	4892 	0.035533
42.25 	0.042135 	4889 	0.041656
42.27 	0.040419 	4874 	0.040178
42.29 	0.039893 	4863 	0.039532
42.31 	0.041401 	4855 	0.041159
42.33 	0.034754 	4834 	0.034390
42.35 	0.039893 	4838 	0.039529
42.37 	0.039959 	4830 	0.039332
42.39 	0.038093 	4804 	0.037727
42.41 	0.043297 	4804 	0.042688
42.43 	0.034224 	4792 	0.034101
42.45 	0.040201 	4776 	0.039956
42.47 	0.038825 	4765 	0.038210
42.49 	0.034627 	4765 	0.033890
42.51 	0.036686 	4743 	0.036439
42.53 	0.039763 	4728 	0.039020
42.55 	0.039295 	4708 	0.038548
42.57 	0.043340 	4730 	0.042597
42.59 	0.038063 	4729 	0.037815
42.61 	0.043755 	4708 	0.043258
42.63 	0.037163 	4709 	0.036541
42.65 	0.035646 	4685 	0.035021
42.67 	0.037148 	4684 	0.036647
42.69 	0.035944 	4674 	0.035568
42.71 	0.035170 	4663 	0.034794
42.73 	0.039655 	4640 	0.039655
42.75 	0.041369 	4617 	0.041115
42.77 	0.036522 	4600 	0.036140
42.79 	0.041467 	4582 	0.041467
42.81 	0.043402 	4562 	0.043145
42.83 	0.040344 	4536 	0.039698
42.85 	0.037544 	4528 	0.037156
42.87 	0.035563 	4499 	0.035303
42.89 	0.036830 	4480 	0.036046
42.91 	0.039722 	4456 	0.038933
42.93 	0.038911 	4446 	0.038648
42.95 	0.038043 	4416 	0.038043
42.97 	0.039991 	4401 	0.039592
42.99 	0.039225 	4385 	0.038824
43.01 	0.036672 	4363 	0.036135
43.03 	0.036695 	4333 	0.036425
43.05 	0.037225 	4325 	0.037090
43.07 	0.038408 	4296 	0.037999
43.09 	0.042260 	4283 	0.041987
43.11 	0.041833 	4255 	0.041558
43.13 	0.036110 	4237 	0.035281
43.15 	0.033524 	4206 	0.032966
43.17 	0.041637 	4179 	0.041356
43.19 	0.038865 	4194 	0.038446
43.21 	0.037152 	4172 	0.037152
43.23 	0.035628 	4154 	0.035346
43.25 	0.037969 	4135 	0.037544
43.27 	0.042387 	4105 	0.041959
43.29 	0.030732 	4100 	0.030446
43.31 	0.037754 	4079 	0.037754
43.33 	0.033819 	4051 	0.033240
43.35 	0.035218 	4032 	0.034637
43.37 	0.040847 	4015 	0.039656
43.39 	0.038231 	4002 	0.037645
43.41 	0.042548 	3972 	0.041515
43.43 	0.042677 	3960 	0.041937
43.45 	0.035832 	3935 	0.035535
43.47 	0.038001 	3921 	0.037552
43.49 	0.040287 	3897 	0.040137
43.51 	0.039464 	3877 	0.038859
43.53 	0.032617 	3863 	0.032617
43.55 	0.035762 	2964 	0.035367
43.57 	0.041555 	2238 	0.041293
43.59 	0.043528 	1746 	0.042522
43.61 	0.041451 	1351 	0.041017
43.63 	0.037962 	1001 	0.037962
43.65 	0.037846 	687 	0.036993
43.67 	0.041833 	502 	0.041833
43.69 	0.029973 	367 	0.029973
43.71 	0.050209 	239 	0.050209
43.73 	0.025000 	120 	0.025000
43.75 	0.125000 	16 	0.125000