File: Example_Data/25SC_s1_0028.004.dat
#F C:\frames\spec\25SC_s1_0028.004
#C title =s:28 frm:4 25SC_s1
#C wavelength =0.15406

#S 1  fr_average C:\frames\spec\25SC_s1_0028.004 C:\win32app\speccom\mask.axs chi 0 180 0 360 0.02
#C 2 theta =0.000000 to 180 deg
#C   q   =0.000000 to 81.568 nm^-1
#C  chi  =0.000000 to 360 deg
#C collumns:
#C  1 position (2theta or chi in degrees)
#C  2 average intensity (sum of all counts in the region divided with number of pixels)
#C  3 Number of pixels in region)
#C  4 error (sum of sqrt(intensity) for all pixels divided by number)
#N 4
#L TTh  Int  N_pix  Err
32.99 	0.098361 	61 	0.098361
33.01 	0.052692 	873 	0.052021
33.03 	0.046010 	1391 	0.044747
33.05 	0.043256 	1757 	0.042922
33.07 	0.060976 	2050 	0.060404
33.09 	0.058798 	2347 	0.057800
33.11 	0.060101 	2579 	0.059192
33.13 	0.064089 	2793 	0.063040
33.15 	0.066022 	2999 	0.064850
33.17 	0.058419 	3201 	0.058236
33.19 	0.061041 	3342 	0.060340
33.21 	0.058498 	3436 	0.057305
33.23 	0.057905 	3523 	0.056908
33.25 	0.059801 	3612 	0.058152
33.27 	0.059504 	3630 	0.059020
33.29 	0.057292 	3648 	0.056649
33.31 	0.052186 	3660 	0.051225
33.33 	0.059414 	3686 	0.058778
33.35 	0.061992 	3694 	0.060565
33.37 	0.061389 	3714 	0.060128
33.39 	0.057120 	3729 	0.056649
33.41 	0.054813 	3740 	0.054030
33.43 	0.059825 	3761 	0.058423
33.45 	0.052213 	3773 	0.051437
33.47 	0.056609 	3798 	0.056609
33.49 	0.057758 	3809 	0.056835
33.51 	0.056356 	3815 	0.055589
33.53 	0.059099 	3841 	0.057549
33.55 	0.058548 	3843 	0.058243
33.57 	0.055455 	3877 	0.054398
33.59 	0.054639 	3880 	0.053733
33.61 	0.058839 	3909 	0.057939
33.63 	0.058433 	3919 	0.057237
33.65 	0.059018 	3931 	0.058273
33.67 	0.060951 	3954 	0.059618
33.69 	0.057425 	3953 	0.056536
33.71 	0.058113 	3975 	0.057376
33.73 	0.067433 	4004 	0.066555
33.75 	0.065266 	3999 	0.063948
33.77 	0.061615 	4025 	0.060596
33.79 	0.059639 	4041 	0.058479
33.81 	0.056711 	4038 	0.055841
33.83 	0.059012 	4050 	0.057711
33.85 	0.055135 	4099 	0.054421
33.87 	0.055947 	4111 	0.054808
33.89 	0.057025 	4121 	0.056172
33.91 	0.057363 	4149 	0.056516
33.93 	0.055890 	4151 	0.054879
33.95 	0.062186 	4181 	0.060342
33.97 	0.060143 	4190 	0.058885
33.99 	0.059762 	4200 	0.059343
34.01 	0.060052 	4213 	0.058083
34.03 	0.057257 	4244 	0.056429
34.05 	0.063500 	4252 	0.062099
34.07 	0.056701 	4268 	0.055329
34.09 	0.060896 	4286 	0.059666
34.11 	0.060205 	4302 	0.059115
34.13 	0.056639 	4308 	0.054713
34.15 	0.056338 	4331 	0.055527
34.17 	0.067586 	4350 	0.066509
34.19 	0.056625 	4362 	0.055260
34.21 	0.063830 	4371 	0.063294
34.23 	0.063510 	4393 	0.062688
34.25 	0.060627 	4404 	0.059408
34.27 	0.058571 	4422 	0.057776
34.29 	0.053664 	4435 	0.052607
34.31 	0.059892 	4458 	0.059104
34.33 	0.052114 	4471 	0.051328
34.35 	0.061329 	4484 	0.060153
34.37 	0.056780 	4491 	0.055976
34.39 	0.056419 	4502 	0.055509
34.41 	0.054353 	4526 	0.053447
34.43 	0.059705 	4539 	0.058414
34.45 	0.051599 	4535 	0.050953
34.47 	0.059016 	4592 	0.057868
34.49 	0.053513 	4597 	0.052749
34.51 	0.059271 	4606 	0.058126
34.53 	0.059875 	4643 	0.058361
34.55 	0.057721 	4643 	0.056964
34.57 	0.058798 	4660 	0.057416
34.59 	0.059893 	4675 	0.059016
34.61 	0.067064 	4697 	0.066066
34.63 	0.057325 	4710 	0.055957
34.65 	0.055285 	4721 	0.054416
34.67 	0.054841 	4741 	0.053852
34.69 	0.063105 	4754 	0.062365
34.71 	0.062526 	4766 	0.060805
34.73 	0.063714 	4787 	0.061614
34.75 	0.057404 	4808 	0.056917
34.77 	0.059361 	4818 	0.058145
34.79 	0.055348 	4824 	0.054377
34.81 	0.055315 	4845 	0.054690
34.83 	0.052653 	4862 	0.051930
34.85 	0.058944 	4869 	0.058082
34.87 	0.056286 	4868 	0.055203
34.89 	0.056944 	4882 	0.055504
34.91 	0.056739 	4882 	0.055659
34.93 	0.053276 	4899 	0.052320
34.95 	0.061350 	4890 	0.060631
34.97 	0.055080 	4902 	0.053646
34.99 	0.059016 	4897 	0.058159
35.01 	0.059313 	4923 	0.058243
35.03 	0.061906 	4943 	0.060247
35.05 	0.056196 	4947 	0.055485
35.07 	0.048988 	4940 	0.048514
35.09 	0.058752 	4953 	0.057806
35.11 	0.062058 	4947 	0.061111
35.13 	0.064340 	4958 	0.063002
35.15 	0.061576 	4937 	0.060983
35.17 	0.058835 	4946 	0.057395
35.19 	0.059490 	4942 	0.058423
35.21 	0.054803 	4945 	0.053618
35.23 	0.060870 	4945 	0.060040
35.25 	0.055230 	4943 	0.054756
35.27 	0.060428 	4948 	0.059363
35.29 	0.054601 	4945 	0.054127
35.31 	0.060612 	4933 	0.059543
35.33 	0.059478 	4943 	0.058293
35.35 	0.050384 	4942 	0.049436
35.37 	0.055477 	4939 	0.054409
35.39 	0.059252 	4945 	0.057949
35.41 	0.060089 	4926 	0.058881
35.43 	0.058180 	4933 	0.057467
35.45 	0.056917 	4937 	0.056087
35.47 	0.058000 	4931 	0.056912
35.49 	0.058248 	4910 	0.056936
35.51 	0.061916 	4926 	0.061322
35.53 	0.054354 	4949 	0.053526
35.55 	0.059656 	4945 	0.058353
35.57 	0.055139 	4933 	0.054189
35.59 	0.053994 	4945 	0.053264
35.61 	0.059085 	4942 	0.058137
35.63 	0.062917 	4943 	0.061377
35.65 	0.057027 	4945 	0.055843
35.67 	0.058074 	4942 	0.057007
35.69 	0.059038 	4946 	0.058090
35.71 	0.053676 	4937 	0.052964
35.73 	0.055308 	4936 	0.053765
35.75 	0.056581 	4931 	0.055630
35.77 	0.057766 	4951 	0.057293
35.79 	0.062652 	4932 	0.061583
35.81 	0.057571 	4933 	0.056978
35.83 	0.053781 	4946 	0.052715
35.85 	0.053901 	4935 	0.052714
35.87 	0.060329 	4923 	0.059258
35.89 	0.054114 	4934 	0.053758
35.91 	0.055815 	4927 	0.055102
35.93 	0.050944 	4927 	0.050112
35.95 	0.049217 	4917 	0.048740
35.97 	0.063314 	4912 	0.061387
35.99 	0.065195 	4939 	0.064247
36.01 	0.058824 	4930 	0.057398
36.03 	0.060085 	4943 	0.058900
36.05 	0.059858 	4945 	0.058911
36.07 	0.057502 	4939 	0.056197
36.09 	0.053846 	4940 	0.053016
36.11 	0.050720 	4929 	0.050007
36.13 	0.057871 	4942 	0.057042
36.15 	0.055274 	4939 	0.053851
36.17 	0.064569 	4925 	0.063379
36.19 	0.052024 	4940 	0.051431
36.21 	0.053358 	4929 	0.052882
36.23 	0.059980 	4935 	0.058773
36.25 	0.057681 	4941 	0.057088
36.27 	0.060711 	4925 	0.059759
36.29 	0.057392 	4931 	0.055848
36.31 	0.065950 	4928 	0.064761
36.33 	0.056761 	4933 	0.056167
36.35 	0.055995 	4929 	0.055163
36.37 	0.059313 	4923 	0.058362
36.39 	0.060760 	4921 	0.059312
36.41 	0.054126 	4896 	0.053767
36.43 	0.057630 	4928 	0.056441
36.45 	0.062677 	4930 	0.061370
36.47 	0.049433 	4936 	0.048839
36.49 	0.052610 	4942 	0.051662
36.51 	0.057166 	4933 	0.056454
36.53 	0.060085 	4943 	0.058781
36.55 	0.052567 	4927 	0.051616
36.57 	0.058370 	4934 	0.057421
36.59 	0.059931 	4939 	0.059457
36.61 	0.056581 	4931 	0.055630
36.63 	0.050700 	4931 	0.049630
36.65 	0.055556 	4932 	0.054605
36.67 	0.052738 	4930 	0.052144
36.69 	0.059444 	4929 	0.058137
36.71 	0.059134 	4921 	0.058301
36.73 	0.057462 	4925 	0.056273
36.75 	0.059061 	4944 	0.057739
36.77 	0.061598 	4919 	0.060526
36.79 	0.051616 	4921 	0.050782
36.81 	0.058381 	4916 	0.057428
36.83 	0.052696 	4915 	0.051742
36.85 	0.056350 	4898 	0.055253
36.87 	0.058859 	4944 	0.057793
36.89 	0.056143 	4916 	0.055309
36.91 	0.058288 	4941 	0.056747
36.93 	0.052941 	4930 	0.052228
36.95 	0.052301 	4933 	0.051470
36.97 	0.052088 	4934 	0.051613
36.99 	0.050456 	4935 	0.049744
37.01 	0.058180 	4933 	0.057111
37.03 	0.057271 	4924 	0.056081
37.05 	0.060483 	4927 	0.060007
37.07 	0.056535 	4935 	0.055348
37.09 	0.061080 	4928 	0.059534
37.11 	0.057751 	4935 	0.056920
37.13 	0.055240 	4924 	0.054050
37.15 	0.054390 	4909 	0.053197
37.17 	0.051682 	4934 	0.050732
37.19 	0.054213 	4925 	0.053500
37.21 	0.054098 	4917 	0.052530
37.23 	0.051240 	4918 	0.050645
37.25 	0.057218 	4911 	0.056503
37.27 	0.052309 	4894 	0.051212
37.29 	0.059838 	4930 	0.059125
37.31 	0.056535 	4935 	0.055585
37.33 	0.056221 	4927 	0.054913
37.35 	0.054070 	4938 	0.053596
37.37 	0.049320 	4927 	0.048726
37.39 	0.055364 	4931 	0.054532
37.41 	0.054147 	4931 	0.052603
37.43 	0.052311 	4932 	0.051124
37.45 	0.053412 	4924 	0.052460
37.47 	0.051532 	4929 	0.050819
37.49 	0.056470 	4923 	0.055518
37.51 	0.056558 	4933 	0.055489
37.53 	0.057735 	4919 	0.056783
37.55 	0.056592 	4930 	0.055523
37.57 	0.050964 	4925 	0.050013
37.59 	0.060224 	4915 	0.059390
37.61 	0.056075 	4922 	0.055242
37.63 	0.051840 	4919 	0.051125
37.65 	0.052257 	4918 	0.051542
37.67 	0.056281 	4904 	0.055803
37.69 	0.057983 	4898 	0.057504
37.71 	0.052343 	4929 	0.051749
37.73 	0.046460 	4929 	0.045747
37.75 	0.054251 	4940 	0.053658
37.77 	0.055894 	4920 	0.055180
37.79 	0.060041 	4930 	0.059070
37.81 	0.054733 	4933 	0.053883
37.83 	0.055285 	4920 	0.054670
37.85 	0.057294 	4922 	0.056223
37.87 	0.053857 	4939 	0.053383
37.89 	0.056041 	4925 	0.054851
37.91 	0.054970 	4930 	0.054257
37.93 	0.054076 	4919 	0.053600
37.95 	0.055477 	4921 	0.054881
37.97 	0.052343 	4929 	0.051254
37.99 	0.059243 	4912 	0.058289
38.01 	0.059253 	4928 	0.058421
38.03 	0.052760 	4909 	0.052283
38.05 	0.056041 	4925 	0.055565
38.07 	0.058668 	4909 	0.057693
38.09 	0.057401 	4878 	0.055839
38.11 	0.056332 	4935 	0.055739
38.13 	0.058132 	4937 	0.056827
38.15 	0.059374 	4918 	0.058659
38.17 	0.061460 	4930 	0.060609
38.19 	0.057404 	4930 	0.056928
38.21 	0.059313 	4923 	0.058718
38.23 	0.060753 	4938 	0.059686
38.25 	0.060809 	4917 	0.059499
38.27 	0.059432 	4930 	0.058481
38.29 	0.058083 	4924 	0.057012
38.31 	0.065557 	4927 	0.064111
38.33 	0.060317 	4924 	0.059227
38.35 	0.065747 	4928 	0.064677
38.37 	0.063160 	4924 	0.060880
38.39 	0.066001 	4909 	0.064927
38.41 	0.064392 	4923 	0.063202
38.43 	0.060822 	4916 	0.060107
38.45 	0.064660 	4918 	0.063331
38.47 	0.056042 	4907 	0.055445
38.49 	0.064794 	4877 	0.063593
38.51 	0.067315 	4932 	0.066247
38.53 	0.062284 	4929 	0.061690
38.55 	0.061386 	4936 	0.060555
38.57 	0.063579 	4923 	0.062251
38.59 	0.061942 	4924 	0.061466
38.61 	0.061588 	4936 	0.060995
38.63 	0.060926 	4924 	0.059855
38.65 	0.058967 	4918 	0.057756
38.67 	0.061171 	4937 	0.059984
38.69 	0.059935 	4922 	0.058507
38.71 	0.058489 	4924 	0.057537
38.73 	0.055104 	4918 	0.054389
38.75 	0.054597 	4927 	0.054003
38.77 	0.058298 	4923 	0.057703
38.79 	0.060195 	4934 	0.059720
38.81 	0.055782 	4912 	0.054589
38.83 	0.057939 	4919 	0.057105
38.85 	0.056393 	4912 	0.055438
38.87 	0.051517 	4911 	0.050801
38.89 	0.055136 	4897 	0.054418
38.91 	0.051397 	4903 	0.050680
38.93 	0.052248 	4938 	0.051062
38.95 	0.049410 	4918 	0.048577
38.97 	0.053133 	4931 	0.052420
38.99 	0.057120 	4937 	0.055914
39.01 	0.050834 	4918 	0.050476
39.03 	0.052290 	4934 	0.051222
39.05 	0.055838 	4925 	0.055362
39.07 	0.054427 	4924 	0.053238
39.09 	0.052610 	4923 	0.051282
39.11 	0.051105 	4931 	0.050392
39.13 	0.054032 	4923 	0.052723
39.15 	0.048830 	4915 	0.048353
39.17 	0.055297 	4937 	0.054110
39.19 	0.054098 	4917 	0.053383
39.21 	0.054582 	4910 	0.054105
39.23 	0.052995 	4925 	0.051924
39.25 	0.052824 	4922 	0.051753
39.27 	0.048065 	4910 	0.047111
39.29 	0.054683 	4901 	0.054085
39.31 	0.054873 	4884 	0.054153
39.33 	0.052525 	4931 	0.052168
39.35 	0.052482 	4935 	0.052007
39.37 	0.049097 	4929 	0.048503
39.39 	0.054778 	4929 	0.053708
39.41 	0.052525 	4931 	0.052050
39.43 	0.053112 	4933 	0.051805
39.45 	0.047107 	4925 	0.046512
39.47 	0.056267 	4923 	0.055434
39.49 	0.053112 	4933 	0.052280
39.51 	0.056052 	4924 	0.055338
39.53 	0.050579 	4923 	0.049984
39.55 	0.051840 	4919 	0.051483
39.57 	0.055544 	4933 	0.055069
39.59 	0.052524 	4912 	0.051451
39.61 	0.053423 	4923 	0.052471
39.63 	0.060951 	4922 	0.060594
39.65 	0.055014 	4926 	0.054043
39.67 	0.047222 	4913 	0.046864
39.69 	0.055736 	4916 	0.055141
39.71 	0.053524 	4895 	0.052567
39.73 	0.051141 	4908 	0.050544
39.75 	0.050933 	4928 	0.050220
39.77 	0.058561 	4935 	0.057849
39.79 	0.054608 	4926 	0.053895
39.81 	0.056627 	4927 	0.056151
39.83 	0.056749 	4934 	0.056037
39.85 	0.057236 	4927 	0.056047
39.87 	0.059086 	4925 	0.058254
39.89 	0.055330 	4934 	0.054499
39.91 	0.054449 	4922 	0.053378
39.93 	0.056512 	4937 	0.055563
39.95 	0.056358 	4915 	0.055524
39.97 	0.059050 	4928 	0.057981
39.99 	0.053933 	4932 	0.052983
40.01 	0.054900 	4918 	0.053947
40.03 	0.054586 	4928 	0.053754
40.05 	0.047590 	4917 	0.046518
40.07 	0.051798 	4923 	0.050489
40.09 	0.052278 	4916 	0.051682
40.11 	0.053092 	4916 	0.052496
40.13 	0.056373 	4896 	0.054937
40.15 	0.055567 	4913 	0.054494
40.17 	0.060065 	4928 	0.059233
40.19 	0.049503 	4929 	0.049028
40.21 	0.048227 	4935 	0.048108
40.23 	0.052920 	4932 	0.052445
40.25 	0.050407 	4920 	0.049454
40.27 	0.048815 	4937 	0.047629
40.29 	0.050335 	4927 	0.049364
40.31 	0.055882 	4939 	0.054577
40.33 	0.049878 	4932 	0.049047
40.35 	0.051840 	4919 	0.051363
40.37 	0.055184 	4929 	0.054094
40.39 	0.047860 	4931 	0.047148
40.41 	0.056853 	4925 	0.055901
40.43 	0.050792 	4922 	0.049840
40.45 	0.048247 	4933 	0.046940
40.47 	0.050224 	4918 	0.049747
40.49 	0.051969 	4926 	0.050760
40.51 	0.054653 	4922 	0.053819
40.53 	0.048820 	4916 	0.047986
40.55 	0.048085 	4908 	0.047369
40.57 	0.047444 	4890 	0.046725
40.59 	0.053676 	4937 	0.053202
40.61 	0.047822 	4935 	0.047228
40.63 	0.047870 	4930 	0.047038
40.65 	0.049018 	4937 	0.048306
40.67 	0.050892 	4932 	0.050298
40.69 	0.050841 	4937 	0.050010
40.71 	0.052109 	4932 	0.051396
40.73 	0.048924 	4926 	0.048211
40.75 	0.049888 	4931 	0.049057
40.77 	0.044746 	4939 	0.044153
40.79 	0.050569 	4924 	0.049855
40.81 	0.047359 	4941 	0.047003
40.83 	0.051745 	4928 	0.051151
40.85 	0.047929 	4924 	0.047453
40.87 	0.051948 	4928 	0.051591
40.89 	0.046238 	4931 	0.045644
40.91 	0.052001 	4923 	0.051525
40.93 	0.048845 	4934 	0.047776
40.95 	0.052921 	4913 	0.052067
40.97 	0.053818 	4924 	0.053223
40.99 	0.048538 	4924 	0.047705
41.01 	0.053746 	4912 	0.052911
41.03 	0.048930 	4905 	0.047596
41.05 	0.047204 	4936 	0.046373
41.07 	0.053144 	4930 	0.050966
41.09 	0.048188 	4939 	0.046864
41.11 	0.054103 	4935 	0.053134
41.13 	0.044368 	4936 	0.044249
41.15 	0.053026 	4941 	0.052077
41.17 	0.052290 	4934 	0.051459
41.19 	0.054158 	4930 	0.052732
41.21 	0.044156 	4937 	0.043089
41.23 	0.049605 	4939 	0.049012
41.25 	0.049666 	4933 	0.049072
41.27 	0.052930 	4931 	0.052218
41.29 	0.050122 	4928 	0.049646
41.31 	0.046422 	4933 	0.045947
41.33 	0.052258 	4937 	0.051290
41.35 	0.045565 	4938 	0.045565
41.37 	0.047522 	4924 	0.046928
41.39 	0.048247 	4933 	0.047653
41.41 	0.046285 	4926 	0.045690
41.43 	0.044228 	4929 	0.043158
41.45 	0.050265 	4914 	0.049430
41.47 	0.047300 	4926 	0.046686
41.49 	0.048446 	4892 	0.047967
41.51 	0.051417 	4940 	0.050587
41.53 	0.046926 	4944 	0.046570
41.55 	0.047011 	4935 	0.046418
41.57 	0.045335 	4941 	0.045098
41.59 	0.050476 	4933 	0.049507
41.61 	0.044014 	4953 	0.043659
41.63 	0.047590 	4938 	0.046878
41.65 	0.043822 	4929 	0.043585
41.67 	0.047368 	4940 	0.046064
41.69 	0.050334 	4947 	0.049386
41.71 	0.051885 	4934 	0.050935
41.73 	0.042950 	4936 	0.042712
41.75 	0.048489 	4929 	0.048013
41.77 	0.047156 	4941 	0.046564
41.79 	0.050162 	4944 	0.049332
41.81 	0.045583 	4936 	0.045346
41.83 	0.045252 	4928 	0.044657
41.85 	0.048593 	4939 	0.048118
41.87 	0.047822 	4935 	0.047109
41.89 	0.045814 	4933 	0.045101
41.91 	0.044368 	4936 	0.043419
41.93 	0.044404 	4932 	0.044285
41.95 	0.050294 	4931 	0.049819
41.97 	0.050468 	4914 	0.049514
41.99 	0.043833 	4905 	0.043475
42.01 	0.046540 	4942 	0.046540
42.03 	0.046973 	4939 	0.046143
42.05 	0.051292 	4952 	0.050583
42.07 	0.039903 	4937 	0.039665
42.09 	0.048707 	4948 	0.048233
42.11 	0.048938 	4945 	0.047991
42.13 	0.050152 	4945 	0.050033
42.15 	0.052450 	4938 	0.051956
42.17 	0.046970 	4918 	0.046256
42.19 	0.049511 	4908 	0.048676
42.21 	0.042236 	4901 	0.041997
42.23 	0.044767 	4892 	0.044527
42.25 	0.044385 	4889 	0.043427
42.27 	0.048831 	4874 	0.047388
42.29 	0.047913 	4863 	0.047190
42.31 	0.048816 	4855 	0.047951
42.33 	0.045718 	4834 	0.044870
42.35 	0.044853 	4838 	0.043885
42.37 	0.049896 	4830 	0.048664
42.39 	0.045795 	4804 	0.044942
42.41 	0.043297 	4804 	0.042566
42.43 	0.044658 	4792 	0.044413
42.45 	0.047948 	4776 	0.047457
42.47 	0.050157 	4765 	0.049174
42.49 	0.049318 	4765 	0.048457
42.51 	0.049968 	4743 	0.049227
42.53 	0.048858 	4728 	0.048486
42.55 	0.041844 	4708 	0.040973
42.57 	0.050317 	4730 	0.049326
42.59 	0.042715 	4729 	0.042344
42.61 	0.042056 	4708 	0.041434
42.63 	0.044808 	4709 	0.044061
42.65 	0.045678 	4685 	0.044657
42.67 	0.046541 	4684 	0.046291
42.69 	0.048780 	4674 	0.048279
42.71 	0.045035 	4663 	0.044282
42.73 	0.044397 	4640 	0.043892
42.75 	0.039636 	4617 	0.039509
42.77 	0.044783 	4600 	0.044273
42.79 	0.045395 	4582 	0.044628
42.81 	0.045156 	4562 	0.044514
42.83 	0.043871 	4536 	0.042838
42.85 	0.044611 	4528 	0.043706
42.87 	0.047566 	4499 	0.046915
42.89 	0.045759 	4480 	0.045236
42.91 	0.049372 	4456 	0.048693
42.93 	0.045659 	4446 	0.045132
42.95 	0.043931 	4416 	0.043268
42.97 	0.042490 	4401 	0.041958
42.99 	0.050855 	4385 	0.050187
43.01 	0.040798 	4363 	0.040261
43.03 	0.048004 	4333 	0.046765
43.05 	0.047399 	4325 	0.046993
43.07 	0.042598 	4296 	0.042052
43.09 	0.041560 	4283 	0.041013
43.11 	0.045358 	4255 	0.044808
43.13 	0.046495 	4237 	0.045527
43.15 	0.048027 	4206 	0.047191
43.17 	0.050251 	4179 	0.049831
43.19 	0.042680 	4194 	0.041819
43.21 	0.047220 	4172 	0.045956
43.23 	0.042610 	4154 	0.042186
43.25 	0.046675 	4135 	0.046250
43.27 	0.040682 	4105 	0.040397
43.29 	0.050732 	4100 	0.049874
43.31 	0.046335 	4079 	0.045760
43.33 	0.046902 	4051 	0.046324
43.35 	0.045387 	4032 	0.044782
43.37 	0.045828 	4015 	0.044953
43.39 	0.046977 	4002 	0.046391
43.41 	0.042800 	3972 	0.042505
43.43 	0.043939 	3960 	0.043496
43.45 	0.038374 	3935 	0.037778
43.47 	0.044887 	3921 	0.044438
43.49 	0.048755 	3897 	0.048154
43.51 	0.042301 	3877 	0.041545
43.53 	0.048408 	3863 	0.047953
43.55 	0.046559 	2964 	0.045768
43.57 	0.051385 	2238 	0.050338
43.59 	0.044674 	1746 	0.043667
43.61 	0.054034 	1351 	0.052300
43.63 	0.053946 	1001 	0.053361
43.65 	0.040757 	687 	0.039904
43.67 	0.049801 	502 	0.049801
43.69 	0.016349 	367 	0.016349
43.71 	0.037657 	239 	0.037657
43.73 	0.008333 	120 	0.008333
43.75 	0.125000 	16 	0.125000