File: Example_Data/25SC_s1_0002.004.dat
#F C:\frames\spec\25SC_s1_0002.004
#C title =s:2 frm:4 25SC_s1
#C wavelength =0.15406

#S 1  fr_average C:\frames\spec\25SC_s1_0002.004 C:\win32app\speccom\mask.axs chi 0 180 0 360 0.02
#C 2 theta =0.000000 to 180 deg
#C   q   =0.000000 to 81.568 nm^-1
#C  chi  =0.000000 to 360 deg
#C collumns:
#C  1 position (2theta or chi in degrees)
#C  2 average intensity (sum of all counts in the region divided with number of pixels)
#C  3 Number of pixels in region)
#C  4 error (sum of sqrt(intensity) for all pixels divided by number)
#N 4
#L TTh  Int  N_pix  Err
32.99 	0.098361 	61 	0.098361
33.01 	0.080183 	873 	0.078170
33.03 	0.080518 	1391 	0.079254
33.05 	0.064883 	1757 	0.061828
33.07 	0.077073 	2050 	0.074501
33.09 	0.072433 	2347 	0.070645
33.11 	0.068631 	2579 	0.067950
33.13 	0.061583 	2793 	0.061373
33.15 	0.079693 	2999 	0.078521
33.17 	0.074664 	3201 	0.073017
33.19 	0.065829 	3342 	0.064952
33.21 	0.061700 	3436 	0.060506
33.23 	0.069827 	3523 	0.068330
33.25 	0.074474 	3612 	0.073014
33.27 	0.064738 	3630 	0.062963
33.29 	0.072094 	3648 	0.070489
33.31 	0.071311 	3660 	0.069711
33.33 	0.072436 	3686 	0.070847
33.35 	0.074986 	3694 	0.073401
33.37 	0.074313 	3714 	0.072736
33.39 	0.070260 	3729 	0.069003
33.41 	0.074599 	3740 	0.072719
33.43 	0.070726 	3761 	0.069947
33.45 	0.072886 	3773 	0.071178
33.47 	0.072143 	3798 	0.069675
33.49 	0.069047 	3809 	0.067509
33.51 	0.074181 	3815 	0.072159
33.53 	0.071336 	3841 	0.069353
33.55 	0.068696 	3843 	0.066867
33.57 	0.078153 	3877 	0.076038
33.59 	0.070619 	3880 	0.069713
33.61 	0.075723 	3909 	0.074524
33.63 	0.072212 	3919 	0.071166
33.65 	0.070211 	3931 	0.068870
33.67 	0.074608 	3954 	0.073571
33.69 	0.072097 	3953 	0.070591
33.71 	0.071950 	3975 	0.070894
33.73 	0.076923 	4004 	0.075606
33.75 	0.067267 	3999 	0.065948
33.77 	0.070807 	4025 	0.069207
33.79 	0.066815 	4041 	0.065052
33.81 	0.069837 	4038 	0.068096
33.83 	0.071358 	4050 	0.070490
33.85 	0.065626 	4099 	0.064625
33.87 	0.070299 	4111 	0.068993
33.89 	0.072070 	4121 	0.070648
33.91 	0.074717 	4149 	0.073164
33.93 	0.063840 	4151 	0.062123
33.95 	0.067448 	4181 	0.066047
33.97 	0.068974 	4190 	0.067436
33.99 	0.066667 	4200 	0.065690
34.01 	0.075006 	4213 	0.073337
34.03 	0.060556 	4244 	0.059153
34.05 	0.075494 	4252 	0.074116
34.07 	0.068650 	4268 	0.067278
34.09 	0.073962 	4286 	0.072026
34.11 	0.079265 	4302 	0.078040
34.13 	0.063835 	4308 	0.062339
34.15 	0.069268 	4331 	0.067217
34.17 	0.074023 	4350 	0.072407
34.19 	0.062586 	4362 	0.061512
34.21 	0.064516 	4371 	0.063846
34.23 	0.070112 	4393 	0.068223
34.25 	0.075386 	4404 	0.074189
34.27 	0.068973 	4422 	0.067649
34.29 	0.070124 	4435 	0.068671
34.31 	0.074921 	4458 	0.073060
34.33 	0.074704 	4471 	0.073787
34.35 	0.075825 	4484 	0.074105
34.37 	0.069250 	4491 	0.067554
34.39 	0.070857 	4502 	0.069036
34.41 	0.069598 	4526 	0.068045
34.43 	0.067195 	4539 	0.066163
34.45 	0.065050 	4535 	0.063629
34.47 	0.071646 	4592 	0.069988
34.49 	0.065695 	4597 	0.064421
34.51 	0.065784 	4606 	0.063876
34.53 	0.062890 	4643 	0.061503
34.55 	0.075598 	4643 	0.072907
34.57 	0.065021 	4660 	0.063764
34.59 	0.069733 	4675 	0.068104
34.61 	0.066638 	4697 	0.065516
34.63 	0.062420 	4710 	0.060037
34.65 	0.066723 	4721 	0.065855
34.67 	0.064121 	4741 	0.063113
34.69 	0.069205 	4754 	0.068096
34.71 	0.070709 	4766 	0.069357
34.73 	0.069355 	4787 	0.068498
34.75 	0.067180 	4808 	0.066205
34.77 	0.069738 	4818 	0.068401
34.79 	0.065713 	4824 	0.064256
34.81 	0.075129 	4845 	0.074041
34.83 	0.058618 	4862 	0.057172
34.85 	0.064079 	4869 	0.063237
34.87 	0.070255 	4868 	0.068811
34.89 	0.064932 	4882 	0.064092
34.91 	0.070053 	4882 	0.068853
34.93 	0.071443 	4899 	0.070128
34.95 	0.078732 	4890 	0.076935
34.97 	0.069767 	4902 	0.068453
34.99 	0.069226 	4897 	0.068149
35.01 	0.065001 	4923 	0.064049
35.03 	0.066356 	4943 	0.065053
35.05 	0.069133 	4947 	0.068659
35.07 	0.072672 	4940 	0.071585
35.09 	0.071270 	4953 	0.069851
35.11 	0.074186 	4947 	0.072292
35.13 	0.076644 	4958 	0.074124
35.15 	0.071501 	4937 	0.070077
35.17 	0.063688 	4946 	0.062385
35.19 	0.077499 	4942 	0.075365
35.21 	0.066532 	4945 	0.065347
35.23 	0.072801 	4945 	0.071261
35.25 	0.075663 	4943 	0.074122
35.27 	0.067300 	4948 	0.066116
35.29 	0.075834 	4945 	0.074393
35.31 	0.067910 	4933 	0.066723
35.33 	0.069593 	4943 	0.067934
35.35 	0.070417 	4942 	0.069232
35.37 	0.072687 	4939 	0.071382
35.39 	0.067543 	4945 	0.066477
35.41 	0.071458 	4926 	0.070149
35.43 	0.072572 	4933 	0.071365
35.45 	0.075552 	4937 	0.073535
35.47 	0.068343 	4931 	0.067749
35.49 	0.070265 	4910 	0.068833
35.51 	0.066788 	4926 	0.065837
35.53 	0.066074 	4949 	0.064890
35.55 	0.067341 	4945 	0.066393
35.57 	0.068924 	4933 	0.067024
35.59 	0.067947 	4945 	0.066269
35.61 	0.074666 	4942 	0.072770
35.63 	0.072426 	4943 	0.070530
35.65 	0.069970 	4945 	0.068074
35.67 	0.066370 	4942 	0.065422
35.69 	0.066923 	4946 	0.065620
35.71 	0.068260 	4937 	0.066461
35.73 	0.067261 	4936 	0.065699
35.75 	0.074630 	4931 	0.073561
35.77 	0.069077 	4951 	0.067894
35.79 	0.068127 	4932 	0.067414
35.81 	0.070545 	4933 	0.069002
35.83 	0.068945 	4946 	0.067523
35.85 	0.067072 	4935 	0.065766
35.87 	0.067439 	4923 	0.065654
35.89 	0.068910 	4934 	0.067366
35.91 	0.066775 	4927 	0.065229
35.93 	0.066775 	4927 	0.065943
35.95 	0.068538 	4917 	0.066751
35.97 	0.070033 	4912 	0.068721
35.99 	0.069447 	4939 	0.068024
36.01 	0.067140 	4930 	0.065695
36.03 	0.065750 	4943 	0.063853
36.05 	0.072801 	4945 	0.071853
36.07 	0.065398 	4939 	0.063737
36.09 	0.073279 	4940 	0.071975
36.11 	0.071414 	4929 	0.069988
36.13 	0.069203 	4942 	0.067405
36.15 	0.069852 	4939 	0.068548
36.17 	0.073096 	4925 	0.071431
36.19 	0.064777 	4940 	0.063453
36.21 	0.062893 	4929 	0.061229
36.23 	0.068896 	4935 	0.067570
36.25 	0.077110 	4941 	0.074976
36.27 	0.072081 	4925 	0.070991
36.29 	0.073413 	4931 	0.071275
36.31 	0.073255 	4928 	0.071947
36.33 	0.068924 	4933 	0.067855
36.35 	0.074052 	4929 	0.072130
36.37 	0.070892 	4923 	0.069226
36.39 	0.066043 	4921 	0.065329
36.41 	0.074346 	4896 	0.072791
36.43 	0.075690 	4928 	0.074006
36.45 	0.072008 	4930 	0.069988
36.47 	0.073136 	4936 	0.071949
36.49 	0.066572 	4942 	0.064557
36.51 	0.063045 	4933 	0.061976
36.53 	0.067368 	4943 	0.066420
36.55 	0.075299 	4927 	0.074110
36.57 	0.075395 	4934 	0.073614
36.59 	0.073092 	4939 	0.071906
36.61 	0.067735 	4931 	0.066666
36.63 	0.068546 	4931 	0.066645
36.65 	0.075831 	4932 	0.074268
36.67 	0.070994 	4930 	0.069687
36.69 	0.068777 	4929 	0.067469
36.71 	0.063605 	4921 	0.062891
36.73 	0.068629 	4925 	0.067559
36.75 	0.070388 	4944 	0.068967
36.77 	0.065867 	4919 	0.064438
36.79 	0.072546 	4921 	0.071356
36.81 	0.063873 	4916 	0.062920
36.83 	0.073042 	4915 	0.071592
36.85 	0.068804 	4898 	0.067488
36.87 	0.064118 	4944 	0.062459
36.89 	0.070789 	4916 	0.069359
36.91 	0.066383 	4941 	0.065198
36.93 	0.066329 	4930 	0.065734
36.95 	0.071559 	4933 	0.070253
36.97 	0.075193 	4934 	0.072937
36.99 	0.062209 	4935 	0.060666
37.01 	0.070545 	4933 	0.068883
37.03 	0.069253 	4924 	0.067944
37.05 	0.074893 	4927 	0.072278
37.07 	0.068288 	4935 	0.067200
37.09 	0.061080 	4928 	0.060366
37.11 	0.064235 	4935 	0.062554
37.13 	0.070268 	4924 	0.068959
37.15 	0.073131 	4909 	0.071918
37.17 	0.059992 	4934 	0.058567
37.19 	0.065381 	4925 	0.064191
37.21 	0.070978 	4917 	0.069787
37.23 	0.074624 	4918 	0.072123
37.25 	0.072694 	4911 	0.071143
37.27 	0.068043 	4894 	0.066586
37.29 	0.059635 	4930 	0.058922
37.31 	0.063019 	4935 	0.062426
37.33 	0.068196 	4927 	0.067463
37.35 	0.069461 	4938 	0.067919
37.37 	0.067790 	4927 	0.065887
37.39 	0.069763 	4931 	0.068912
37.41 	0.068546 	4931 	0.067457
37.43 	0.065085 	4932 	0.063897
37.45 	0.062551 	4924 	0.061599
37.47 	0.070805 	4929 	0.069023
37.49 	0.070282 	4923 	0.068735
37.51 	0.065275 	4933 	0.063593
37.53 	0.065867 	4919 	0.064438
37.55 	0.063083 	4930 	0.061895
37.57 	0.068832 	4925 	0.067524
37.59 	0.059003 	4915 	0.058169
37.61 	0.063389 	4922 	0.062437
37.63 	0.062411 	4919 	0.061458
37.65 	0.071370 	4918 	0.069584
37.67 	0.060155 	4904 	0.059080
37.69 	0.062474 	4898 	0.061637
37.71 	0.067762 	4929 	0.066574
37.73 	0.062284 	4929 	0.061096
37.75 	0.064980 	4940 	0.063794
37.77 	0.065854 	4920 	0.064306
37.79 	0.067343 	4930 	0.065442
37.81 	0.064869 	4933 	0.063425
37.83 	0.058740 	4920 	0.057649
37.85 	0.071109 	4922 	0.069919
37.87 	0.068637 	4939 	0.067451
37.89 	0.061523 	4925 	0.060809
37.91 	0.064706 	4930 	0.062805
37.93 	0.056516 	4919 	0.055087
37.95 	0.061979 	4921 	0.061384
37.97 	0.067356 	4929 	0.066762
37.99 	0.066572 	4912 	0.065618
38.01 	0.064732 	4928 	0.063543
38.03 	0.066001 	4909 	0.064430
38.05 	0.065178 	4925 	0.064107
38.07 	0.061112 	4909 	0.059800
38.09 	0.066421 	4878 	0.065580
38.11 	0.065451 	4935 	0.064007
38.13 	0.057322 	4937 	0.056492
38.15 	0.069134 	4918 	0.067923
38.17 	0.062880 	4930 	0.061811
38.19 	0.065517 	4930 	0.064567
38.21 	0.072923 	4923 	0.071376
38.23 	0.069461 	4938 	0.067900
38.25 	0.065284 	4917 	0.064192
38.27 	0.074645 	4930 	0.072982
38.29 	0.067425 	4924 	0.065997
38.31 	0.070834 	4927 	0.069645
38.33 	0.074533 	4924 	0.072848
38.35 	0.076096 	4928 	0.074669
38.37 	0.072299 	4924 	0.071090
38.39 	0.074761 	4909 	0.073090
38.41 	0.080845 	4923 	0.078227
38.43 	0.076688 	4916 	0.075309
38.45 	0.086011 	4918 	0.084085
38.47 	0.069696 	4907 	0.067886
38.49 	0.072996 	4877 	0.071294
38.51 	0.079481 	4932 	0.077561
38.53 	0.081558 	4929 	0.079894
38.55 	0.083266 	4936 	0.081011
38.57 	0.073126 	4923 	0.071222
38.59 	0.080626 	4924 	0.079317
38.61 	0.075567 	4936 	0.074143
38.63 	0.075955 	4924 	0.074150
38.65 	0.075030 	4918 	0.073363
38.67 	0.078590 	4937 	0.076929
38.69 	0.074970 	4922 	0.073184
38.71 	0.073721 	4924 	0.072531
38.73 	0.067304 	4918 	0.065994
38.75 	0.068399 	4927 	0.066615
38.77 	0.065610 	4923 	0.064539
38.79 	0.063235 	4934 	0.062047
38.81 	0.070033 	4912 	0.068602
38.83 	0.061598 	4919 	0.060407
38.85 	0.060871 	4912 	0.060394
38.87 	0.063124 	4911 	0.062766
38.89 	0.057790 	4897 	0.056575
38.91 	0.054252 	4903 	0.053536
38.93 	0.053260 	4938 	0.052786
38.95 	0.058560 	4918 	0.057727
38.97 	0.052322 	4931 	0.051728
38.99 	0.054689 	4937 	0.053859
39.01 	0.055917 	4918 	0.055083
39.03 	0.053101 	4934 	0.052507
39.05 	0.057056 	4925 	0.055629
39.07 	0.053006 	4924 	0.052173
39.09 	0.056267 	4923 	0.055791
39.11 	0.059826 	4931 	0.058756
39.13 	0.062157 	4923 	0.060491
39.15 	0.053510 	4915 	0.052755
39.17 	0.052258 	4937 	0.051902
39.19 	0.050641 	4917 	0.050283
39.21 	0.050916 	4910 	0.050320
39.23 	0.055228 	4925 	0.054277
39.25 	0.054653 	4922 	0.053462
39.27 	0.052546 	4910 	0.051830
39.29 	0.053867 	4901 	0.052910
39.31 	0.054464 	4884 	0.053744
39.33 	0.055364 	4931 	0.054414
39.35 	0.049443 	4935 	0.049087
39.37 	0.054575 	4929 	0.053743
39.39 	0.051532 	4929 	0.051056
39.41 	0.054350 	4931 	0.053756
39.43 	0.052301 	4933 	0.051351
39.45 	0.051168 	4925 	0.050573
39.47 	0.053626 	4923 	0.052317
39.49 	0.054733 	4933 	0.053902
39.51 	0.054021 	4924 	0.053426
39.53 	0.057079 	4923 	0.056603
39.55 	0.060581 	4919 	0.059510
39.57 	0.047233 	4933 	0.046639
39.59 	0.054560 	4912 	0.054202
39.61 	0.056267 	4923 	0.055434
39.63 	0.053434 	4922 	0.052958
39.65 	0.058059 	4926 	0.056613
39.67 	0.052107 	4913 	0.051014
39.69 	0.057364 	4916 	0.056410
39.71 	0.053933 	4895 	0.052357
39.73 	0.056031 	4908 	0.055415
39.75 	0.053977 	4928 	0.052907
39.77 	0.060182 	4935 	0.059589
39.79 	0.051157 	4926 	0.050444
39.81 	0.049320 	4927 	0.048726
39.83 	0.053912 	4934 	0.052131
39.85 	0.053988 	4927 	0.052780
39.87 	0.053604 	4925 	0.052534
39.89 	0.055533 	4934 	0.054583
39.91 	0.051605 	4922 	0.051129
39.93 	0.056917 	4937 	0.055237
39.95 	0.054323 	4915 	0.053370
39.97 	0.053166 	4928 	0.052452
39.99 	0.050689 	4932 	0.050096
40.01 	0.053680 	4918 	0.052727
40.03 	0.058036 	4928 	0.057204
40.05 	0.056945 	4917 	0.055615
40.07 	0.051595 	4923 	0.051119
40.09 	0.053906 	4916 	0.053072
40.11 	0.052075 	4916 	0.051002
40.13 	0.055760 	4896 	0.054663
40.15 	0.056992 	4913 	0.056257
40.17 	0.050731 	4928 	0.050017
40.19 	0.054981 	4929 	0.053911
40.21 	0.053901 	4935 	0.053426
40.23 	0.050892 	4932 	0.050061
40.25 	0.050000 	4920 	0.048928
40.27 	0.056715 	4937 	0.055884
40.29 	0.049726 	4927 	0.049488
40.31 	0.050618 	4939 	0.049313
40.33 	0.054136 	4932 	0.053305
40.35 	0.052450 	4919 	0.051239
40.37 	0.060256 	4929 	0.059780
40.39 	0.050091 	4931 	0.049378
40.41 	0.053198 	4925 	0.052127
40.43 	0.051605 	4922 	0.051129
40.45 	0.045814 	4933 	0.044745
40.47 	0.051240 	4918 	0.050387
40.49 	0.048112 	4926 	0.047161
40.51 	0.048354 	4922 	0.047521
40.53 	0.046786 	4916 	0.046071
40.55 	0.053178 	4908 	0.052582
40.57 	0.048262 	4890 	0.047303
40.59 	0.050233 	4937 	0.049284
40.61 	0.048430 	4935 	0.047480
40.63 	0.048682 	4930 	0.047969
40.65 	0.054689 	4937 	0.053859
40.67 	0.047242 	4932 	0.046411
40.69 	0.057930 	4937 	0.056743
40.71 	0.061030 	4932 	0.059842
40.73 	0.055623 	4926 	0.054672
40.75 	0.055972 	4931 	0.055141
40.77 	0.051427 	4939 	0.050834
40.79 	0.048944 	4924 	0.048349
40.81 	0.048776 	4941 	0.047827
40.83 	0.053977 	4928 	0.053383
40.85 	0.048944 	4924 	0.047586
40.87 	0.047890 	4928 	0.047533
40.89 	0.054147 	4931 	0.053316
40.91 	0.053220 	4923 	0.052625
40.93 	0.049047 	4934 	0.048810
40.95 	0.050478 	4913 	0.049763
40.97 	0.049756 	4924 	0.049043
40.99 	0.052600 	4924 	0.052243
41.01 	0.050489 	4912 	0.049654
41.03 	0.050357 	4905 	0.049282
41.05 	0.051053 	4936 	0.050104
41.07 	0.050507 	4930 	0.049537
41.09 	0.047783 	4939 	0.047289
41.11 	0.049037 	4935 	0.048187
41.13 	0.052269 	4936 	0.051676
41.15 	0.051811 	4941 	0.051574
41.17 	0.050872 	4934 	0.050634
41.19 	0.052130 	4930 	0.051536
41.21 	0.050233 	4937 	0.049165
41.23 	0.056894 	4939 	0.056182
41.25 	0.050274 	4933 	0.049799
41.27 	0.054756 	4931 	0.053924
41.29 	0.047687 	4928 	0.047330
41.31 	0.056152 	4933 	0.055084
41.33 	0.057120 	4937 	0.055815
41.35 	0.048805 	4938 	0.048093
41.37 	0.054224 	4924 	0.053391
41.39 	0.051693 	4933 	0.051099
41.41 	0.048924 	4926 	0.048211
41.43 	0.053155 	4929 	0.052204
41.45 	0.052096 	4914 	0.051738
41.47 	0.053999 	4926 	0.053048
41.49 	0.050695 	4892 	0.049857
41.51 	0.051012 	4940 	0.050182
41.53 	0.052791 	4944 	0.052080
41.55 	0.053495 	4935 	0.052783
41.57 	0.049990 	4941 	0.049634
41.59 	0.050476 	4933 	0.049269
41.61 	0.049869 	4953 	0.049041
41.63 	0.052045 	4938 	0.051334
41.65 	0.047474 	4929 	0.046761
41.67 	0.047571 	4940 	0.047334
41.69 	0.053164 	4947 	0.052690
41.71 	0.051074 	4934 	0.050481
41.73 	0.047002 	4936 	0.046290
41.75 	0.049909 	4929 	0.049671
41.77 	0.051204 	4941 	0.050849
41.79 	0.051173 	4944 	0.049988
41.81 	0.047812 	4936 	0.047456
41.83 	0.046672 	4928 	0.046553
41.85 	0.048188 	4939 	0.047595
41.87 	0.050456 	4935 	0.049862
41.89 	0.050476 	4933 	0.049764
41.91 	0.048622 	4936 	0.047436
41.93 	0.048459 	4932 	0.047984
41.95 	0.052728 	4931 	0.051995
41.97 	0.055759 	4914 	0.054925
41.99 	0.053211 	4905 	0.052494
42.01 	0.050789 	4942 	0.050078
42.03 	0.051832 	4939 	0.051358
42.05 	0.041195 	4952 	0.040959
42.07 	0.049625 	4937 	0.049032
42.09 	0.048707 	4948 	0.047878
42.11 	0.047927 	4945 	0.047216
42.13 	0.045905 	4945 	0.045056
42.15 	0.043742 	4938 	0.042793
42.17 	0.052867 	4918 	0.052152
42.19 	0.051345 	4908 	0.050629
42.21 	0.047541 	4901 	0.046944
42.23 	0.047424 	4892 	0.046706
42.25 	0.048272 	4889 	0.048152
42.27 	0.049856 	4874 	0.049015
42.29 	0.048324 	4863 	0.048083
42.31 	0.046138 	4855 	0.045655
42.33 	0.047373 	4834 	0.046525
42.35 	0.044233 	4838 	0.043729
42.37 	0.044099 	4830 	0.043473
42.39 	0.050375 	4804 	0.049033
42.41 	0.048918 	4804 	0.048308
42.43 	0.043197 	4792 	0.042586
42.45 	0.050670 	4776 	0.049566
42.47 	0.050367 	4765 	0.049507
42.49 	0.051626 	4765 	0.050397
42.51 	0.047438 	4743 	0.047315
42.53 	0.043570 	4728 	0.042827
42.55 	0.047579 	4708 	0.047205
42.57 	0.048626 	4730 	0.047615
42.59 	0.046944 	4729 	0.046325
42.61 	0.046092 	4708 	0.045345
42.63 	0.050542 	4709 	0.049546
42.65 	0.048666 	4685 	0.047916
42.67 	0.049317 	4684 	0.048441
42.69 	0.050706 	4674 	0.050205
42.71 	0.046322 	4663 	0.045820
42.73 	0.050647 	4640 	0.049763
42.75 	0.045701 	4617 	0.045447
42.77 	0.043913 	4600 	0.043276
42.79 	0.044740 	4582 	0.044101
42.81 	0.049759 	4562 	0.049117
42.83 	0.049603 	4536 	0.048957
42.85 	0.046820 	4528 	0.045397
42.87 	0.048455 	4499 	0.048065
42.89 	0.045313 	4480 	0.044528
42.91 	0.050494 	4456 	0.049573
42.93 	0.052407 	4446 	0.051484
42.95 	0.046196 	4416 	0.045532
42.97 	0.051579 	4401 	0.050781
42.99 	0.041277 	4385 	0.040342
43.01 	0.047215 	4363 	0.046275
43.03 	0.047081 	4333 	0.046540
43.05 	0.045549 	4325 	0.044872
43.07 	0.043063 	4296 	0.042927
43.09 	0.042494 	4283 	0.042083
43.11 	0.043478 	4255 	0.042790
43.13 	0.043427 	4237 	0.043012
43.15 	0.047076 	4206 	0.046379
43.17 	0.047140 	4179 	0.046299
43.19 	0.046018 	4194 	0.045157
43.21 	0.040748 	4172 	0.040467
43.23 	0.046702 	4154 	0.046420
43.25 	0.041838 	4135 	0.041555
43.27 	0.050183 	4105 	0.050040
43.29 	0.054390 	4100 	0.053104
43.31 	0.046580 	4079 	0.045862
43.33 	0.050358 	4051 	0.049322
43.35 	0.045387 	4032 	0.044660
43.37 	0.047073 	4015 	0.046344
43.39 	0.043978 	4002 	0.043246
43.41 	0.045821 	3972 	0.045526
43.43 	0.043939 	3960 	0.043028
43.45 	0.044727 	3935 	0.044429
43.47 	0.045142 	3921 	0.044693
43.49 	0.050808 	3897 	0.049906
43.51 	0.042817 	3877 	0.042363
43.53 	0.048926 	3863 	0.048319
43.55 	0.046896 	2964 	0.046303
43.57 	0.043342 	2238 	0.043081
43.59 	0.045246 	1746 	0.044575
43.61 	0.042191 	1351 	0.042191
43.63 	0.039960 	1001 	0.039960
43.65 	0.042213 	687 	0.042213
43.67 	0.037849 	502 	0.036682
43.69 	0.043597 	367 	0.043597
43.71 	0.058577 	239 	0.058577
43.73 	0.041667 	120 	0.041667
43.75 	0.187500 	16 	0.187500