File: Example_Data/25SC_s1_0035.002.dat
#F C:\frames\spec\25SC_s1_0035.002
#C title =s:35 frm:2 25SC_s1
#C wavelength =0.15406

#S 1  fr_average C:\frames\spec\25SC_s1_0035.002 C:\win32app\speccom\mask.axs chi 0 180 0 360 0.02
#C 2 theta =0.000000 to 180 deg
#C   q   =0.000000 to 81.568 nm^-1
#C  chi  =0.000000 to 360 deg
#C collumns:
#C  1 position (2theta or chi in degrees)
#C  2 average intensity (sum of all counts in the region divided with number of pixels)
#C  3 Number of pixels in region)
#C  4 error (sum of sqrt(intensity) for all pixels divided by number)
#N 4
#L TTh  Int  N_pix  Err
32.99 	0.098361 	61 	0.098361
33.01 	0.065292 	873 	0.064621
33.03 	0.051042 	1391 	0.050200
33.05 	0.063745 	1757 	0.062078
33.07 	0.065854 	2050 	0.064711
33.09 	0.065616 	2347 	0.064617
33.11 	0.052734 	2579 	0.052279
33.13 	0.057644 	2793 	0.055966
33.15 	0.066355 	2999 	0.065574
33.17 	0.057170 	3201 	0.056255
33.19 	0.050868 	3342 	0.050342
33.21 	0.056752 	3436 	0.055559
33.23 	0.061595 	3523 	0.061096
33.25 	0.056478 	3612 	0.055343
33.27 	0.055647 	3630 	0.055163
33.29 	0.055099 	3648 	0.053814
33.31 	0.053552 	3660 	0.053072
33.33 	0.058329 	3686 	0.057693
33.35 	0.061451 	3694 	0.060658
33.37 	0.064620 	3714 	0.063674
33.39 	0.055243 	3729 	0.054457
33.41 	0.054545 	3740 	0.053449
33.43 	0.056900 	3761 	0.056588
33.45 	0.055394 	3773 	0.054152
33.47 	0.056345 	3798 	0.055420
33.49 	0.057758 	3809 	0.056835
33.51 	0.051900 	3815 	0.051286
33.53 	0.060661 	3841 	0.058679
33.55 	0.057767 	3843 	0.056243
33.57 	0.050039 	3877 	0.048679
33.59 	0.056443 	3880 	0.055060
33.61 	0.066769 	3909 	0.064971
33.63 	0.057923 	3919 	0.056852
33.65 	0.059781 	3931 	0.058738
33.67 	0.061457 	3954 	0.060716
33.69 	0.065267 	3953 	0.064378
33.71 	0.059371 	3975 	0.058339
33.73 	0.052697 	4004 	0.051673
33.75 	0.061015 	3999 	0.059257
33.77 	0.059379 	4025 	0.058360
33.79 	0.061866 	4041 	0.060537
33.81 	0.058692 	4038 	0.057242
33.83 	0.062222 	4050 	0.061499
33.85 	0.060747 	4099 	0.060175
33.87 	0.059596 	4111 	0.058599
33.89 	0.055326 	4121 	0.054758
33.91 	0.051097 	4149 	0.050814
33.93 	0.057095 	4151 	0.056107
33.95 	0.057163 	4181 	0.056323
33.97 	0.061814 	4190 	0.060835
33.99 	0.055238 	4200 	0.054401
34.01 	0.055780 	4213 	0.054945
34.03 	0.059614 	4244 	0.058371
34.05 	0.055738 	4252 	0.054223
34.07 	0.058810 	4268 	0.057025
34.09 	0.060196 	4286 	0.058533
34.11 	0.062297 	4302 	0.061071
34.13 	0.059889 	4308 	0.058801
34.15 	0.060494 	4331 	0.059953
34.17 	0.056322 	4350 	0.054953
34.19 	0.057084 	4362 	0.056144
34.21 	0.050103 	4371 	0.048607
34.23 	0.052584 	4393 	0.052584
34.25 	0.055858 	4404 	0.055326
34.27 	0.060606 	4422 	0.060076
34.29 	0.056144 	4435 	0.055352
34.31 	0.051817 	4458 	0.050766
34.33 	0.057034 	4471 	0.056510
34.35 	0.058207 	4484 	0.057162
34.37 	0.051882 	4491 	0.051360
34.39 	0.062861 	4502 	0.061690
34.41 	0.053690 	4526 	0.053302
34.43 	0.058603 	4539 	0.057700
34.45 	0.053363 	4535 	0.053104
34.47 	0.054660 	4592 	0.053512
34.49 	0.055471 	4597 	0.054834
34.51 	0.053409 	4606 	0.052518
34.53 	0.053414 	4643 	0.051774
34.55 	0.061167 	4643 	0.060032
34.57 	0.057725 	4660 	0.057097
34.59 	0.053262 	4675 	0.052385
34.61 	0.051522 	4697 	0.051148
34.63 	0.063270 	4710 	0.061280
34.65 	0.058039 	4721 	0.056922
34.67 	0.057583 	4741 	0.056718
34.69 	0.054901 	4754 	0.054162
34.71 	0.057281 	4766 	0.056052
34.73 	0.052643 	4787 	0.052031
34.75 	0.056572 	4808 	0.055841
34.77 	0.060814 	4818 	0.060327
34.79 	0.054934 	4824 	0.053699
34.81 	0.060268 	4845 	0.060027
34.83 	0.055533 	4862 	0.054429
34.85 	0.055658 	4869 	0.054696
34.87 	0.051561 	4868 	0.050599
34.89 	0.054486 	4882 	0.053646
34.91 	0.058583 	4882 	0.057143
34.93 	0.050827 	4899 	0.049611
34.95 	0.055010 	4890 	0.054052
34.97 	0.060180 	4902 	0.058985
34.99 	0.055953 	4897 	0.054637
35.01 	0.059110 	4923 	0.058039
35.03 	0.054016 	4943 	0.053186
35.05 	0.058217 	4947 	0.056678
35.07 	0.058300 	4940 	0.057707
35.09 	0.054916 	4953 	0.053714
35.11 	0.059026 	4947 	0.057822
35.13 	0.055264 	4958 	0.054673
35.15 	0.061576 	4937 	0.060864
35.17 	0.054387 	4946 	0.053558
35.19 	0.055443 	4942 	0.054021
35.21 	0.060870 	4945 	0.059922
35.23 	0.057027 	4945 	0.056553
35.25 	0.057253 	4943 	0.056542
35.27 	0.054770 	4948 	0.053704
35.29 	0.057836 	4945 	0.056889
35.31 	0.055544 	4933 	0.055188
35.33 	0.047947 	4943 	0.047354
35.35 	0.060907 	4942 	0.059583
35.37 	0.059931 	4939 	0.058745
35.39 	0.057230 	4945 	0.056025
35.41 	0.057247 	4926 	0.056296
35.43 	0.056152 	4933 	0.055559
35.45 	0.056512 	4937 	0.055326
35.47 	0.058203 	4931 	0.057609
35.49 	0.055193 	4910 	0.053881
35.51 	0.065164 	4926 	0.064451
35.53 	0.057992 	4949 	0.056670
35.55 	0.062285 	4945 	0.060745
35.57 	0.047841 	4933 	0.047247
35.59 	0.052781 	4945 	0.051714
35.61 	0.057264 	4942 	0.056197
35.63 	0.054016 	4943 	0.053423
35.65 	0.057836 	4945 	0.057362
35.67 	0.053015 	4942 	0.052422
35.69 	0.056207 	4946 	0.055615
35.71 	0.055094 	4937 	0.054620
35.73 	0.056321 	4936 	0.055609
35.75 	0.053742 	4931 	0.052178
35.77 	0.054130 	4951 	0.053066
35.79 	0.056164 	4932 	0.055451
35.81 	0.050476 	4933 	0.049388
35.83 	0.059038 	4946 	0.057616
35.85 	0.049645 	4935 	0.049052
35.87 	0.057079 	4923 	0.056484
35.89 	0.055736 	4934 	0.055142
35.91 	0.057642 	4927 	0.056928
35.93 	0.059468 	4927 	0.058755
35.95 	0.053895 	4917 	0.053299
35.97 	0.060057 	4912 	0.058745
35.99 	0.056287 	4939 	0.055437
36.01 	0.055172 	4930 	0.054103
36.03 	0.056646 	4943 	0.055935
36.05 	0.048534 	4945 	0.048178
36.07 	0.063778 	4939 	0.062454
36.09 	0.055061 	4940 	0.054231
36.11 	0.054778 	4929 	0.053708
36.13 	0.057669 	4942 	0.056958
36.15 	0.059526 	4939 	0.058577
36.17 	0.057056 	4925 	0.056580
36.19 	0.052024 	4940 	0.051431
36.21 	0.050923 	4929 	0.050448
36.23 	0.056130 	4935 	0.054943
36.25 	0.057681 	4941 	0.056021
36.27 	0.056447 	4925 	0.055971
36.29 	0.059826 	4931 	0.059113
36.31 	0.055804 	4928 	0.054853
36.33 	0.053517 	4933 	0.051973
36.35 	0.058227 	4929 	0.057157
36.37 	0.063985 	4923 	0.061963
36.39 	0.055883 	4921 	0.054216
36.41 	0.060458 	4896 	0.059381
36.43 	0.052557 	4928 	0.051844
36.45 	0.059229 	4930 	0.058041
36.47 	0.053282 	4936 	0.052689
36.49 	0.053217 	4942 	0.052743
36.51 	0.050274 	4933 	0.049324
36.53 	0.056039 	4943 	0.055190
36.55 	0.058250 	4927 	0.057418
36.57 	0.054520 	4934 	0.054045
36.59 	0.052440 	4939 	0.051728
36.61 	0.059217 	4931 	0.057554
36.63 	0.052930 	4931 	0.052099
36.65 	0.046837 	4932 	0.045887
36.67 	0.060243 	4930 	0.059293
36.69 	0.052952 	4929 	0.052001
36.71 	0.048771 	4921 	0.048652
36.73 	0.053604 	4925 	0.052771
36.75 	0.052184 	4944 	0.051355
36.77 	0.049807 	4919 	0.048973
36.79 	0.049177 	4921 	0.048562
36.81 	0.056550 	4916 	0.055597
36.83 	0.053713 	4915 	0.052760
36.85 	0.048183 	4898 	0.048063
36.87 	0.051173 	4944 	0.050818
36.89 	0.056347 	4916 	0.055393
36.91 	0.056669 	4941 	0.055839
36.93 	0.057606 	4930 	0.057250
36.95 	0.049260 	4933 	0.047954
36.97 	0.046413 	4934 	0.046056
36.99 	0.054509 	4935 	0.053559
37.01 	0.055950 	4933 	0.055118
37.03 	0.053412 	4924 	0.052698
37.05 	0.056424 	4927 	0.055710
37.07 	0.050051 	4935 	0.049338
37.09 	0.048904 	4928 	0.048429
37.11 	0.051469 	4935 	0.050282
37.13 	0.051178 	4924 	0.050702
37.15 	0.048482 	4909 	0.047647
37.17 	0.051480 	4934 	0.050767
37.19 	0.053198 	4925 	0.052365
37.21 	0.052471 	4917 	0.052114
37.23 	0.057747 	4918 	0.055960
37.25 	0.052331 	4911 	0.051477
37.27 	0.056191 	4894 	0.054875
37.29 	0.052535 	4930 	0.051823
37.31 	0.057953 	4935 	0.056885
37.33 	0.055612 	4927 	0.054423
37.35 	0.053058 	4938 	0.052228
37.37 	0.054597 	4927 	0.053884
37.39 	0.050091 	4931 	0.049497
37.41 	0.056581 	4931 	0.055512
37.43 	0.050081 	4932 	0.049487
37.45 	0.054630 	4924 	0.054273
37.47 	0.055792 	4929 	0.054604
37.49 	0.051798 	4923 	0.051084
37.51 	0.050071 	4933 	0.049715
37.53 	0.050823 	4919 	0.050109
37.55 	0.049696 	4930 	0.049102
37.57 	0.046904 	4925 	0.046428
37.59 	0.055341 	4915 	0.054268
37.61 	0.049573 	4922 	0.048621
37.63 	0.050213 	4919 	0.049261
37.65 	0.059374 	4918 	0.058183
37.67 	0.051183 	4904 	0.050705
37.69 	0.049612 	4898 	0.049014
37.71 	0.055386 	4929 	0.054555
37.73 	0.051329 	4929 	0.050853
37.75 	0.048178 	4940 	0.047467
37.77 	0.046951 	4920 	0.046217
37.79 	0.051521 	4930 	0.050808
37.81 	0.044192 	4933 	0.043005
37.83 	0.052439 	4920 	0.051963
37.85 	0.050792 	4922 	0.050435
37.87 	0.050415 	4939 	0.049585
37.89 	0.042640 	4925 	0.042164
37.91 	0.047465 	4930 	0.046633
37.93 	0.052246 	4919 	0.051651
37.95 	0.051006 	4921 	0.050768
37.97 	0.049503 	4929 	0.048790
37.99 	0.051507 	4912 	0.050056
38.01 	0.055398 	4928 	0.053576
38.03 	0.045427 	4909 	0.044472
38.05 	0.053807 	4925 	0.053093
38.07 	0.054186 	4909 	0.053112
38.09 	0.053096 	4878 	0.052255
38.11 	0.057751 	4935 	0.056920
38.13 	0.054689 	4937 	0.054096
38.15 	0.052867 	4918 	0.051914
38.17 	0.054158 	4930 	0.053683
38.19 	0.053550 	4930 	0.052837
38.21 	0.055251 	4923 	0.054418
38.23 	0.056703 	4938 	0.055991
38.25 	0.050031 	4917 	0.048939
38.27 	0.059026 	4930 	0.057957
38.29 	0.060114 	4924 	0.058924
38.31 	0.056221 	4927 	0.055507
38.33 	0.057880 	4924 	0.057166
38.35 	0.060065 	4928 	0.058639
38.37 	0.059708 	4924 	0.058994
38.39 	0.061112 	4909 	0.059919
38.41 	0.065814 	4923 	0.064743
38.43 	0.062449 	4916 	0.060900
38.45 	0.060594 	4918 	0.059522
38.47 	0.069289 	4907 	0.068214
38.49 	0.061513 	4877 	0.060672
38.51 	0.068938 	4932 	0.067394
38.53 	0.063096 	4929 	0.061789
38.55 	0.066451 	4936 	0.064670
38.57 	0.055251 	4923 	0.054061
38.59 	0.051990 	4924 	0.051395
38.61 	0.051661 	4936 	0.050593
38.63 	0.054630 	4924 	0.053798
38.65 	0.060797 	4918 	0.059487
38.67 	0.061981 	4937 	0.061862
38.69 	0.058310 	4922 	0.057308
38.71 	0.053615 	4924 	0.053139
38.73 	0.054697 	4918 	0.053982
38.75 	0.060280 	4927 	0.059428
38.77 	0.053423 	4923 	0.052689
38.79 	0.051074 	4934 	0.050481
38.81 	0.045399 	4912 	0.045041
38.83 	0.049400 	4919 	0.048924
38.85 	0.046621 	4912 	0.045905
38.87 	0.051110 	4911 	0.049897
38.89 	0.049010 	4897 	0.048411
38.91 	0.051601 	4903 	0.049809
38.93 	0.051843 	4938 	0.051012
38.95 	0.047580 	4918 	0.047104
38.97 	0.049077 	4931 	0.048008
38.99 	0.046790 	4937 	0.045959
39.01 	0.046767 	4918 	0.046291
39.03 	0.047426 	4934 	0.046595
39.05 	0.047107 	4925 	0.046036
39.07 	0.046913 	4924 	0.046080
39.09 	0.043063 	4923 	0.042468
39.11 	0.040763 	4931 	0.040050
39.13 	0.046516 	4923 	0.045921
39.15 	0.050254 	4915 	0.049420
39.17 	0.045574 	4937 	0.044862
39.19 	0.049217 	4917 	0.048979
39.21 	0.043992 	4910 	0.043515
39.23 	0.048731 	4925 	0.047660
39.25 	0.042056 	4922 	0.041461
39.27 	0.045621 	4910 	0.045025
39.29 	0.051622 	4901 	0.050785
39.31 	0.046888 	4884 	0.046408
39.33 	0.043602 	4931 	0.043008
39.35 	0.041135 	4935 	0.040779
39.37 	0.043417 	4929 	0.042822
39.39 	0.040779 	4929 	0.040185
39.41 	0.045630 	4931 	0.045036
39.43 	0.045206 	4933 	0.044256
39.45 	0.045482 	4925 	0.045244
39.47 	0.047735 	4923 	0.047002
39.49 	0.042976 	4933 	0.041888
39.51 	0.048335 	4924 	0.047621
39.53 	0.045094 	4923 	0.044262
39.55 	0.046554 	4919 	0.046316
39.57 	0.042773 	4933 	0.042417
39.59 	0.045399 	4912 	0.044683
39.61 	0.049766 	4923 	0.049290
39.63 	0.049777 	4922 	0.048448
39.65 	0.043240 	4926 	0.042289
39.67 	0.050071 	4913 	0.048760
39.69 	0.043124 	4916 	0.042886
39.71 	0.040245 	4895 	0.039747
39.73 	0.047474 	4908 	0.046996
39.75 	0.044034 	4928 	0.043321
39.77 	0.045998 	4935 	0.045167
39.79 	0.043240 	4926 	0.042883
39.81 	0.044449 	4927 	0.043854
39.83 	0.046007 	4934 	0.045532
39.85 	0.040187 	4927 	0.039830
39.87 	0.044670 	4925 	0.044194
39.89 	0.040332 	4934 	0.039976
39.91 	0.044088 	4922 	0.042660
39.93 	0.045372 	4937 	0.044897
39.95 	0.049034 	4915 	0.048438
39.97 	0.038555 	4928 	0.038080
39.99 	0.046026 	4932 	0.045313
40.01 	0.050427 	4918 	0.050070
40.03 	0.044643 	4928 	0.044286
40.05 	0.041895 	4917 	0.041419
40.07 	0.043673 	4923 	0.042939
40.09 	0.046379 	4916 	0.046022
40.11 	0.043938 	4916 	0.043342
40.13 	0.044730 	4896 	0.044252
40.15 	0.041726 	4913 	0.041249
40.17 	0.047281 	4928 	0.046429
40.19 	0.045040 	4929 	0.044683
40.21 	0.049240 	4935 	0.048884
40.23 	0.041160 	4932 	0.041041
40.25 	0.042480 	4920 	0.041527
40.27 	0.051853 	4937 	0.051497
40.29 	0.045667 	4927 	0.044953
40.31 	0.041911 	4939 	0.041437
40.33 	0.041971 	4932 	0.041139
40.35 	0.042895 	4919 	0.042419
40.37 	0.042808 	4929 	0.042095
40.39 	0.034273 	4931 	0.034273
40.41 	0.044264 	4925 	0.043669
40.43 	0.039821 	4922 	0.038869
40.45 	0.040138 	4933 	0.039307
40.47 	0.040057 	4918 	0.039580
40.49 	0.040195 	4926 	0.039362
40.51 	0.042462 	4922 	0.042105
40.53 	0.042311 	4916 	0.041238
40.55 	0.042176 	4908 	0.041579
40.57 	0.042740 	4890 	0.042381
40.59 	0.038282 	4937 	0.038045
40.61 	0.042756 	4935 	0.042400
40.63 	0.038742 	4930 	0.038267
40.65 	0.035447 	4937 	0.035328
40.67 	0.047242 	4932 	0.047005
40.69 	0.039498 	4937 	0.039142
40.71 	0.045620 	4932 	0.045145
40.73 	0.039789 	4926 	0.039432
40.75 	0.041777 	4931 	0.041420
40.77 	0.047985 	4939 	0.047392
40.79 	0.036353 	4924 	0.035639
40.81 	0.043311 	4941 	0.042481
40.83 	0.038555 	4928 	0.037842
40.85 	0.037368 	4924 	0.037011
40.87 	0.042208 	4928 	0.041970
40.89 	0.039140 	4931 	0.039021
40.91 	0.036766 	4923 	0.036647
40.93 	0.036279 	4934 	0.036041
40.95 	0.045797 	4913 	0.045320
40.97 	0.037774 	4924 	0.037536
40.99 	0.040211 	4924 	0.039735
41.01 	0.044381 	4912 	0.043546
41.03 	0.037717 	4905 	0.037358
41.05 	0.037480 	4936 	0.036886
41.07 	0.040365 	4930 	0.039771
41.09 	0.043936 	4939 	0.043699
41.11 	0.039311 	4935 	0.038836
41.13 	0.042139 	4936 	0.041783
41.15 	0.039466 	4941 	0.038754
41.17 	0.043373 	4934 	0.042779
41.19 	0.041379 	4930 	0.040666
41.21 	0.041118 	4937 	0.040169
41.23 	0.043126 	4939 	0.042652
41.25 	0.044395 	4933 	0.043801
41.27 	0.043805 	4931 	0.043329
41.29 	0.044034 	4928 	0.043559
41.31 	0.042976 	4933 	0.042620
41.33 	0.041321 	4937 	0.040846
41.35 	0.040300 	4938 	0.039588
41.37 	0.040617 	4924 	0.039904
41.39 	0.034665 	4933 	0.034308
41.41 	0.042834 	4926 	0.042239
41.43 	0.037736 	4929 	0.036647
41.45 	0.038665 	4914 	0.038069
41.47 	0.039789 	4926 	0.039313
41.49 	0.040883 	4892 	0.040524
41.51 	0.039676 	4940 	0.039083
41.53 	0.036206 	4944 	0.035969
41.55 	0.038095 	4935 	0.037739
41.57 	0.040275 	4941 	0.039920
41.59 	0.042570 	4933 	0.041977
41.61 	0.042802 	4953 	0.041974
41.63 	0.038680 	4938 	0.038324
41.65 	0.043214 	4929 	0.042619
41.67 	0.042915 	4940 	0.041966
41.69 	0.037194 	4947 	0.036957
41.71 	0.040940 	4934 	0.040347
41.73 	0.041329 	4936 	0.040617
41.75 	0.038344 	4929 	0.037631
41.77 	0.042906 	4941 	0.042669
41.79 	0.040049 	4944 	0.039693
41.81 	0.039708 	4936 	0.039708
41.83 	0.044846 	4928 	0.044251
41.85 	0.039279 	4939 	0.038805
41.87 	0.040122 	4935 	0.039647
41.89 	0.044598 	4933 	0.044479
41.91 	0.040519 	4936 	0.040044
41.93 	0.036699 	4932 	0.036224
41.95 	0.038329 	4931 	0.038091
41.97 	0.038055 	4914 	0.037816
41.99 	0.039144 	4905 	0.038547
42.01 	0.041076 	4942 	0.040010
42.03 	0.040089 	4939 	0.039496
42.05 	0.040388 	4952 	0.040033
42.07 	0.040713 	4937 	0.040357
42.09 	0.035570 	4948 	0.034860
42.11 	0.037816 	4945 	0.037342
42.13 	0.039636 	4945 	0.039044
42.15 	0.037667 	4938 	0.037074
42.17 	0.037820 	4918 	0.037344
42.19 	0.040342 	4908 	0.040104
42.21 	0.036727 	4901 	0.036249
42.23 	0.034751 	4892 	0.034751
42.25 	0.041317 	4889 	0.041197
42.27 	0.035289 	4874 	0.035049
42.29 	0.040921 	4863 	0.040198
42.31 	0.043460 	4855 	0.043219
42.33 	0.035788 	4834 	0.035667
42.35 	0.045887 	4838 	0.045039
42.37 	0.040373 	4830 	0.039160
42.39 	0.033722 	4804 	0.033600
42.41 	0.035803 	4804 	0.035560
42.43 	0.036728 	4792 	0.036483
42.45 	0.036013 	4776 	0.035891
42.47 	0.034837 	4765 	0.034591
42.49 	0.041973 	4765 	0.041481
42.51 	0.037318 	4743 	0.037195
42.53 	0.038071 	4728 	0.037823
42.55 	0.041206 	4708 	0.040833
42.57 	0.036364 	4730 	0.035992
42.59 	0.033622 	4729 	0.033498
42.61 	0.037596 	4708 	0.037471
42.63 	0.045870 	4709 	0.044501
42.65 	0.034578 	4685 	0.033953
42.67 	0.038429 	4684 	0.038304
42.69 	0.039367 	4674 	0.038615
42.71 	0.040961 	4663 	0.040961
42.73 	0.039871 	4640 	0.039366
42.75 	0.041152 	4617 	0.041025
42.77 	0.040870 	4600 	0.040615
42.79 	0.037538 	4582 	0.037155
42.81 	0.040772 	4562 	0.040515
42.83 	0.039242 	4536 	0.038983
42.85 	0.039311 	4528 	0.038405
42.87 	0.040009 	4499 	0.039488
42.89 	0.040625 	4480 	0.040233
42.91 	0.033438 	4456 	0.033438
42.93 	0.036437 	4446 	0.036174
42.95 	0.032156 	4416 	0.031890
42.97 	0.036355 	4401 	0.035956
42.99 	0.036944 	4385 	0.036543
43.01 	0.041256 	4363 	0.041122
43.03 	0.038772 	4333 	0.037939
43.05 	0.037688 	4325 	0.037259
43.07 	0.034218 	4296 	0.033809
43.09 	0.036657 	4283 	0.036383
43.11 	0.039483 	4255 	0.039208
43.13 	0.040123 	4237 	0.039846
43.15 	0.032573 	4206 	0.032433
43.17 	0.035415 	4179 	0.034854
43.19 	0.040057 	4194 	0.039219
43.21 	0.031160 	4172 	0.031020
43.23 	0.034665 	4154 	0.034242
43.25 	0.037969 	4135 	0.037544
43.27 	0.040438 	4105 	0.040153
43.29 	0.036585 	4100 	0.036442
43.31 	0.041677 	4079 	0.041246
43.33 	0.041965 	4051 	0.041242
43.35 	0.037202 	4032 	0.036767
43.37 	0.038854 	4015 	0.038125
43.39 	0.037731 	4002 	0.037146
43.41 	0.039023 	3972 	0.038876
43.43 	0.036111 	3960 	0.035815
43.45 	0.042186 	3935 	0.041292
43.47 	0.036725 	3921 	0.036128
43.49 	0.035925 	3897 	0.035624
43.51 	0.036884 	3877 	0.036884
43.53 	0.036241 	3863 	0.035938
43.55 	0.033063 	2964 	0.032866
43.57 	0.032172 	2238 	0.032172
43.59 	0.041237 	1746 	0.041237
43.61 	0.027387 	1351 	0.027387
43.63 	0.043956 	1001 	0.043956
43.65 	0.039301 	687 	0.038449
43.67 	0.027888 	502 	0.027888
43.69 	0.032698 	367 	0.032698
43.71 	0.041841 	239 	0.041841
43.73 	0.041667 	120 	0.041667
43.75 	0.000000 	16 	0.000000