File: Example_Data/25SC_s1_0039.001.dat
#F C:\frames\spec\25SC_s1_0039.001
#C title =s:39 frm:1 25SC_s1
#C wavelength =0.15406

#S 1  fr_average C:\frames\spec\25SC_s1_0039.001 C:\win32app\speccom\mask.axs chi 0 180 0 360 0.02
#C 2 theta =0.000000 to 180 deg
#C   q   =0.000000 to 81.568 nm^-1
#C  chi  =0.000000 to 360 deg
#C collumns:
#C  1 position (2theta or chi in degrees)
#C  2 average intensity (sum of all counts in the region divided with number of pixels)
#C  3 Number of pixels in region)
#C  4 error (sum of sqrt(intensity) for all pixels divided by number)
#N 4
#L TTh  Int  N_pix  Err
32.99 	0.081967 	61 	0.081967
33.01 	0.076747 	873 	0.074734
33.03 	0.061107 	1391 	0.060265
33.05 	0.054069 	1757 	0.052069
33.07 	0.066341 	2050 	0.065484
33.09 	0.057094 	2347 	0.056845
33.11 	0.059325 	2579 	0.057735
33.13 	0.055496 	2793 	0.054867
33.15 	0.057686 	2999 	0.055928
33.17 	0.059981 	3201 	0.059432
33.19 	0.065530 	3342 	0.063952
33.21 	0.062282 	3436 	0.060065
33.23 	0.057621 	3523 	0.056790
33.25 	0.056202 	3612 	0.055391
33.27 	0.057576 	3630 	0.055935
33.29 	0.052632 	3648 	0.051668
33.31 	0.059290 	3660 	0.058809
33.33 	0.069452 	3686 	0.068181
33.35 	0.056308 	3694 	0.056308
33.37 	0.052773 	3714 	0.051669
33.39 	0.056852 	3729 	0.056223
33.41 	0.059893 	3740 	0.058327
33.43 	0.067801 	3761 	0.067334
33.45 	0.060164 	3773 	0.058922
33.47 	0.056345 	3798 	0.055420
33.49 	0.065634 	3809 	0.064711
33.51 	0.055308 	3815 	0.054694
33.53 	0.055975 	3841 	0.054907
33.55 	0.054645 	3843 	0.054035
33.57 	0.052876 	3877 	0.051969
33.59 	0.059278 	3880 	0.057769
33.61 	0.060629 	3909 	0.060180
33.63 	0.061750 	3919 	0.060405
33.65 	0.063343 	3931 	0.062151
33.67 	0.056904 	3954 	0.056164
33.69 	0.060460 	3953 	0.058633
33.71 	0.066164 	3975 	0.064985
33.73 	0.054446 	4004 	0.054153
33.75 	0.052263 	3999 	0.052117
33.77 	0.057143 	4025 	0.056415
33.79 	0.055184 	4041 	0.053880
33.81 	0.059188 	4038 	0.058753
33.83 	0.063210 	4050 	0.061763
33.85 	0.056355 	4099 	0.055022
33.87 	0.059596 	4111 	0.058884
33.89 	0.056782 	4121 	0.055787
33.91 	0.056399 	4149 	0.056117
33.93 	0.060226 	4151 	0.059380
33.95 	0.060990 	4181 	0.060710
33.97 	0.057518 	4190 	0.056237
33.99 	0.054524 	4200 	0.053269
34.01 	0.052931 	4213 	0.051958
34.03 	0.051602 	4244 	0.051188
34.05 	0.066792 	4252 	0.065414
34.07 	0.057873 	4268 	0.056775
34.09 	0.061829 	4286 	0.060736
34.11 	0.058577 	4302 	0.057602
34.13 	0.054318 	4308 	0.053502
34.15 	0.058416 	4331 	0.057469
34.17 	0.063448 	4350 	0.062214
34.19 	0.060064 	4362 	0.059124
34.21 	0.051018 	4371 	0.050058
34.23 	0.056681 	4393 	0.056148
34.25 	0.062897 	4404 	0.061678
34.27 	0.060380 	4422 	0.058525
34.29 	0.055242 	4435 	0.054582
34.31 	0.062135 	4458 	0.060296
34.33 	0.058600 	4471 	0.057552
34.35 	0.057092 	4484 	0.056308
34.37 	0.055222 	4491 	0.054309
34.39 	0.057752 	4502 	0.056581
34.41 	0.055457 	4526 	0.054422
34.43 	0.059264 	4539 	0.057715
34.45 	0.058655 	4535 	0.057880
34.47 	0.052918 	4592 	0.052535
34.49 	0.055471 	4597 	0.054452
34.51 	0.059488 	4606 	0.058089
34.53 	0.055998 	4643 	0.054716
34.55 	0.057075 	4643 	0.055940
34.57 	0.059013 	4660 	0.057735
34.59 	0.055615 	4675 	0.055239
34.61 	0.064083 	4697 	0.063210
34.63 	0.056476 	4710 	0.055356
34.65 	0.056132 	4721 	0.055015
34.67 	0.050411 	4741 	0.049794
34.69 	0.056374 	4754 	0.055265
34.71 	0.058540 	4766 	0.057556
34.73 	0.059327 	4787 	0.058471
34.75 	0.056572 	4808 	0.055598
34.77 	0.053757 	4818 	0.053270
34.79 	0.054312 	4824 	0.053583
34.81 	0.056966 	4845 	0.056603
34.83 	0.055327 	4862 	0.054363
34.85 	0.056480 	4869 	0.055036
34.87 	0.053205 	4868 	0.052122
34.89 	0.051413 	4882 	0.050813
34.91 	0.056739 	4882 	0.056019
34.93 	0.056338 	4899 	0.054983
34.95 	0.049898 	4890 	0.049299
34.97 	0.059364 	4902 	0.058647
34.99 	0.059628 	4897 	0.058432
35.01 	0.062970 	4923 	0.062137
35.03 	0.064738 	4943 	0.063434
35.05 	0.056600 	4947 	0.055771
35.07 	0.057895 	4940 	0.057065
35.09 	0.056329 	4953 	0.055502
35.11 	0.054579 	4947 	0.053513
35.13 	0.059500 	4958 	0.058436
35.15 	0.057322 	4937 	0.056492
35.17 	0.057218 	4946 	0.055915
35.19 	0.058681 	4942 	0.057495
35.21 	0.056218 	4945 	0.055113
35.23 	0.059454 	4945 	0.058743
35.25 	0.060894 	4943 	0.059828
35.27 	0.052749 	4948 	0.051920
35.29 	0.054196 	4945 	0.052893
35.31 	0.052098 	4933 	0.051623
35.33 	0.063524 	4943 	0.063050
35.35 	0.055443 	4942 	0.054495
35.37 	0.055679 	4939 	0.054968
35.39 	0.057230 	4945 	0.056400
35.41 	0.056232 	4926 	0.055757
35.43 	0.055950 	4933 	0.055237
35.45 	0.062994 	4937 	0.061807
35.47 	0.053133 	4931 	0.051826
35.49 	0.052546 	4910 	0.052188
35.51 	0.056232 	4926 	0.055281
35.53 	0.057587 	4949 	0.056404
35.55 	0.053994 	4945 	0.053402
35.57 	0.059193 	4933 	0.058362
35.59 	0.055207 	4945 	0.054477
35.61 	0.058883 	4942 	0.058290
35.63 	0.052195 	4943 	0.051958
35.65 	0.048129 	4945 	0.047537
35.67 	0.054836 	4942 	0.053987
35.69 	0.060049 	4946 	0.059219
35.71 	0.050638 	4937 	0.049807
35.73 	0.058144 	4936 	0.057432
35.75 	0.058203 	4931 	0.056778
35.77 	0.057968 	4951 	0.057377
35.79 	0.053933 	4932 	0.053340
35.81 	0.059599 	4933 	0.057936
35.83 	0.054590 	4946 	0.053997
35.85 	0.058764 	4935 	0.057557
35.87 	0.055048 	4923 	0.054453
35.89 	0.056546 	4934 	0.055597
35.91 	0.053379 	4927 	0.052547
35.93 	0.060889 	4927 	0.060057
35.95 	0.057352 	4917 	0.056518
35.97 	0.055578 	4912 	0.055101
35.99 	0.059931 	4939 	0.058745
36.01 	0.056187 	4930 	0.055355
36.03 	0.054420 	4943 	0.053709
36.05 	0.064712 	4945 	0.063389
36.07 	0.051832 	4939 	0.051477
36.09 	0.059312 	4940 	0.058245
36.11 	0.056198 	4929 	0.055723
36.13 	0.057062 	4942 	0.055976
36.15 	0.051630 	4939 	0.050800
36.17 	0.059492 	4925 	0.058303
36.19 	0.061538 	4940 	0.060471
36.21 	0.056604 	4929 	0.055653
36.23 	0.054914 	4935 	0.054320
36.25 	0.059502 	4941 	0.058317
36.27 	0.051777 	4925 	0.050825
36.29 	0.060637 	4931 	0.059686
36.31 	0.051339 	4928 	0.050250
36.33 	0.054125 	4933 	0.052918
36.35 	0.058633 	4929 	0.058038
36.37 	0.061751 	4923 	0.060442
36.39 	0.057509 	4921 	0.056794
36.41 	0.056168 	4896 	0.055191
36.43 	0.054586 	4928 	0.053853
36.45 	0.052130 	4930 	0.051179
36.47 	0.060981 	4936 	0.060268
36.49 	0.055038 	4942 	0.053853
36.51 	0.055342 	4933 	0.053897
36.53 	0.056646 	4943 	0.056053
36.55 	0.051350 	4927 	0.050874
36.57 	0.056952 	4934 	0.055408
36.59 	0.057502 	4939 	0.056197
36.61 	0.052119 	4931 	0.051525
36.63 	0.055972 	4931 	0.055022
36.65 	0.053325 	4932 	0.052256
36.67 	0.053347 	4930 	0.052634
36.69 	0.050112 	4929 	0.049280
36.71 	0.051209 	4921 	0.050495
36.73 	0.056650 	4925 	0.055936
36.75 	0.059871 	4944 	0.059160
36.77 	0.060175 	4919 	0.059341
36.79 	0.060354 	4921 	0.059758
36.81 	0.051465 	4916 	0.050392
36.83 	0.054527 	4915 	0.053812
36.85 	0.055737 	4898 	0.055378
36.87 	0.055825 	4944 	0.054858
36.89 	0.053906 	4916 	0.052952
36.91 	0.055454 	4941 	0.054387
36.93 	0.055172 	4930 	0.054697
36.95 	0.053923 	4933 	0.053566
36.97 	0.058370 	4934 	0.057421
36.99 	0.058764 	4935 	0.057696
37.01 	0.056558 	4933 	0.055845
37.03 	0.052600 	4924 	0.051886
37.05 	0.054191 	4927 	0.053240
37.07 	0.055117 	4935 	0.054167
37.09 	0.046469 	4928 	0.045875
37.11 	0.059372 	4935 	0.057829
37.13 	0.049959 	4924 	0.049127
37.15 	0.057853 	4909 	0.057256
37.17 	0.062424 	4934 	0.061593
37.19 	0.053401 	4925 	0.052687
37.21 	0.053285 	4917 	0.052927
37.23 	0.056120 	4918 	0.055048
37.25 	0.058847 	4911 	0.057893
37.27 	0.058235 	4894 	0.057277
37.29 	0.055578 	4930 	0.054489
37.31 	0.056940 	4935 	0.055872
37.33 	0.053988 	4927 	0.052404
37.35 	0.050425 	4938 	0.049714
37.37 	0.058250 	4927 	0.057636
37.39 	0.053944 	4931 	0.052994
37.41 	0.049280 	4931 	0.048567
37.43 	0.055961 	4932 	0.054892
37.45 	0.053818 	4924 	0.052628
37.47 	0.057415 	4929 	0.056583
37.49 	0.052813 	4923 	0.051961
37.51 	0.058585 	4933 	0.058348
37.53 	0.060581 	4919 	0.059391
37.55 	0.053347 	4930 	0.052753
37.57 	0.053604 	4925 	0.052534
37.59 	0.052085 	4915 	0.050655
37.61 	0.048557 	4922 	0.047110
37.63 	0.052450 	4919 	0.051735
37.65 	0.056730 	4918 	0.055420
37.67 	0.054241 	4904 	0.052927
37.69 	0.055125 	4898 	0.053789
37.71 	0.054372 	4929 	0.053302
37.73 	0.053966 	4929 	0.052639
37.75 	0.055870 	4940 	0.054922
37.77 	0.060976 	4920 	0.060499
37.79 	0.050507 	4930 	0.049913
37.81 	0.052909 	4933 	0.052078
37.83 	0.056504 	4920 	0.055790
37.85 	0.047542 	4922 	0.047066
37.87 	0.054464 	4939 	0.053871
37.89 	0.058071 	4925 	0.057357
37.91 	0.056187 	4930 	0.054998
37.93 	0.047367 	4919 	0.046415
37.95 	0.052225 	4921 	0.051491
37.97 	0.053561 	4929 	0.053204
37.99 	0.051914 	4912 	0.051556
38.01 	0.050933 	4928 	0.050220
38.03 	0.051334 	4909 	0.051096
38.05 	0.061117 	4925 	0.060641
38.07 	0.054390 	4909 	0.053555
38.09 	0.054941 	4878 	0.053740
38.11 	0.060588 	4935 	0.059638
38.13 	0.061373 	4937 	0.060187
38.15 	0.058764 	4918 	0.058287
38.17 	0.056187 	4930 	0.055593
38.19 	0.058418 	4930 	0.057230
38.21 	0.057892 	4923 	0.057535
38.23 	0.069461 	4938 	0.068631
38.25 	0.059182 	4917 	0.057991
38.27 	0.066126 	4930 	0.064680
38.29 	0.060926 	4924 	0.059974
38.31 	0.063730 	4927 	0.062046
38.33 	0.067425 	4924 	0.066473
38.35 	0.064326 	4928 	0.062980
38.37 	0.066206 	4924 	0.065136
38.39 	0.073538 	4909 	0.071510
38.41 	0.069470 	4923 	0.068518
38.43 	0.074247 	4916 	0.073175
38.45 	0.069744 	4918 	0.068057
38.47 	0.069696 	4907 	0.068861
38.49 	0.067254 	4877 	0.065573
38.51 	0.071573 	4932 	0.070386
38.53 	0.077501 	4929 	0.075361
38.55 	0.070502 	4936 	0.069197
38.57 	0.072720 	4923 	0.071054
38.59 	0.069456 	4924 	0.068246
38.61 	0.068071 	4936 	0.066865
38.63 	0.070065 	4924 	0.068399
38.65 	0.068117 	4918 	0.066807
38.67 	0.070691 	4937 	0.069386
38.69 	0.062170 	4922 	0.061694
38.71 	0.061738 	4924 	0.060787
38.73 	0.056527 	4918 	0.056051
38.75 	0.059062 	4927 	0.058230
38.77 	0.057485 	4923 	0.057009
38.79 	0.056141 	4934 	0.055666
38.81 	0.056189 	4912 	0.055235
38.83 	0.056312 	4919 	0.055955
38.85 	0.049267 	4912 	0.048552
38.87 	0.047241 	4911 	0.046764
38.89 	0.054319 	4897 	0.053123
38.91 	0.052417 	4903 	0.051222
38.93 	0.050628 	4938 	0.050272
38.95 	0.051037 	4918 	0.050441
38.97 	0.051308 	4931 	0.050595
38.99 	0.049423 	4937 	0.048711
39.01 	0.045344 	4918 	0.045225
39.03 	0.046210 	4934 	0.045735
39.05 	0.048325 	4925 	0.047135
39.07 	0.048944 	4924 	0.048587
39.09 	0.047329 	4923 	0.046615
39.11 	0.042588 	4931 	0.042350
39.13 	0.044282 	4923 	0.043806
39.15 	0.048627 	4915 	0.048269
39.17 	0.053676 	4937 	0.052964
39.19 	0.042912 	4917 	0.042555
39.21 	0.045621 	4910 	0.045383
39.23 	0.048122 	4925 	0.047170
39.25 	0.050792 	4922 	0.050078
39.27 	0.038493 	4910 	0.038493
39.29 	0.046317 	4901 	0.045241
39.31 	0.044636 	4884 	0.043916
39.33 	0.048063 	4931 	0.047350
39.35 	0.039716 	4935 	0.038767
39.37 	0.044431 	4929 	0.043956
39.39 	0.043417 	4929 	0.042822
39.41 	0.047455 	4931 	0.046505
39.43 	0.048652 	4933 	0.048058
39.45 	0.044467 	4925 	0.043872
39.47 	0.042454 	4923 	0.042216
39.49 	0.045003 	4933 	0.044766
39.51 	0.043867 	4924 	0.043391
39.53 	0.044282 	4923 	0.043687
39.55 	0.044928 	4919 	0.044571
39.57 	0.047841 	4933 	0.047247
39.59 	0.050285 	4912 	0.049808
39.61 	0.046516 	4923 	0.046040
39.63 	0.042056 	4922 	0.041818
39.65 	0.045270 	4926 	0.044319
39.67 	0.042337 	4913 	0.041860
39.69 	0.046786 	4916 	0.045594
39.71 	0.046170 	4895 	0.045691
39.73 	0.047066 	4908 	0.046450
39.75 	0.044237 	4928 	0.043148
39.77 	0.040324 	4935 	0.039731
39.79 	0.046488 	4926 	0.045755
39.81 	0.041810 	4927 	0.041097
39.83 	0.043373 	4934 	0.042779
39.85 	0.043028 	4927 	0.042553
39.87 	0.044264 	4925 	0.043788
39.89 	0.041954 	4934 	0.041716
39.91 	0.040024 	4922 	0.039548
39.93 	0.045169 	4937 	0.044695
39.95 	0.045982 	4915 	0.045743
39.97 	0.048093 	4928 	0.047498
39.99 	0.047648 	4932 	0.047054
40.01 	0.044327 	4918 	0.043731
40.03 	0.041396 	4928 	0.040564
40.05 	0.045963 	4917 	0.045348
40.07 	0.044891 	4923 	0.043820
40.09 	0.043938 	4916 	0.043462
40.11 	0.040480 	4916 	0.040242
40.13 	0.042892 	4896 	0.042294
40.15 	0.042133 	4913 	0.042014
40.17 	0.042817 	4928 	0.041965
40.19 	0.042402 	4929 	0.041333
40.21 	0.047011 	4935 	0.046655
40.23 	0.042376 	4932 	0.041426
40.25 	0.043699 	4920 	0.042866
40.27 	0.042536 	4937 	0.042417
40.29 	0.039984 	4927 	0.039627
40.31 	0.040089 	4939 	0.039377
40.33 	0.039335 	4932 	0.039097
40.35 	0.040049 	4919 	0.039215
40.37 	0.041185 	4929 	0.040571
40.39 	0.042588 	4931 	0.042212
40.41 	0.043249 	4925 	0.042773
40.43 	0.042666 	4922 	0.042071
40.45 	0.043989 	4933 	0.043633
40.47 	0.042904 	4918 	0.042308
40.49 	0.042834 	4926 	0.042120
40.51 	0.044291 	4922 	0.043220
40.53 	0.036615 	4916 	0.036258
40.55 	0.041769 	4908 	0.041172
40.57 	0.044785 	4890 	0.044426
40.59 	0.046587 	4937 	0.046112
40.61 	0.037893 	4935 	0.037062
40.63 	0.047667 	4930 	0.047192
40.65 	0.041726 	4937 	0.041607
40.67 	0.044201 	4932 	0.043726
40.69 	0.044967 	4937 	0.044492
40.71 	0.043187 	4932 	0.042712
40.73 	0.039383 	4926 	0.039145
40.75 	0.038532 	4931 	0.038413
40.77 	0.042924 	4939 	0.042212
40.79 	0.038383 	4924 	0.038027
40.81 	0.044323 	4941 	0.043849
40.83 	0.043831 	4928 	0.043356
40.85 	0.042039 	4924 	0.041801
40.87 	0.042208 	4928 	0.041713
40.89 	0.043196 	4931 	0.042840
40.91 	0.040219 	4923 	0.039862
40.93 	0.038306 	4934 	0.037949
40.95 	0.039284 	4913 	0.039045
40.97 	0.041227 	4924 	0.040394
40.99 	0.039602 	4924 	0.039364
41.01 	0.042142 	4912 	0.041307
41.03 	0.039551 	4905 	0.039193
41.05 	0.046799 	4936 	0.046324
41.07 	0.041988 	4930 	0.041493
41.09 	0.037862 	4939 	0.037506
41.11 	0.040527 	4935 	0.039459
41.13 	0.040721 	4936 	0.040484
41.15 	0.034001 	4941 	0.033527
41.17 	0.042764 	4934 	0.042171
41.19 	0.042191 	4930 	0.041359
41.21 	0.034839 	4937 	0.034483
41.23 	0.043531 	4939 	0.042938
41.25 	0.044192 	4933 	0.043361
41.27 	0.041371 	4931 	0.040896
41.29 	0.036323 	4928 	0.035848
41.31 	0.043989 	4933 	0.043752
41.33 	0.044156 	4937 	0.043326
41.35 	0.037870 	4938 	0.037395
41.37 	0.036353 	4924 	0.035758
41.39 	0.039732 	4933 	0.039139
41.41 	0.038774 	4926 	0.037941
41.43 	0.038953 	4929 	0.038002
41.45 	0.043346 	4914 	0.043107
41.47 	0.042428 	4926 	0.042071
41.49 	0.038839 	4892 	0.038480
41.51 	0.036640 	4940 	0.036284
41.53 	0.040655 	4944 	0.039707
41.55 	0.042756 	4935 	0.042281
41.57 	0.039263 	4941 	0.038433
41.59 	0.040746 	4933 	0.040034
41.61 	0.042197 	4953 	0.041960
41.63 	0.035237 	4938 	0.035000
41.65 	0.042199 	4929 	0.041486
41.67 	0.036032 	4940 	0.035914
41.69 	0.042854 	4947 	0.042262
41.71 	0.041548 	4934 	0.040955
41.73 	0.044165 	4936 	0.043809
41.75 	0.039156 	4929 	0.039037
41.77 	0.041490 	4941 	0.040778
41.79 	0.043083 	4944 	0.042609
41.81 	0.042342 	4936 	0.041511
41.83 	0.046672 	4928 	0.045959
41.85 	0.039482 	4939 	0.039007
41.87 	0.036474 	4935 	0.035762
41.89 	0.041354 	4933 	0.040879
41.91 	0.044368 	4936 	0.043419
41.93 	0.037713 	4932 	0.037119
41.95 	0.043399 	4931 	0.042924
41.97 	0.037037 	4914 	0.036560
41.99 	0.038940 	4905 	0.038343
42.01 	0.036827 	4942 	0.036472
42.03 	0.032395 	4939 	0.032395
42.05 	0.037763 	4952 	0.037053
42.07 	0.034231 	4937 	0.033994
42.09 	0.038399 	4948 	0.038044
42.11 	0.034580 	4945 	0.034343
42.13 	0.035592 	4945 	0.035355
42.15 	0.039895 	4938 	0.039539
42.17 	0.044327 	4918 	0.043612
42.19 	0.038916 	4908 	0.038797
42.21 	0.038564 	4901 	0.037966
42.23 	0.038226 	4892 	0.037148
42.25 	0.043772 	4889 	0.043173
42.27 	0.041034 	4874 	0.040553
42.29 	0.045034 	4863 	0.044291
42.31 	0.033368 	4855 	0.032885
42.33 	0.040339 	4834 	0.039976
42.35 	0.032451 	4838 	0.031967
42.37 	0.044928 	4830 	0.044442
42.39 	0.036012 	4804 	0.035402
42.41 	0.041007 	4804 	0.040764
42.43 	0.035058 	4792 	0.034672
42.45 	0.034757 	4776 	0.034267
42.47 	0.036936 	4765 	0.036321
42.49 	0.037356 	4765 	0.036864
42.51 	0.037529 	4743 	0.037405
42.53 	0.031937 	4728 	0.031813
42.55 	0.035684 	4708 	0.035166
42.57 	0.036786 	4730 	0.036291
42.59 	0.040812 	4729 	0.040317
42.61 	0.037808 	4708 	0.037186
42.63 	0.033553 	4709 	0.033304
42.65 	0.040555 	4685 	0.039930
42.67 	0.037575 	4684 	0.037450
42.69 	0.038725 	4674 	0.038600
42.71 	0.037958 	4663 	0.037582
42.73 	0.033405 	4640 	0.033153
42.75 	0.038986 	4617 	0.038606
42.77 	0.039783 	4600 	0.039273
42.79 	0.037756 	4582 	0.037373
42.81 	0.041868 	4562 	0.041097
42.83 	0.037698 	4536 	0.037311
42.85 	0.036219 	4528 	0.035831
42.87 	0.036675 	4499 	0.036284
42.89 	0.041071 	4480 	0.040810
42.91 	0.039946 	4456 	0.039552
42.93 	0.039361 	4446 	0.038834
42.95 	0.038723 	4416 	0.038192
42.97 	0.035674 	4401 	0.035274
42.99 	0.041505 	4385 	0.041104
43.01 	0.037360 	4363 	0.037225
43.03 	0.035772 	4333 	0.035502
43.05 	0.037457 	4325 	0.036915
43.07 	0.040037 	4296 	0.039628
43.09 	0.035956 	4283 	0.035819
43.11 	0.037368 	4255 	0.036679
43.13 	0.030682 	4237 	0.030682
43.15 	0.036377 	4206 	0.035959
43.17 	0.041876 	4179 	0.041736
43.19 	0.039342 	4194 	0.038923
43.21 	0.040029 	4172 	0.039327
43.23 	0.038036 	4154 	0.037049
43.25 	0.040629 	4135 	0.039779
43.27 	0.038246 	4105 	0.037961
43.29 	0.037561 	4100 	0.036966
43.31 	0.038735 	4079 	0.038735
43.33 	0.039496 	4051 	0.039207
43.35 	0.035218 	4032 	0.034928
43.37 	0.036862 	4015 	0.036254
43.39 	0.037731 	4002 	0.037585
43.41 	0.037764 	3972 	0.037469
43.43 	0.035101 	3960 	0.034509
43.45 	0.034562 	3935 	0.034413
43.47 	0.040296 	3921 	0.039698
43.49 	0.035412 	3897 	0.034811
43.51 	0.042043 	3877 	0.041111
43.53 	0.037536 	3863 	0.037536
43.55 	0.040486 	2964 	0.040288
43.57 	0.039321 	2238 	0.038012
43.59 	0.033219 	1746 	0.033219
43.61 	0.031088 	1351 	0.031088
43.63 	0.024975 	1001 	0.024975
43.65 	0.036390 	687 	0.036390
43.67 	0.021912 	502 	0.020745
43.69 	0.051771 	367 	0.051771
43.71 	0.041841 	239 	0.039390
43.73 	0.041667 	120 	0.041667
43.75 	0.000000 	16 	0.000000