File: Example_Data/25SC_s1_0007.001.dat
#F C:\frames\spec\25SC_s1_0007.001
#C title =s:7 frm:1 25SC_s1
#C wavelength =0.15406

#S 1  fr_average C:\frames\spec\25SC_s1_0007.001 C:\win32app\speccom\mask.axs chi 0 180 0 360 0.02
#C 2 theta =0.000000 to 180 deg
#C   q   =0.000000 to 81.568 nm^-1
#C  chi  =0.000000 to 360 deg
#C collumns:
#C  1 position (2theta or chi in degrees)
#C  2 average intensity (sum of all counts in the region divided with number of pixels)
#C  3 Number of pixels in region)
#C  4 error (sum of sqrt(intensity) for all pixels divided by number)
#N 4
#L TTh  Int  N_pix  Err
32.99 	0.065574 	61 	0.065574
33.01 	0.057274 	873 	0.055261
33.03 	0.056794 	1391 	0.054267
33.05 	0.062038 	1757 	0.061037
33.07 	0.059024 	2050 	0.057881
33.09 	0.067320 	2347 	0.066571
33.11 	0.062427 	2579 	0.061292
33.13 	0.065163 	2793 	0.064114
33.15 	0.064355 	2999 	0.063769
33.17 	0.063730 	3201 	0.062815
33.19 	0.052663 	3342 	0.051787
33.21 	0.062573 	3436 	0.061720
33.23 	0.052512 	3523 	0.051514
33.25 	0.059801 	3612 	0.058639
33.27 	0.052342 	3630 	0.051373
33.29 	0.054276 	3648 	0.053473
33.31 	0.056557 	3660 	0.055597
33.33 	0.064569 	3686 	0.063615
33.35 	0.054413 	3694 	0.053778
33.37 	0.064351 	3714 	0.063878
33.39 	0.055511 	3729 	0.054883
33.41 	0.060428 	3740 	0.059331
33.43 	0.055039 	3761 	0.054104
33.45 	0.060694 	3773 	0.058961
33.47 	0.060821 	3798 	0.059896
33.49 	0.057233 	3809 	0.056772
33.51 	0.059240 	3815 	0.057704
33.53 	0.066910 	3841 	0.065690
33.55 	0.061150 	3843 	0.059626
33.57 	0.062419 	3877 	0.061513
33.59 	0.060309 	3880 	0.058624
33.61 	0.060629 	3909 	0.059730
33.63 	0.069150 	3919 	0.067805
33.65 	0.061053 	3931 	0.060010
33.67 	0.058422 	3954 	0.058126
33.69 	0.058184 	3953 	0.057295
33.71 	0.048302 	3975 	0.047712
33.73 	0.060939 	4004 	0.059769
33.75 	0.064766 	3999 	0.063155
33.77 	0.059627 	4025 	0.059191
33.79 	0.056917 	4041 	0.055757
33.81 	0.059683 	4038 	0.059103
33.83 	0.057778 	4050 	0.056476
33.85 	0.058063 	4099 	0.057063
33.87 	0.063002 	4111 	0.061862
33.89 	0.057268 	4121 	0.055988
33.91 	0.057604 	4149 	0.056757
33.93 	0.062636 	4151 	0.061083
33.95 	0.064099 	4181 	0.062558
33.97 	0.060143 	4190 	0.058326
33.99 	0.053571 	4200 	0.053014
34.01 	0.056492 	4213 	0.055797
34.03 	0.057022 	4244 	0.055779
34.05 	0.054092 	4252 	0.053403
34.07 	0.052249 	4268 	0.051289
34.09 	0.052497 	4286 	0.051813
34.11 	0.059740 	4302 	0.058650
34.13 	0.053157 	4308 	0.052613
34.15 	0.055645 	4331 	0.055104
34.17 	0.059540 	4350 	0.058194
34.19 	0.059147 	4362 	0.058207
34.21 	0.055822 	4371 	0.054616
34.23 	0.062144 	4393 	0.061478
34.25 	0.060854 	4404 	0.060322
34.27 	0.058345 	4422 	0.057417
34.29 	0.050958 	4435 	0.049616
34.31 	0.050022 	4458 	0.049103
34.33 	0.056140 	4471 	0.055353
34.35 	0.057092 	4484 	0.056961
34.37 	0.061902 	4491 	0.061119
34.39 	0.065304 	4502 	0.063613
34.41 	0.051259 	4526 	0.050871
34.43 	0.060145 	4539 	0.059221
34.45 	0.061080 	4535 	0.059143
34.47 	0.061847 	4592 	0.061336
34.49 	0.055471 	4597 	0.054197
34.51 	0.054711 	4606 	0.053948
34.53 	0.063106 	4643 	0.062096
34.55 	0.053629 	4643 	0.052494
34.57 	0.057725 	4660 	0.056845
34.59 	0.057112 	4675 	0.055588
34.61 	0.060890 	4697 	0.060142
34.63 	0.053715 	4710 	0.052721
34.65 	0.058250 	4721 	0.057237
34.67 	0.058637 	4741 	0.058267
34.69 	0.062894 	4754 	0.062032
34.71 	0.059589 	4766 	0.059097
34.73 	0.052016 	4787 	0.051649
34.75 	0.052413 	4808 	0.051682
34.77 	0.057700 	4818 	0.057092
34.79 	0.052239 	4824 	0.051753
34.81 	0.059649 	4845 	0.059045
34.83 	0.052036 	4862 	0.051072
34.85 	0.065106 	4869 	0.064143
34.87 	0.055670 	4868 	0.054466
34.89 	0.050799 	4882 	0.049719
34.91 	0.059812 	4882 	0.058352
34.93 	0.057971 	4899 	0.057254
34.95 	0.060123 	4890 	0.059284
34.97 	0.061200 	4902 	0.060124
34.99 	0.055136 	4897 	0.054538
35.01 	0.059313 	4923 	0.058005
35.03 	0.057657 	4943 	0.056472
35.05 	0.057206 	4947 	0.056141
35.07 	0.055263 	4940 	0.054295
35.09 	0.061983 	4953 	0.060544
35.11 	0.061047 	4947 	0.059981
35.13 	0.059096 	4958 	0.057560
35.15 	0.059753 	4937 	0.059160
35.17 	0.060251 	4946 	0.059777
35.19 	0.059288 	4942 	0.058695
35.21 	0.059454 	4945 	0.058743
35.23 	0.061476 	4945 	0.060647
35.25 	0.056646 	4943 	0.055816
35.27 	0.053355 	4948 	0.052289
35.29 	0.054803 	4945 	0.053855
35.31 	0.064464 	4933 	0.062683
35.33 	0.053813 	4943 	0.052273
35.35 	0.056860 	4942 	0.055911
35.37 	0.052237 	4939 	0.051407
35.39 	0.055410 	4945 	0.054817
35.41 	0.059277 	4926 	0.058445
35.43 	0.058382 	4933 	0.057551
35.45 	0.059550 	4937 	0.058482
35.47 	0.060434 	4931 	0.059602
35.49 	0.053768 	4910 	0.052933
35.51 	0.056841 	4926 	0.056128
35.53 	0.053748 	4949 	0.052663
35.55 	0.058645 	4945 	0.057934
35.57 	0.062437 	4933 	0.061724
35.59 	0.065521 	4945 	0.064455
35.61 	0.063132 	4942 	0.061947
35.63 	0.058669 	4943 	0.057128
35.65 	0.059252 	4945 	0.057830
35.67 	0.062728 	4942 	0.061404
35.69 	0.054994 	4946 	0.054046
35.71 	0.055297 	4937 	0.054565
35.73 	0.057131 	4936 	0.056657
35.75 	0.059826 	4931 	0.058994
35.77 	0.064027 	4951 	0.062371
35.79 	0.060624 	4932 	0.059080
35.81 	0.057774 	4933 	0.057062
35.83 	0.064497 	4946 	0.063431
35.85 	0.055724 	4935 	0.055131
35.87 	0.056267 	4923 	0.055791
35.89 	0.057762 	4934 	0.056694
35.91 	0.063325 	4927 	0.062373
35.93 	0.055815 	4927 	0.054507
35.95 	0.058979 	4917 	0.057907
35.97 	0.057207 	4912 	0.056114
35.99 	0.061348 	4939 	0.060162
36.01 	0.058012 	4930 	0.056943
36.03 	0.052397 	4943 	0.051686
36.05 	0.063296 	4945 	0.062112
36.07 	0.057704 	4939 	0.056637
36.09 	0.059514 	4940 	0.057617
36.11 	0.058633 	4929 	0.058157
36.13 	0.058883 	4942 	0.057323
36.15 	0.062361 	4939 	0.060918
36.17 	0.058274 	4925 	0.057560
36.19 	0.060121 	4940 	0.059410
36.21 	0.065531 	4929 	0.064223
36.23 	0.058561 	4935 	0.057730
36.25 	0.060312 	4941 	0.059600
36.27 	0.059289 	4925 	0.058537
36.29 	0.056378 	4931 	0.054715
36.31 	0.053166 	4928 	0.051838
36.33 	0.059801 	4933 	0.058357
36.35 	0.058835 	4929 	0.057528
36.37 	0.059517 	4923 	0.058089
36.39 	0.054664 	4921 	0.053830
36.41 	0.066993 	4896 	0.065299
36.43 	0.061080 	4928 	0.059891
36.45 	0.060446 	4930 	0.059496
36.47 	0.055713 	4936 	0.054626
36.49 	0.061514 	4942 	0.060802
36.51 	0.063856 	4933 	0.062431
36.53 	0.062310 	4943 	0.061007
36.55 	0.064745 	4927 	0.063319
36.57 	0.067491 	4934 	0.066541
36.59 	0.058716 	4939 	0.058479
36.61 	0.063882 	4931 	0.062674
36.63 	0.062868 	4931 	0.060729
36.65 	0.060422 	4932 	0.059472
36.67 	0.058215 	4930 	0.057502
36.69 	0.063096 	4929 	0.062145
36.71 	0.067060 	4921 	0.066088
36.73 	0.060508 	4925 	0.059418
36.75 	0.056432 	4944 	0.055247
36.77 	0.059362 	4919 	0.058885
36.79 	0.062589 	4921 	0.061399
36.81 	0.057567 	4916 	0.056614
36.83 	0.061851 	4915 	0.061256
36.85 	0.064924 	4898 	0.064087
36.87 	0.058050 	4944 	0.057576
36.89 	0.061635 	4916 	0.060682
36.91 	0.063955 	4941 	0.062157
36.93 	0.058215 	4930 	0.057502
36.95 	0.064869 	4933 	0.063444
36.97 	0.061005 	4934 	0.060412
36.99 	0.064843 	4935 	0.063656
37.01 	0.061018 	4933 	0.059593
37.03 	0.060317 	4924 	0.059008
37.05 	0.062310 	4927 	0.060745
37.07 	0.060790 	4935 	0.059465
37.09 	0.063920 	4928 	0.062732
37.11 	0.056535 	4935 	0.055585
37.13 	0.054021 	4924 	0.053307
37.15 	0.054797 	4909 	0.054439
37.17 	0.057965 	4934 	0.057134
37.19 	0.065381 	4925 	0.064191
37.21 	0.055928 	4917 	0.055333
37.23 	0.056934 	4918 	0.056219
37.25 	0.060884 	4911 	0.060287
37.27 	0.058030 	4894 	0.056953
37.29 	0.057809 	4930 	0.057215
37.31 	0.058967 	4935 	0.057423
37.33 	0.059874 	4927 	0.058447
37.35 	0.056703 	4938 	0.055280
37.37 	0.057439 	4927 	0.056131
37.39 	0.060637 	4931 	0.059092
37.41 	0.062868 	4931 	0.061561
37.43 	0.056772 	4932 	0.055822
37.45 	0.057677 	4924 	0.056844
37.47 	0.062487 	4929 	0.061655
37.49 	0.061751 	4923 	0.060680
37.51 	0.056355 	4933 	0.055286
37.53 	0.055499 	4919 	0.054785
37.55 	0.053144 	4930 	0.052550
37.57 	0.056244 	4925 	0.055173
37.59 	0.056358 	4915 	0.055762
37.61 	0.055262 	4922 	0.054429
37.63 	0.053669 	4919 	0.053074
37.65 	0.054494 	4918 	0.053422
37.67 	0.052610 	4904 	0.051774
37.69 	0.054104 	4898 	0.053625
37.71 	0.060459 	4929 	0.059627
37.73 	0.052546 	4929 	0.051833
37.75 	0.061538 	4940 	0.060353
37.77 	0.054065 	4920 	0.053232
37.79 	0.056795 	4930 	0.056082
37.81 	0.052909 	4933 	0.051721
37.83 	0.058740 	4920 	0.057668
37.85 	0.054449 	4922 	0.053973
37.87 	0.057097 	4939 	0.055436
37.89 	0.057462 	4925 	0.056035
37.91 	0.050101 	4930 	0.049507
37.93 	0.055296 	4919 	0.054581
37.95 	0.053648 	4921 	0.052457
37.97 	0.054372 	4929 	0.052926
37.99 	0.057818 	4912 	0.057221
38.01 	0.051948 	4928 	0.051354
38.03 	0.054797 	4909 	0.054320
38.05 	0.058680 	4925 	0.057471
38.07 	0.057242 	4909 	0.056526
38.09 	0.052686 	4878 	0.051365
38.11 	0.053698 	4935 	0.052274
38.13 	0.056512 	4937 	0.056156
38.15 	0.053884 	4918 	0.053030
38.17 	0.058824 	4930 	0.057259
38.19 	0.055984 	4930 	0.054895
38.21 	0.054235 	4923 	0.053164
38.23 	0.055286 	4938 	0.054099
38.25 	0.054098 	4917 	0.053741
38.27 	0.055375 	4930 	0.054405
38.29 	0.058286 	4924 	0.056739
38.31 	0.058250 	4927 	0.057418
38.33 	0.057880 	4924 	0.056809
38.35 	0.060065 	4928 	0.058757
38.37 	0.058489 	4924 	0.057637
38.39 	0.061927 	4909 	0.061092
38.41 	0.061548 	4923 	0.060358
38.43 	0.062856 	4916 	0.061545
38.45 	0.070354 	4918 	0.069163
38.47 	0.069900 	4907 	0.068109
38.49 	0.074841 	4877 	0.073760
38.51 	0.071979 	4932 	0.071029
38.53 	0.075877 	4929 	0.073738
38.55 	0.073136 	4936 	0.072305
38.57 	0.073532 	4923 	0.072105
38.59 	0.070877 	4924 	0.069569
38.61 	0.071515 	4936 	0.070091
38.63 	0.081032 	4924 	0.079128
38.65 	0.075641 	4918 	0.074092
38.67 	0.067855 	4937 	0.066787
38.69 	0.067249 	4922 	0.065702
38.71 	0.074127 	4924 	0.072699
38.73 	0.072997 	4918 	0.071210
38.75 	0.075096 	4927 	0.073194
38.77 	0.068657 	4923 	0.066753
38.79 	0.070328 	4934 	0.069122
38.81 	0.065147 	4912 	0.064073
38.83 	0.066680 	4919 	0.065370
38.85 	0.058021 	4912 	0.057544
38.87 	0.060069 	4911 	0.058857
38.89 	0.066571 	4897 	0.065614
38.91 	0.058944 	4903 	0.058346
38.93 	0.052045 	4938 	0.051096
38.95 	0.052867 	4918 	0.051537
38.97 	0.050700 	4931 	0.050106
38.99 	0.055499 	4937 	0.054056
39.01 	0.048190 	4918 	0.047476
39.03 	0.053912 	4934 	0.052487
39.05 	0.051574 	4925 	0.050741
39.07 	0.049959 	4924 	0.049484
39.09 	0.052001 	4923 	0.051525
39.11 	0.044616 	4931 	0.043784
39.13 	0.046110 	4923 	0.045277
39.15 	0.052492 	4915 	0.051400
39.17 	0.047195 	4937 	0.046720
39.19 	0.046980 	4917 	0.046622
39.21 	0.042974 	4910 	0.042138
39.23 	0.047919 	4925 	0.047324
39.25 	0.041243 	4922 	0.041005
39.27 	0.047658 	4910 	0.047061
39.29 	0.052234 	4901 	0.051159
39.31 	0.047297 	4884 	0.046818
39.33 	0.050294 	4931 	0.049462
39.35 	0.049037 	4935 	0.048207
39.37 	0.051735 	4929 	0.050903
39.39 	0.043011 	4929 	0.042179
39.41 	0.047252 	4931 	0.046896
39.43 	0.049057 	4933 	0.048582
39.45 	0.050761 	4925 	0.049572
39.47 	0.048345 	4923 	0.047512
39.49 	0.046219 	4933 	0.045863
39.51 	0.044679 	4924 	0.044203
39.53 	0.043469 	4923 	0.043231
39.55 	0.046961 	4919 	0.046961
39.57 	0.046422 	4933 	0.046185
39.59 	0.047638 	4912 	0.047281
39.61 	0.045501 	4923 	0.044906
39.63 	0.041447 	4922 	0.041328
39.65 	0.045067 	4926 	0.044472
39.67 	0.044576 	4913 	0.043622
39.69 	0.042514 	4916 	0.042276
39.71 	0.044740 	4895 	0.044261
39.73 	0.045029 	4908 	0.044670
39.75 	0.040584 	4928 	0.039633
39.77 	0.044580 	4935 	0.044342
39.79 	0.042428 	4926 	0.042071
39.81 	0.044449 	4927 	0.044330
39.83 	0.045399 	4934 	0.044806
39.85 	0.044043 	4927 	0.043449
39.87 	0.046904 	4925 	0.046190
39.89 	0.044183 	4934 	0.043708
39.91 	0.042259 	4922 	0.041783
39.93 	0.043954 	4937 	0.043242
39.95 	0.046185 	4915 	0.045589
39.97 	0.047281 	4928 	0.046924
39.99 	0.047445 	4932 	0.046614
40.01 	0.042700 	4918 	0.042343
40.03 	0.043019 	4928 	0.042663
40.05 	0.040472 	4917 	0.039757
40.07 	0.049360 	4923 	0.048408
40.09 	0.045159 	4916 	0.044424
40.11 	0.045972 	4916 	0.045615
40.13 	0.045343 	4896 	0.044984
40.15 	0.044169 	4913 	0.043811
40.17 	0.045049 	4928 	0.044573
40.19 	0.044431 	4929 	0.044074
40.21 	0.039514 	4935 	0.039039
40.23 	0.045823 	4932 	0.044992
40.25 	0.039837 	4920 	0.039123
40.27 	0.037675 	4937 	0.037319
40.29 	0.043434 	4927 	0.042721
40.31 	0.046771 	4939 	0.046178
40.33 	0.044404 	4932 	0.044048
40.35 	0.042285 	4919 	0.041690
40.37 	0.047880 	4929 	0.046929
40.39 	0.047455 	4931 	0.046386
40.41 	0.042030 	4925 	0.041674
40.43 	0.046526 	4922 	0.046169
40.45 	0.044598 	4933 	0.044004
40.47 	0.042090 	4918 	0.041852
40.49 	0.044255 	4926 	0.043898
40.51 	0.045510 	4922 	0.045153
40.53 	0.044142 	4916 	0.043427
40.55 	0.044621 	4908 	0.043905
40.57 	0.044376 	4890 	0.043897
40.59 	0.043549 	4937 	0.043074
40.61 	0.040122 	4935 	0.039409
40.63 	0.045030 	4930 	0.044793
40.65 	0.041928 	4937 	0.041454
40.67 	0.047242 	4932 	0.047005
40.69 	0.044359 	4937 	0.043766
40.71 	0.046229 	4932 	0.045516
40.73 	0.040601 	4926 	0.040006
40.75 	0.043399 	4931 	0.043043
40.77 	0.038469 	4939 	0.037876
40.79 	0.040617 	4924 	0.040142
40.81 	0.039668 	4941 	0.039312
40.83 	0.044237 	4928 	0.043643
40.85 	0.046101 	4924 	0.045744
40.87 	0.040584 	4928 	0.039990
40.89 	0.039140 	4931 	0.037814
40.91 	0.041032 	4923 	0.040913
40.93 	0.042967 	4934 	0.041899
40.95 	0.043965 	4913 	0.043250
40.97 	0.041024 	4924 	0.040667
40.99 	0.039399 	4924 	0.038923
41.01 	0.046010 	4912 	0.045652
41.03 	0.040367 	4905 	0.040248
41.05 	0.038290 	4936 	0.037578
41.07 	0.045639 	4930 	0.045045
41.09 	0.039482 	4939 	0.039126
41.11 	0.042351 	4935 	0.042232
41.13 	0.044368 	4936 	0.044012
41.15 	0.043918 	4941 	0.043563
41.17 	0.046615 	4934 	0.045666
41.19 	0.041988 	4930 	0.041631
41.21 	0.040510 	4937 	0.039917
41.23 	0.045758 	4939 	0.045402
41.25 	0.041760 	4933 	0.041166
41.27 	0.042588 	4931 	0.041994
41.29 	0.038352 	4928 	0.037996
41.31 	0.042773 	4933 	0.041823
41.33 	0.040510 	4937 	0.039443
41.35 	0.041312 	4938 	0.040838
41.37 	0.042242 	4924 	0.041766
41.39 	0.037705 	4933 	0.037349
41.41 	0.040195 	4926 	0.039838
41.43 	0.042605 	4929 	0.041773
41.45 	0.039072 	4914 	0.038834
41.47 	0.040804 	4926 	0.040209
41.49 	0.042723 	4892 	0.042004
41.51 	0.042915 	4940 	0.042322
41.53 	0.042071 	4944 	0.041834
41.55 	0.047619 	4935 	0.046432
41.57 	0.041287 	4941 	0.040813
41.59 	0.040138 	4933 	0.039900
41.61 	0.044216 	4953 	0.043506
41.63 	0.045160 	4938 	0.044804
41.65 	0.036924 	4929 	0.036924
41.67 	0.040486 	4940 	0.039893
41.69 	0.044471 	4947 	0.044116
41.71 	0.043778 	4934 	0.043540
41.73 	0.039506 	4936 	0.039031
41.75 	0.043822 	4929 	0.043109
41.77 	0.039668 	4941 	0.039431
41.79 	0.043487 	4944 	0.043132
41.81 	0.034643 	4936 	0.034287
41.83 	0.047281 	4928 	0.046805
41.85 	0.038874 	4939 	0.038400
41.87 	0.042148 	4935 	0.041554
41.89 	0.034867 	4933 	0.034630
41.91 	0.039911 	4936 	0.039674
41.93 	0.042579 	4932 	0.042460
41.95 	0.035287 	4931 	0.034812
41.97 	0.042328 	4914 	0.041851
41.99 	0.045260 	4905 	0.044782
42.01 	0.039053 	4942 	0.038342
42.03 	0.044138 	4939 	0.043545
42.05 	0.038166 	4952 	0.037457
42.07 	0.042333 	4937 	0.041859
42.09 	0.036985 	4948 	0.036629
42.11 	0.041658 	4945 	0.041303
42.13 	0.039636 	4945 	0.039162
42.15 	0.041515 	4938 	0.040803
42.17 	0.041277 	4918 	0.040424
42.19 	0.043602 	4908 	0.043125
42.21 	0.038972 	4901 	0.038733
42.23 	0.037204 	4892 	0.036725
42.25 	0.038249 	4889 	0.037890
42.27 	0.041239 	4874 	0.040999
42.29 	0.035780 	4863 	0.035539
42.31 	0.042430 	4855 	0.041827
42.33 	0.036202 	4834 	0.035838
42.35 	0.040099 	4838 	0.039494
42.37 	0.045135 	4830 	0.044164
42.39 	0.043297 	4804 	0.042931
42.41 	0.039134 	4804 	0.038768
42.43 	0.041528 	4792 	0.041039
42.45 	0.043551 	4776 	0.042447
42.47 	0.039454 	4765 	0.038840
42.49 	0.037985 	4765 	0.036982
42.51 	0.039848 	4743 	0.039725
42.53 	0.041455 	4728 	0.040960
42.55 	0.038445 	4708 	0.037823
42.57 	0.039958 	4730 	0.039958
42.59 	0.039966 	4729 	0.039718
42.61 	0.037383 	4708 	0.036761
42.63 	0.040348 	4709 	0.039851
42.65 	0.041409 	4685 	0.040784
42.67 	0.043553 	4684 	0.043302
42.69 	0.040864 	4674 	0.040488
42.71 	0.036672 	4663 	0.036420
42.73 	0.041810 	4640 	0.041053
42.75 	0.039853 	4617 	0.039091
42.77 	0.039348 	4600 	0.039220
42.79 	0.043867 	4582 	0.043484
42.81 	0.038580 	4562 	0.038194
42.83 	0.042989 	4536 	0.042344
42.85 	0.035115 	4528 	0.035115
42.87 	0.033118 	4499 	0.032858
42.89 	0.041741 	4480 	0.040957
42.91 	0.045557 	4456 	0.044899
42.93 	0.036212 	4446 	0.035817
42.95 	0.037364 	4416 	0.037099
42.97 	0.039764 	4401 	0.039497
42.99 	0.038997 	4385 	0.038596
43.01 	0.034151 	4363 	0.034151
43.03 	0.032079 	4333 	0.031403
43.05 	0.041618 	4325 	0.041212
43.07 	0.032123 	4296 	0.031714
43.09 	0.039925 	4283 	0.039789
43.11 	0.035253 	4255 	0.034427
43.13 	0.038471 	4237 	0.038332
43.15 	0.041132 	4206 	0.040575
43.17 	0.043073 	4179 	0.042512
43.19 	0.036719 	4194 	0.036300
43.21 	0.037152 	4172 	0.037012
43.23 	0.037554 	4154 	0.037131
43.25 	0.044982 	4135 	0.044274
43.27 	0.041900 	4105 	0.041472
43.29 	0.035122 	4100 	0.034550
43.31 	0.038980 	4079 	0.038693
43.33 	0.038509 	4051 	0.038364
43.35 	0.038194 	4032 	0.037759
43.37 	0.036862 	4015 	0.036278
43.39 	0.038231 	4002 	0.037938
43.41 	0.034995 	3972 	0.034553
43.43 	0.040152 	3960 	0.039856
43.45 	0.037611 	3935 	0.037462
43.47 	0.039276 	3921 	0.038678
43.49 	0.046446 	3897 	0.046145
43.51 	0.040495 	3877 	0.039740
43.53 	0.038830 	3863 	0.038527
43.55 	0.037449 	2964 	0.037054
43.57 	0.042002 	2238 	0.042002
43.59 	0.034937 	1746 	0.033930
43.61 	0.037010 	1351 	0.036576
43.63 	0.033966 	1001 	0.033381
43.65 	0.049491 	687 	0.049491
43.67 	0.039841 	502 	0.037507
43.69 	0.035422 	367 	0.035422
43.71 	0.025105 	239 	0.025105
43.73 	0.033333 	120 	0.033333
43.75 	0.000000 	16 	0.000000