File: Example_Data/25SC_s1_0013.001.dat
#F C:\frames\spec\25SC_s1_0013.001
#C title =s:13 frm:1 25SC_s1
#C wavelength =0.15406

#S 1  fr_average C:\frames\spec\25SC_s1_0013.001 C:\win32app\speccom\mask.axs chi 0 180 0 360 0.02
#C 2 theta =0.000000 to 180 deg
#C   q   =0.000000 to 81.568 nm^-1
#C  chi  =0.000000 to 360 deg
#C collumns:
#C  1 position (2theta or chi in degrees)
#C  2 average intensity (sum of all counts in the region divided with number of pixels)
#C  3 Number of pixels in region)
#C  4 error (sum of sqrt(intensity) for all pixels divided by number)
#N 4
#L TTh  Int  N_pix  Err
32.99 	0.049180 	61 	0.049180
33.01 	0.054983 	873 	0.054983
33.03 	0.058950 	1391 	0.058529
33.05 	0.061468 	1757 	0.060468
33.07 	0.063415 	2050 	0.061700
33.09 	0.057094 	2347 	0.055556
33.11 	0.068631 	2579 	0.066323
33.13 	0.064805 	2793 	0.063546
33.15 	0.057019 	2999 	0.056433
33.17 	0.060294 	3201 	0.059379
33.19 	0.055057 	3342 	0.054356
33.21 	0.055297 	3436 	0.054615
33.23 	0.057337 	3523 	0.056174
33.25 	0.054817 	3612 	0.053655
33.27 	0.055096 	3630 	0.054290
33.29 	0.056743 	3648 	0.055593
33.31 	0.057650 	3660 	0.057010
33.33 	0.058329 	3686 	0.057852
33.35 	0.053600 	3694 	0.052173
33.37 	0.062736 	3714 	0.061632
33.39 	0.054438 	3729 	0.052867
33.41 	0.059626 	3740 	0.058686
33.43 	0.065408 	3761 	0.064629
33.45 	0.059634 	3773 	0.059168
33.47 	0.056345 	3798 	0.055112
33.49 	0.060121 	3809 	0.058737
33.51 	0.061075 	3815 	0.059693
33.53 	0.063525 	3841 	0.062432
33.55 	0.060109 	3843 	0.059500
33.57 	0.055197 	3877 	0.053989
33.59 	0.059794 	3880 	0.058435
33.61 	0.064211 	3909 	0.062413
33.63 	0.058178 	3919 	0.057431
33.65 	0.056474 	3931 	0.055133
33.67 	0.065503 	3954 	0.064466
33.69 	0.059196 	3953 	0.057986
33.71 	0.065157 	3975 	0.064126
33.73 	0.057443 	4004 	0.056565
33.75 	0.057514 	3999 	0.056343
33.77 	0.054410 	4025 	0.053682
33.79 	0.054937 	4041 	0.054502
33.81 	0.059931 	4038 	0.058915
33.83 	0.056049 	4050 	0.055615
33.85 	0.064894 	4099 	0.063465
33.87 	0.061056 	4111 	0.059773
33.89 	0.048532 	4121 	0.047940
33.91 	0.055676 	4149 	0.054829
33.93 	0.059745 	4151 	0.058169
33.95 	0.057881 	4181 	0.056340
33.97 	0.056086 	4190 	0.055527
33.99 	0.065476 	4200 	0.065058
34.01 	0.062426 	4213 	0.061870
34.03 	0.056550 	4244 	0.055446
34.05 	0.058325 	4252 	0.057361
34.07 	0.055061 	4268 	0.054078
34.09 	0.061129 	4286 	0.060173
34.11 	0.060205 	4302 	0.059251
34.13 	0.053853 	4308 	0.053037
34.15 	0.049180 	4331 	0.048234
34.17 	0.053333 	4350 	0.052391
34.19 	0.060752 	4362 	0.059521
34.21 	0.055136 	4371 	0.054868
34.23 	0.059868 	4393 	0.058935
34.25 	0.059491 	4404 	0.058294
34.27 	0.061058 	4422 	0.059734
34.29 	0.062458 	4435 	0.062061
34.31 	0.052490 	4458 	0.052227
34.33 	0.061507 	4471 	0.060459
34.35 	0.053301 	4484 	0.052778
34.37 	0.056780 	4491 	0.055846
34.39 	0.053532 	4502 	0.052361
34.41 	0.058992 	4526 	0.057677
34.43 	0.051774 	4539 	0.051386
34.45 	0.061301 	4535 	0.060526
34.47 	0.056402 	4592 	0.055127
34.49 	0.058516 	4597 	0.057242
34.51 	0.064481 	4606 	0.063570
34.53 	0.061383 	4643 	0.059869
34.55 	0.051906 	4643 	0.051275
34.57 	0.064378 	4660 	0.063623
34.59 	0.055187 	4675 	0.054164
34.61 	0.053651 	4697 	0.052903
34.63 	0.053079 	4710 	0.052581
34.65 	0.057827 	4721 	0.057330
34.67 	0.051255 	4741 	0.050761
34.69 	0.050694 	4754 	0.049955
34.71 	0.052455 	4766 	0.052086
34.73 	0.052434 	4787 	0.051332
34.75 	0.055116 	4808 	0.054264
34.77 	0.058323 	4818 	0.057715
34.79 	0.066128 	4824 	0.064306
34.81 	0.054902 	4845 	0.054177
34.83 	0.058001 	4862 	0.057519
34.85 	0.060587 	4869 	0.059625
34.87 	0.049712 	4868 	0.049351
34.89 	0.057354 	4882 	0.056874
34.91 	0.053667 	4882 	0.052107
34.93 	0.052460 	4899 	0.051742
34.95 	0.060123 	4890 	0.059284
34.97 	0.058140 	4902 	0.057184
34.99 	0.057178 	4897 	0.056699
35.01 	0.051188 	4923 	0.050355
35.03 	0.061299 	4943 	0.060351
35.05 	0.055387 	4947 	0.054440
35.07 	0.053644 	4940 	0.053169
35.09 	0.059358 	4953 	0.058412
35.11 	0.055791 	4947 	0.055436
35.13 	0.058693 	4958 	0.057630
35.15 	0.052461 	4937 	0.051630
35.17 	0.057420 	4946 	0.056473
35.19 	0.061716 	4942 	0.059819
35.21 	0.053589 	4945 	0.052879
35.23 	0.064105 	4945 	0.062901
35.25 	0.057657 	4943 	0.057065
35.27 	0.064470 	4948 	0.062931
35.29 	0.062892 	4945 	0.061352
35.31 	0.061018 	4933 	0.059949
35.33 	0.061299 	4943 	0.059995
35.35 	0.055848 	4942 	0.054900
35.37 	0.056084 	4939 	0.055135
35.39 	0.062083 	4945 	0.061491
35.41 	0.060495 	4926 	0.059425
35.43 	0.065477 	4933 	0.064290
35.45 	0.052664 	4937 	0.051596
35.47 	0.058000 	4931 	0.056912
35.49 	0.055804 	4910 	0.055089
35.51 	0.068209 	4926 	0.067020
35.53 	0.062033 	4949 	0.060967
35.55 	0.063094 	4945 	0.062028
35.57 	0.060612 	4933 	0.059900
35.59 	0.056623 	4945 	0.055675
35.61 	0.058478 	4942 	0.058004
35.63 	0.058669 	4943 	0.058057
35.65 	0.052376 	4945 	0.051547
35.67 	0.057467 	4942 	0.056400
35.69 	0.060049 	4946 	0.058746
35.71 	0.060968 	4937 	0.059169
35.73 	0.056321 	4936 	0.055372
35.75 	0.057189 	4931 	0.055764
35.77 	0.053121 	4951 	0.052647
35.79 	0.058394 	4932 	0.057444
35.81 	0.059396 	4933 	0.058683
35.83 	0.059038 	4946 	0.058090
35.85 	0.055724 	4935 	0.054656
35.87 	0.052204 	4923 	0.051847
35.89 	0.060397 	4934 	0.058478
35.91 	0.057033 	4927 	0.056200
35.93 	0.057642 	4927 	0.055977
35.95 	0.061216 	4917 	0.060501
35.97 	0.063314 	4912 	0.062241
35.99 	0.059729 	4939 	0.059017
36.01 	0.061055 	4930 	0.060104
36.03 	0.061906 	4943 	0.060602
36.05 	0.064105 	4945 	0.063039
36.07 	0.055274 	4939 	0.054800
36.09 	0.053239 	4940 	0.052883
36.11 	0.051329 	4929 	0.050616
36.13 	0.061311 	4942 	0.060600
36.15 	0.056084 	4939 	0.054780
36.17 	0.060102 	4925 	0.059031
36.19 	0.055668 	4940 	0.055194
36.21 	0.060661 	4929 	0.059235
36.23 	0.065653 	4935 	0.064585
36.25 	0.056466 	4941 	0.055399
36.27 	0.055025 	4925 	0.053955
36.29 	0.054350 	4931 	0.053162
36.31 	0.066356 	4928 	0.065286
36.33 	0.065275 	4933 	0.064206
36.35 	0.062284 	4929 	0.060858
36.37 	0.057282 	4923 	0.055973
36.39 	0.060150 	4921 	0.059198
36.41 	0.059232 	4896 	0.058155
36.43 	0.059659 	4928 	0.058708
36.45 	0.060041 	4930 	0.058852
36.47 	0.058347 	4936 	0.057041
36.49 	0.052003 	4942 	0.051529
36.51 	0.058180 	4933 	0.057467
36.53 	0.056646 	4943 	0.055461
36.55 	0.058453 	4927 	0.057264
36.57 	0.057762 	4934 	0.056100
36.59 	0.059526 	4939 	0.058222
36.61 	0.058812 	4931 	0.057386
36.63 	0.057595 	4931 	0.056644
36.65 	0.059813 	4932 	0.058982
36.67 	0.062475 	4930 	0.061524
36.69 	0.061270 	4929 	0.060200
36.71 	0.062589 	4921 	0.061994
36.73 	0.057259 	4925 	0.056545
36.75 	0.066545 	4944 	0.064986
36.77 	0.063631 	4919 	0.062440
36.79 	0.060963 	4921 	0.060011
36.81 	0.058381 	4916 	0.057428
36.83 	0.061038 	4915 	0.060203
36.85 	0.063699 	4898 	0.062723
36.87 	0.063107 	4944 	0.062514
36.89 	0.066517 	4916 	0.065088
36.91 	0.056871 	4941 	0.056041
36.93 	0.062272 	4930 	0.060965
36.95 	0.061626 	4933 	0.059845
36.97 	0.058979 	4934 	0.057910
36.99 	0.067072 	4935 	0.066122
37.01 	0.062437 	4933 	0.061605
37.03 	0.058286 	4924 	0.057572
37.05 	0.059265 	4927 	0.057839
37.07 	0.057548 	4935 	0.056242
37.09 	0.053369 	4928 	0.053012
37.11 	0.066059 	4935 	0.064397
37.13 	0.057271 	4924 	0.056557
37.15 	0.061316 	4909 	0.060580
37.17 	0.060600 	4934 	0.058938
37.19 	0.057259 	4925 	0.056069
37.21 	0.058369 	4917 	0.056939
37.23 	0.056730 	4918 	0.055897
37.25 	0.054979 	4911 	0.054024
37.27 	0.057213 	4894 	0.056495
37.29 	0.054970 	4930 	0.054138
37.31 	0.054103 	4935 	0.052916
37.33 	0.052770 	4927 	0.051938
37.35 	0.062778 	4938 	0.062185
37.37 	0.056018 	4927 	0.055067
37.39 	0.056986 	4931 	0.056036
37.41 	0.057595 	4931 	0.056882
37.43 	0.055353 	4932 	0.054403
37.45 	0.059911 	4924 	0.059177
37.47 	0.054372 	4929 	0.053897
37.49 	0.054845 	4923 	0.053655
37.51 	0.051287 	4933 	0.050575
37.53 	0.057329 	4919 	0.056733
37.55 	0.060243 	4930 	0.059768
37.57 	0.059086 	4925 	0.058729
37.59 	0.054120 	4915 	0.053524
37.61 	0.052418 	4922 	0.051942
37.63 	0.048587 	4919 	0.047515
37.65 	0.057137 	4918 	0.056661
37.67 	0.051998 	4904 	0.051162
37.69 	0.059412 	4898 	0.058336
37.71 	0.056604 	4929 	0.056128
37.73 	0.056198 	4929 	0.055485
37.75 	0.057692 	4940 	0.056131
37.77 	0.060772 	4920 	0.060534
37.79 	0.058824 	4930 	0.057398
37.81 	0.055342 	4933 	0.054392
37.83 	0.054472 	4920 	0.053638
37.85 	0.054856 	4922 	0.053785
37.87 	0.058919 	4939 	0.057832
37.89 	0.059086 	4925 	0.057996
37.91 	0.056998 	4930 	0.056166
37.93 	0.053669 	4919 	0.052359
37.95 	0.053444 	4921 	0.052730
37.97 	0.051126 	4929 	0.050056
37.99 	0.053950 	4912 	0.053115
38.01 	0.055601 	4928 	0.054055
38.03 	0.055816 	4909 	0.055339
38.05 	0.055228 	4925 	0.054376
38.07 	0.055205 	4909 	0.054727
38.09 	0.054531 	4878 	0.053930
38.11 	0.057953 	4935 	0.056885
38.13 	0.052056 	4937 	0.050632
38.15 	0.058560 	4918 	0.057250
38.17 	0.056187 	4930 	0.055474
38.19 	0.056795 	4930 	0.055963
38.21 	0.049563 	4923 	0.048611
38.23 	0.058931 	4938 	0.057744
38.25 	0.053895 	4917 	0.052902
38.27 	0.057404 	4930 	0.056334
38.29 	0.058083 	4924 	0.056774
38.31 	0.060280 	4927 	0.058972
38.33 	0.056458 	4924 	0.055387
38.35 	0.054789 	4928 	0.054076
38.37 	0.066409 	4924 	0.065101
38.39 	0.060501 	4909 	0.059904
38.41 	0.054032 	4923 	0.053675
38.43 	0.061229 	4916 	0.060017
38.45 	0.068524 	4918 	0.067432
38.47 	0.063990 	4907 	0.062438
38.49 	0.063154 	4877 	0.061952
38.51 	0.065896 	4932 	0.064946
38.53 	0.069588 	4929 	0.068737
38.55 	0.071110 	4936 	0.069093
38.57 	0.066017 	4923 	0.064708
38.59 	0.066816 	4924 	0.065101
38.61 	0.074757 	4936 	0.072502
38.63 	0.072096 	4924 	0.070192
38.65 	0.073607 	4918 	0.072297
38.67 	0.076767 	4937 	0.075106
38.69 	0.070297 	4922 	0.068868
38.71 	0.069862 	4924 	0.068196
38.73 	0.070557 	4918 	0.068989
38.75 	0.080982 	4927 	0.079199
38.77 	0.074345 	4923 	0.072679
38.79 	0.071342 	4934 	0.070154
38.81 	0.073901 	4912 	0.072827
38.83 	0.076032 	4919 	0.074484
38.85 	0.075733 	4912 	0.073944
38.87 	0.070658 	4911 	0.069684
38.89 	0.064325 	4897 	0.062770
38.91 	0.064858 	4903 	0.063544
38.93 	0.062981 	4938 	0.061557
38.95 	0.055714 	4918 	0.054999
38.97 	0.061448 	4931 	0.060854
38.99 	0.057525 	4937 	0.056576
39.01 	0.047784 	4918 	0.047188
39.03 	0.050263 	4934 	0.049076
39.05 	0.052995 	4925 	0.052400
39.07 	0.053006 	4924 	0.052649
39.09 	0.055251 	4923 	0.054775
39.11 	0.062665 	4931 	0.061596
39.13 	0.054845 	4923 	0.053278
39.15 	0.045778 	4915 	0.045063
39.17 	0.053474 	4937 	0.052643
39.19 	0.047590 	4917 	0.046260
39.21 	0.053360 	4910 	0.053003
39.23 	0.051980 	4925 	0.051028
39.25 	0.050589 	4922 	0.050113
39.27 	0.051935 	4910 	0.051319
39.29 	0.048766 	4901 	0.047690
39.31 	0.044226 	4884 	0.043386
39.33 	0.048672 	4931 	0.047563
39.35 	0.040324 	4935 	0.039375
39.37 	0.044837 	4929 	0.044242
39.39 	0.047880 	4929 	0.047048
39.41 	0.050700 	4931 	0.050462
39.43 	0.048855 	4933 	0.048617
39.45 	0.043858 	4925 	0.043382
39.47 	0.048141 	4923 	0.047546
39.49 	0.048247 	4933 	0.047297
39.51 	0.046913 	4924 	0.046080
39.53 	0.044891 	4923 	0.044415
39.55 	0.045131 	4919 	0.044655
39.57 	0.043787 	4933 	0.043549
39.59 	0.046213 	4912 	0.045736
39.61 	0.050782 	4923 	0.049830
39.63 	0.044494 	4922 	0.043780
39.65 	0.052781 	4926 	0.050839
39.67 	0.051292 	4913 	0.050219
39.69 	0.045362 	4916 	0.044766
39.71 	0.040449 	4895 	0.040090
39.73 	0.049104 	4908 	0.048387
39.75 	0.041802 	4928 	0.041564
39.77 	0.046809 	4935 	0.045978
39.79 	0.046691 	4926 	0.045978
39.81 	0.047087 	4927 	0.046017
39.83 	0.042359 	4934 	0.042003
39.85 	0.043028 	4927 	0.042909
39.87 	0.040812 	4925 	0.040574
39.89 	0.046007 	4934 	0.045532
39.91 	0.040024 	4922 	0.040024
39.93 	0.043144 	4937 	0.042669
39.95 	0.046592 	4915 	0.045877
39.97 	0.045860 	4928 	0.045128
39.99 	0.043796 	4932 	0.043083
40.01 	0.046970 	4918 	0.046494
40.03 	0.045860 	4928 	0.045365
40.05 	0.042099 	4917 	0.041622
40.07 	0.040829 	4923 	0.040353
40.09 	0.043735 	4916 	0.043258
40.11 	0.048617 	4916 	0.047663
40.13 	0.045752 	4896 	0.044675
40.15 	0.045186 	4913 	0.044232
40.17 	0.044237 	4928 	0.043762
40.19 	0.040982 	4929 	0.040863
40.21 	0.049645 	4935 	0.049052
40.23 	0.047040 	4932 	0.046802
40.25 	0.042683 	4920 	0.041645
40.27 	0.042131 	4937 	0.041162
40.29 	0.043840 	4927 	0.043127
40.31 	0.045556 	4939 	0.044963
40.33 	0.045823 	4932 	0.044873
40.35 	0.040049 	4919 	0.039334
40.37 	0.049300 	4929 	0.048468
40.39 	0.040154 	4931 	0.039679
40.41 	0.045888 	4925 	0.044699
40.43 	0.044900 	4922 	0.044186
40.45 	0.046017 	4933 	0.045423
40.47 	0.039650 	4918 	0.039531
40.49 	0.044864 	4926 	0.044150
40.51 	0.036367 	4922 	0.036248
40.53 	0.045566 	4916 	0.044970
40.55 	0.040954 	4908 	0.040595
40.57 	0.041104 	4890 	0.040745
40.59 	0.044967 	4937 	0.044235
40.61 	0.042958 	4935 	0.042484
40.63 	0.046653 	4930 	0.046178
40.65 	0.043954 	4937 	0.043361
40.67 	0.041565 	4932 	0.041209
40.69 	0.040105 	4937 	0.039631
40.71 	0.040957 	4932 	0.040244
40.73 	0.047706 	4926 	0.046874
40.75 	0.038937 	4931 	0.038343
40.77 	0.044341 	4939 	0.043629
40.79 	0.042039 	4924 	0.041306
40.81 	0.039263 	4941 	0.038908
40.83 	0.045455 	4928 	0.044860
40.85 	0.037774 	4924 	0.037417
40.87 	0.037541 	4928 	0.037184
40.89 	0.040560 	4931 	0.040203
40.91 	0.046923 	4923 	0.046447
40.93 	0.042359 	4934 	0.041647
40.95 	0.038469 	4913 	0.037873
40.97 	0.049147 	4924 	0.048790
40.99 	0.044882 	4924 	0.044406
41.01 	0.042549 	4912 	0.042072
41.03 	0.040367 	4905 	0.039889
41.05 	0.044165 	4936 	0.043335
41.07 	0.043408 	4930 	0.042932
41.09 	0.041304 	4939 	0.040711
41.11 	0.042958 	4935 	0.042484
41.13 	0.041329 	4936 	0.040617
41.15 	0.040478 	4941 	0.040241
41.17 	0.040738 	4934 	0.039313
41.19 	0.044422 	4930 	0.043709
41.21 	0.047600 	4937 	0.047006
41.23 	0.044138 	4939 	0.043308
41.25 	0.040746 	4933 	0.040390
41.27 	0.048672 	4931 	0.047959
41.29 	0.045860 	4928 	0.045623
41.31 	0.043584 	4933 	0.042990
41.33 	0.045777 	4937 	0.045302
41.35 	0.044147 	4938 	0.043554
41.37 	0.041227 	4924 	0.040632
41.39 	0.040746 	4933 	0.040034
41.41 	0.042428 	4926 	0.041833
41.43 	0.038142 	4929 	0.037785
41.45 	0.046805 	4914 	0.045851
41.47 	0.041819 	4926 	0.041343
41.49 	0.038021 	4892 	0.037423
41.51 	0.040081 	4940 	0.039132
41.53 	0.032767 	4944 	0.032175
41.55 	0.042148 	4935 	0.041317
41.57 	0.038656 	4941 	0.037708
41.59 	0.038719 	4933 	0.038244
41.61 	0.036544 	4953 	0.036307
41.63 	0.037667 	4938 	0.037193
41.65 	0.041388 	4929 	0.041150
41.67 	0.039676 	4940 	0.039182
41.69 	0.044067 	4947 	0.043238
41.71 	0.041346 	4934 	0.040871
41.73 	0.034846 	4936 	0.034371
41.75 	0.044025 	4929 	0.043550
41.77 	0.040073 	4941 	0.039836
41.79 	0.038633 	4944 	0.037803
41.81 	0.035049 	4936 	0.034930
41.83 	0.041193 	4928 	0.040342
41.85 	0.043531 	4939 	0.042543
41.87 	0.042553 	4935 	0.042078
41.89 	0.043381 	4933 	0.043025
41.91 	0.037885 	4936 	0.037410
41.93 	0.039943 	4932 	0.039943
41.95 	0.048063 	4931 	0.047331
41.97 	0.044567 	4914 	0.044090
41.99 	0.037920 	4905 	0.037920
42.01 	0.039458 	4942 	0.039102
42.03 	0.040089 	4939 	0.039852
42.05 	0.039378 	4952 	0.038905
42.07 	0.043144 	4937 	0.042076
42.09 	0.044462 	4948 	0.044107
42.11 	0.041456 	4945 	0.041101
42.13 	0.037816 	4945 	0.037224
42.15 	0.037262 	4938 	0.036906
42.17 	0.039040 	4918 	0.038802
42.19 	0.042991 	4908 	0.042633
42.21 	0.035503 	4901 	0.035144
42.23 	0.043336 	4892 	0.042737
42.25 	0.035386 	4889 	0.034767
42.27 	0.039188 	4874 	0.038707
42.29 	0.044623 	4863 	0.044261
42.31 	0.042225 	4855 	0.041239
42.33 	0.038064 	4834 	0.037458
42.35 	0.041339 	4838 	0.040613
42.37 	0.042857 	4830 	0.042857
42.39 	0.039134 	4804 	0.038524
42.41 	0.040799 	4804 	0.040068
42.43 	0.043406 	4792 	0.042794
42.45 	0.041457 	4776 	0.041212
42.47 	0.033158 	4765 	0.032790
42.49 	0.036936 	4765 	0.036813
42.51 	0.039848 	4743 	0.039087
42.53 	0.042090 	4728 	0.041346
42.55 	0.032923 	4708 	0.032798
42.57 	0.040169 	4730 	0.039921
42.59 	0.039332 	4729 	0.038960
42.61 	0.040144 	4708 	0.039771
42.63 	0.037588 	4709 	0.037214
42.65 	0.040555 	4685 	0.040430
42.67 	0.040564 	4684 	0.039813
42.69 	0.039367 	4674 	0.039116
42.71 	0.040103 	4663 	0.039475
42.73 	0.040733 	4640 	0.040480
42.75 	0.042235 	4617 	0.041855
42.77 	0.038043 	4600 	0.037513
42.79 	0.039284 	4582 	0.038773
42.81 	0.039456 	4562 	0.038943
42.83 	0.037478 	4536 	0.036961
42.85 	0.041299 	4528 	0.040781
42.87 	0.040676 	4499 	0.040546
42.89 	0.038393 	4480 	0.037478
42.91 	0.043312 	4456 	0.042392
42.93 	0.035987 	4446 	0.035724
42.95 	0.035100 	4416 	0.034702
42.97 	0.035219 	4401 	0.034687
42.99 	0.043330 	4385 	0.042795
43.01 	0.041256 	4363 	0.040987
43.03 	0.038772 	4333 	0.038367
43.05 	0.037225 	4325 	0.036684
43.07 	0.039339 	4296 	0.038793
43.09 	0.037590 	4283 	0.037180
43.11 	0.045123 	4255 	0.044435
43.13 	0.038471 	4237 	0.038056
43.15 	0.041607 	4206 	0.041329
43.17 	0.040440 	4179 	0.040160
43.19 	0.041488 	4194 	0.040929
43.21 	0.034276 	4172 	0.033434
43.23 	0.039239 	4154 	0.038534
43.25 	0.034825 	4135 	0.034683
43.27 	0.046285 	4105 	0.046000
43.29 	0.036829 	4100 	0.036401
43.31 	0.037019 	4079 	0.036157
43.33 	0.040978 	4051 	0.040833
43.35 	0.037946 	4032 	0.037365
43.37 	0.036115 	4015 	0.036115
43.39 	0.042229 	4002 	0.041936
43.41 	0.036757 	3972 	0.036610
43.43 	0.035859 	3960 	0.035711
43.45 	0.039390 	3935 	0.038646
43.47 	0.033665 	3921 	0.033665
43.49 	0.040801 	3897 	0.039899
43.51 	0.042817 	3877 	0.042212
43.53 	0.040642 	3863 	0.040187
43.55 	0.039474 	2964 	0.038683
43.57 	0.034406 	2238 	0.033882
43.59 	0.038373 	1746 	0.038038
43.61 	0.037750 	1351 	0.036883
43.63 	0.027972 	1001 	0.027972
43.65 	0.030568 	687 	0.029715
43.67 	0.035857 	502 	0.035857
43.69 	0.040872 	367 	0.039276
43.71 	0.046025 	239 	0.043574
43.73 	0.050000 	120 	0.050000
43.75 	0.000000 	16 	0.000000