File: Example_Data/25SC_s1_0033.001.dat
#F C:\frames\spec\25SC_s1_0033.001
#C title =s:33 frm:1 25SC_s1
#C wavelength =0.15406

#S 1  fr_average C:\frames\spec\25SC_s1_0033.001 C:\win32app\speccom\mask.axs chi 0 180 0 360 0.02
#C 2 theta =0.000000 to 180 deg
#C   q   =0.000000 to 81.568 nm^-1
#C  chi  =0.000000 to 360 deg
#C collumns:
#C  1 position (2theta or chi in degrees)
#C  2 average intensity (sum of all counts in the region divided with number of pixels)
#C  3 Number of pixels in region)
#C  4 error (sum of sqrt(intensity) for all pixels divided by number)
#N 4
#L TTh  Int  N_pix  Err
32.99 	0.081967 	61 	0.081967
33.01 	0.053837 	873 	0.052495
33.03 	0.058231 	1391 	0.057810
33.05 	0.070575 	1757 	0.070241
33.07 	0.060976 	2050 	0.060690
33.09 	0.065616 	2347 	0.063619
33.11 	0.055836 	2579 	0.055836
33.13 	0.065521 	2793 	0.063843
33.15 	0.057019 	2999 	0.055652
33.17 	0.065292 	3201 	0.064194
33.19 	0.057750 	3342 	0.056698
33.21 	0.057334 	3436 	0.056311
33.23 	0.059608 	3523 	0.058583
33.25 	0.056202 	3612 	0.055391
33.27 	0.064187 	3630 	0.063219
33.29 	0.053180 	3648 	0.052538
33.31 	0.061475 	3660 	0.060515
33.33 	0.060228 	3686 	0.059115
33.35 	0.056037 	3694 	0.055403
33.37 	0.057351 	3714 	0.056404
33.39 	0.061679 	3729 	0.060736
33.41 	0.062834 	3740 	0.061581
33.43 	0.050784 	3761 	0.050006
33.45 	0.054068 	3773 	0.054068
33.47 	0.057925 	3798 	0.056357
33.49 	0.053557 	3809 	0.052788
33.51 	0.054522 	3815 	0.053140
33.53 	0.065868 	3841 	0.064496
33.55 	0.058288 	3843 	0.056916
33.57 	0.056745 	3877 	0.056141
33.59 	0.059536 	3880 	0.058177
33.61 	0.062932 	3909 	0.061708
33.63 	0.059709 	3919 	0.058214
33.65 	0.057492 	3931 	0.056449
33.67 	0.061963 	3954 	0.060777
33.69 	0.059449 	3953 	0.058411
33.71 	0.056604 	3975 	0.055425
33.73 	0.059441 	4004 	0.058709
33.75 	0.060765 	3999 	0.059716
33.77 	0.053665 	4025 	0.053228
33.79 	0.056917 	4041 	0.056047
33.81 	0.057949 	4038 	0.057079
33.83 	0.060741 	4050 	0.059294
33.85 	0.050988 	4099 	0.050131
33.87 	0.058866 	4111 	0.057727
33.89 	0.053385 	4121 	0.052532
33.91 	0.060979 	4149 	0.060131
33.93 	0.056613 	4151 	0.055625
33.95 	0.057403 	4181 	0.056422
33.97 	0.054893 	4190 	0.054171
33.99 	0.057619 	4200 	0.056224
34.01 	0.055780 	4213 	0.054806
34.03 	0.054430 	4244 	0.053326
34.05 	0.055738 	4252 	0.054774
34.07 	0.055061 	4268 	0.054375
34.09 	0.056930 	4286 	0.055836
34.11 	0.057183 	4302 	0.056502
34.13 	0.059424 	4308 	0.058608
34.15 	0.054029 	4331 	0.053488
34.17 	0.054713 	4350 	0.054578
34.19 	0.064420 	4362 	0.063346
34.21 	0.061313 	4371 	0.059973
34.23 	0.055771 	4393 	0.054837
34.25 	0.049046 	4404 	0.048115
34.27 	0.055631 	4422 	0.054439
34.29 	0.056595 	4435 	0.055671
34.31 	0.057873 	4458 	0.056822
34.33 	0.057258 	4471 	0.056057
34.35 	0.061998 	4484 	0.060822
34.37 	0.058784 	4491 	0.058262
34.39 	0.056641 	4502 	0.055861
34.41 	0.060097 	4526 	0.059062
34.43 	0.057502 	4539 	0.055566
34.45 	0.052481 	4535 	0.051577
34.47 	0.056838 	4592 	0.055817
34.49 	0.058299 	4597 	0.057004
34.51 	0.061007 	4606 	0.060117
34.53 	0.059660 	4643 	0.057999
34.55 	0.057075 	4643 	0.056066
34.57 	0.051931 	4660 	0.051282
34.59 	0.055829 	4675 	0.054826
34.61 	0.056419 	4697 	0.055421
34.63 	0.051380 	4710 	0.050136
34.65 	0.054649 	4721 	0.054277
34.67 	0.061801 	4741 	0.061060
34.69 	0.059739 	4754 	0.058630
34.71 	0.052665 	4766 	0.052296
34.73 	0.054940 	4787 	0.053717
34.75 	0.055324 	4808 	0.054959
34.77 	0.057078 	4818 	0.055983
34.79 	0.057007 	4824 	0.056157
34.81 	0.056347 	4845 	0.054997
34.83 	0.056767 	4862 	0.055422
34.85 	0.056685 	4869 	0.055482
34.87 	0.048480 	4868 	0.047878
34.89 	0.056534 	4882 	0.055334
34.91 	0.053871 	4882 	0.052911
34.93 	0.053072 	4899 	0.052594
34.95 	0.053988 	4890 	0.053509
34.97 	0.054876 	4902 	0.053800
34.99 	0.056974 	4897 	0.056615
35.01 	0.060126 	4923 	0.058936
35.03 	0.055837 	4943 	0.054770
35.05 	0.055589 	4947 	0.054879
35.07 	0.053644 	4940 	0.052577
35.09 	0.061377 	4953 	0.060175
35.11 	0.059834 	4947 	0.058769
35.13 	0.052441 	4958 	0.051377
35.15 	0.057930 	4937 	0.056625
35.17 	0.051557 	4946 	0.050491
35.19 	0.053420 	4942 	0.052471
35.21 	0.058038 	4945 	0.057209
35.23 	0.058038 	4945 	0.057091
35.25 	0.051588 	4943 	0.050403
35.27 	0.060631 	4948 	0.059092
35.29 	0.051769 	4945 	0.051296
35.31 	0.052301 	4933 	0.051470
35.33 	0.056443 	4943 	0.054784
35.35 	0.062930 	4942 	0.061982
35.37 	0.056287 	4939 	0.055812
35.39 	0.057230 	4945 	0.055808
35.41 	0.057044 	4926 	0.056331
35.43 	0.052504 	4933 	0.051435
35.45 	0.060158 	4937 	0.059189
35.47 	0.052119 	4931 	0.051525
35.49 	0.054786 	4910 	0.053812
35.51 	0.058059 	4926 	0.056989
35.53 	0.056981 	4949 	0.055541
35.55 	0.058443 	4945 	0.057614
35.57 	0.058180 	4933 	0.057348
35.59 	0.055005 	4945 	0.054413
35.61 	0.055241 	4942 	0.054055
35.63 	0.057455 	4943 	0.056369
35.65 	0.054803 	4945 	0.054092
35.67 	0.055848 	4942 	0.055137
35.69 	0.059846 	4946 	0.058544
35.71 	0.057322 	4937 	0.055642
35.73 	0.061183 	4936 	0.060234
35.75 	0.058812 	4931 	0.057742
35.77 	0.057968 	4951 	0.056548
35.79 	0.054947 	4932 	0.054710
35.81 	0.057977 	4933 	0.057502
35.83 	0.054994 	4946 	0.054283
35.85 	0.053901 	4935 	0.053070
35.87 	0.054641 	4923 	0.053809
35.89 	0.058776 	4934 	0.057945
35.91 	0.055815 	4927 	0.054725
35.93 	0.054191 	4927 	0.052883
35.95 	0.060199 	4917 	0.058770
35.97 	0.054967 	4912 	0.054013
35.99 	0.064183 	4939 	0.062997
36.01 	0.053144 	4930 	0.052550
36.03 	0.049363 	4943 	0.048514
36.05 	0.058443 	4945 	0.057021
36.07 	0.058919 	4939 	0.058326
36.09 	0.058704 	4940 	0.057874
36.11 	0.054981 	4929 	0.053911
36.13 	0.057467 	4942 	0.056518
36.15 	0.054060 	4939 	0.053704
36.17 	0.049137 	4925 	0.048780
36.19 	0.056478 	4940 	0.055766
36.21 	0.051329 	4929 	0.050616
36.23 	0.055927 	4935 	0.054859
36.25 	0.059502 	4941 	0.058791
36.27 	0.061929 	4925 	0.061453
36.29 	0.055972 	4931 	0.054903
36.31 	0.053774 	4928 	0.052942
36.33 	0.056558 	4933 	0.055232
36.35 	0.054372 	4929 	0.053639
36.37 	0.057688 	4923 	0.056955
36.39 	0.056899 	4921 	0.055590
36.41 	0.055147 	4896 	0.054190
36.43 	0.060065 	4928 	0.058995
36.45 	0.054564 	4930 	0.053970
36.47 	0.055511 	4936 	0.054561
36.49 	0.052408 	4942 	0.051578
36.51 	0.056355 	4933 	0.055168
36.53 	0.053004 	4943 	0.052293
36.55 	0.055815 	4927 	0.055339
36.57 	0.056141 	4934 	0.055073
36.59 	0.055477 	4939 	0.054409
36.61 	0.057392 	4931 	0.055947
36.63 	0.055770 	4931 	0.055176
36.65 	0.056164 	4932 	0.054957
36.67 	0.061258 	4930 	0.059951
36.69 	0.056401 	4929 	0.055807
36.71 	0.058525 	4921 	0.057810
36.73 	0.060305 	4925 	0.058996
36.75 	0.051578 	4944 	0.050630
36.77 	0.051840 	4919 	0.051125
36.79 	0.055477 	4921 	0.054167
36.81 	0.055330 	4916 	0.053900
36.83 	0.056155 	4915 	0.055082
36.85 	0.053287 	4898 	0.052569
36.87 	0.056837 	4944 	0.056126
36.89 	0.053499 	4916 	0.052883
36.91 	0.055454 	4941 	0.055099
36.93 	0.051521 	4930 	0.050927
36.95 	0.052504 	4933 	0.051554
36.97 	0.050466 	4934 	0.049991
36.99 	0.055117 	4935 	0.054167
37.01 	0.050071 	4933 	0.049596
37.03 	0.053209 	4924 	0.052495
37.05 	0.051553 	4927 	0.050245
37.07 	0.054914 	4935 	0.054439
37.09 	0.054180 	4928 	0.053229
37.11 	0.052077 	4935 	0.051246
37.13 	0.057067 	4924 	0.055620
37.15 	0.047056 	4909 	0.046579
37.17 	0.055736 	4934 	0.054786
37.19 	0.058477 	4925 	0.057506
37.21 	0.056945 	4917 	0.055516
37.23 	0.047377 	4918 	0.046424
37.25 	0.049277 	4911 	0.048681
37.27 	0.048427 	4894 	0.048068
37.29 	0.061460 	4930 	0.060035
37.31 	0.048835 	4935 	0.048123
37.33 	0.056830 	4927 	0.055641
37.35 	0.055488 	4938 	0.054401
37.37 	0.053176 	4927 	0.052225
37.39 	0.056784 	4931 	0.055596
37.41 	0.058000 	4931 	0.057050
37.43 	0.051095 	4932 	0.050620
37.45 	0.054427 	4924 	0.053476
37.47 	0.055184 	4929 	0.054332
37.49 	0.055251 	4923 	0.054299
37.51 	0.059396 	4933 	0.058327
37.53 	0.055092 	4919 	0.054497
37.55 	0.053550 	4930 	0.052480
37.57 	0.057259 	4925 	0.056188
37.59 	0.050051 	4915 	0.049078
37.61 	0.046932 	4922 	0.045980
37.63 	0.054686 	4919 	0.053614
37.65 	0.058967 	4918 	0.057419
37.67 	0.056077 	4904 	0.055360
37.69 	0.048795 	4898 	0.047460
37.71 	0.046054 	4929 	0.045816
37.73 	0.049909 	4929 	0.049196
37.75 	0.048583 	4940 	0.047634
37.77 	0.053659 	4920 	0.052944
37.79 	0.058621 	4930 	0.057670
37.81 	0.058585 	4933 	0.057873
37.83 	0.051220 	4920 	0.049910
37.85 	0.050386 	4922 	0.049553
37.87 	0.052035 	4939 	0.051442
37.89 	0.053604 	4925 	0.052990
37.91 	0.053347 	4930 	0.052040
37.93 	0.052043 	4919 	0.050971
37.95 	0.050193 	4921 	0.049836
37.97 	0.051329 	4929 	0.050121
37.99 	0.059446 	4912 	0.058115
38.01 	0.052557 	4928 	0.051844
38.03 	0.059483 	4909 	0.058647
38.05 	0.056041 	4925 	0.054613
38.07 	0.053575 	4909 	0.052978
38.09 	0.052481 	4878 	0.051880
38.11 	0.052077 	4935 	0.050752
38.13 	0.054487 	4937 	0.054012
38.15 	0.051037 	4918 	0.050918
38.17 	0.058824 	4930 	0.057992
38.19 	0.051927 	4930 	0.050976
38.21 	0.055454 	4923 	0.054026
38.23 	0.053665 	4938 	0.052716
38.25 	0.060199 	4917 	0.059365
38.27 	0.060041 	4930 	0.059209
38.29 	0.065597 	4924 	0.064051
38.31 	0.059671 	4927 	0.058720
38.33 	0.061942 	4924 	0.060633
38.35 	0.069805 	4928 	0.067646
38.37 	0.065394 	4924 	0.063847
38.39 	0.075372 	4909 	0.074178
38.41 	0.063985 	4923 	0.062657
38.43 	0.066111 	4916 	0.064919
38.45 	0.059984 	4918 	0.058674
38.47 	0.067047 	4907 	0.065973
38.49 	0.069305 	4877 	0.067743
38.51 	0.068735 	4932 	0.067547
38.53 	0.069994 	4929 	0.068211
38.55 	0.074149 	4936 	0.072488
38.57 	0.069876 	4923 	0.068924
38.59 	0.071080 	4924 	0.069534
38.61 	0.065843 	4936 	0.064419
38.63 	0.069659 	4924 	0.068707
38.65 	0.061610 	4918 	0.060519
38.67 	0.064209 	4937 	0.063378
38.69 	0.065624 	4922 	0.063819
38.71 	0.063160 	4924 	0.061613
38.73 	0.057747 	4918 	0.057152
38.75 	0.063325 	4927 	0.061640
38.77 	0.053829 	4923 	0.052243
38.79 	0.064856 	4934 	0.063313
38.81 	0.063722 	4912 	0.062648
38.83 	0.050010 	4919 	0.049177
38.85 	0.055578 	4912 	0.054743
38.87 	0.050906 	4911 	0.049952
38.89 	0.051256 	4897 	0.049581
38.91 	0.045686 	4903 	0.044731
38.93 	0.050223 	4938 	0.049274
38.95 	0.050224 	4918 	0.049747
38.97 	0.049686 	4931 	0.048854
38.99 	0.048613 	4937 	0.047426
39.01 	0.051240 	4918 	0.050387
39.03 	0.048845 	4934 	0.048607
39.05 	0.045482 	4925 	0.044769
39.07 	0.046304 	4924 	0.045570
39.09 	0.053016 	4923 	0.052422
39.11 	0.044818 	4931 	0.043987
39.13 	0.048751 	4923 	0.048275
39.15 	0.049644 	4915 	0.048810
39.17 	0.045979 	4937 	0.045386
39.19 	0.044539 	4917 	0.043825
39.21 	0.041548 	4910 	0.041190
39.23 	0.044873 	4925 	0.044397
39.25 	0.045510 	4922 	0.045153
39.27 	0.043992 	4910 	0.043157
39.29 	0.045093 	4901 	0.044376
39.31 	0.049140 	4884 	0.048540
39.33 	0.043399 	4931 	0.042924
39.35 	0.047011 	4935 	0.046062
39.37 	0.045242 	4929 	0.044648
39.39 	0.040373 	4929 	0.039898
39.41 	0.043805 	4931 	0.043329
39.43 	0.043787 	4933 	0.043074
39.45 	0.050152 	4925 	0.049795
39.47 	0.048345 	4923 	0.047750
39.49 	0.042976 	4933 	0.042738
39.51 	0.044273 	4924 	0.044035
39.53 	0.047938 	4923 	0.047819
39.55 	0.041065 	4919 	0.040827
39.57 	0.040949 	4933 	0.040711
39.59 	0.050489 	4912 	0.049515
39.61 	0.040626 	4923 	0.040507
39.63 	0.041650 	4922 	0.041293
39.65 	0.044864 	4926 	0.044269
39.67 	0.047425 	4913 	0.047187
39.69 	0.049227 	4916 	0.048989
39.71 	0.048212 	4895 	0.047734
39.73 	0.042380 	4908 	0.041544
39.75 	0.042411 	4928 	0.042173
39.77 	0.043161 	4935 	0.042805
39.79 	0.049736 	4926 	0.049023
39.81 	0.046479 	4927 	0.046122
39.83 	0.046210 	4934 	0.045498
39.85 	0.038969 	4927 	0.038493
39.87 	0.044264 	4925 	0.043788
39.89 	0.042562 	4934 	0.041968
39.91 	0.043275 	4922 	0.042680
39.93 	0.044561 	4937 	0.043731
39.95 	0.040692 	4915 	0.040453
39.97 	0.040990 	4928 	0.040158
39.99 	0.041363 	4932 	0.040887
40.01 	0.045140 	4918 	0.044664
40.03 	0.048093 	4928 	0.047617
40.05 	0.043929 	4917 	0.043453
40.07 	0.047938 	4923 	0.047700
40.09 	0.041701 	4916 	0.041581
40.11 	0.046786 	4916 	0.046071
40.13 	0.042484 	4896 	0.041766
40.15 	0.042540 	4913 	0.042063
40.17 	0.045657 	4928 	0.044825
40.19 	0.041591 	4929 	0.041234
40.21 	0.037082 	4935 	0.036489
40.23 	0.041160 	4932 	0.040803
40.25 	0.044919 	4920 	0.044562
40.27 	0.046790 	4937 	0.046671
40.29 	0.044652 	4927 	0.044057
40.31 	0.039482 	4939 	0.039244
40.33 	0.044201 	4932 	0.043964
40.35 	0.043708 	4919 	0.043113
40.37 	0.037533 	4929 	0.037176
40.39 	0.041168 	4931 	0.041049
40.41 	0.046701 	4925 	0.045868
40.43 	0.042259 	4922 	0.041069
40.45 	0.041760 	4933 	0.040810
40.47 	0.042904 	4918 	0.042665
40.49 	0.038977 	4926 	0.038363
40.51 	0.040634 	4922 	0.040396
40.53 	0.038853 	4916 	0.038495
40.55 	0.036267 	4908 	0.035790
40.57 	0.045399 	4890 	0.044560
40.59 	0.038687 	4937 	0.037857
40.61 	0.046606 	4935 	0.046012
40.63 	0.046653 	4930 	0.045703
40.65 	0.037877 	4937 	0.037640
40.67 	0.036294 	4932 	0.035680
40.69 	0.036459 	4937 	0.036103
40.71 	0.040754 	4932 	0.040517
40.73 	0.042022 	4926 	0.041408
40.75 	0.042588 	4931 	0.042113
40.77 	0.040696 	4939 	0.040341
40.79 	0.037368 	4924 	0.037011
40.81 	0.038049 	4941 	0.037338
40.83 	0.040990 	4928 	0.040871
40.85 	0.039196 	4924 	0.038839
40.87 	0.038961 	4928 	0.038723
40.89 	0.038735 	4931 	0.038378
40.91 	0.037579 	4923 	0.037103
40.93 	0.037292 	4934 	0.036699
40.95 	0.041319 	4913 	0.041080
40.97 	0.041836 	4924 	0.041003
40.99 	0.038790 	4924 	0.038552
41.01 	0.040717 	4912 	0.040359
41.03 	0.035882 	4905 	0.035285
41.05 	0.037682 	4936 	0.037326
41.07 	0.040974 	4930 	0.040498
41.09 	0.039279 	4939 	0.039042
41.11 	0.038298 	4935 	0.037586
41.13 	0.041734 	4936 	0.041497
41.15 	0.036632 	4941 	0.036158
41.17 	0.036887 	4934 	0.036649
41.19 	0.043002 	4930 	0.042289
41.21 	0.038890 	4937 	0.038534
41.23 	0.035230 	4939 	0.034637
41.25 	0.042368 	4933 	0.041893
41.27 	0.039140 	4931 	0.038883
41.29 	0.038758 	4928 	0.038402
41.31 	0.039327 	4933 	0.038852
41.33 	0.043144 	4937 	0.042412
41.35 	0.040097 	4938 	0.039504
41.37 	0.044273 	4924 	0.043678
41.39 	0.040949 	4933 	0.040592
41.41 	0.037962 	4926 	0.037486
41.43 	0.040373 	4929 	0.039660
41.45 	0.041718 	4914 	0.041479
41.47 	0.039383 	4926 	0.038749
41.49 	0.034955 	4892 	0.034716
41.51 	0.038866 	4940 	0.038155
41.53 	0.038835 	4944 	0.038243
41.55 	0.039108 	4935 	0.038515
41.57 	0.042097 	4941 	0.041148
41.59 	0.037908 	4933 	0.037057
41.61 	0.040581 	4953 	0.040345
41.63 	0.038882 	4938 	0.038526
41.65 	0.038750 	4929 	0.038394
41.67 	0.039069 	4940 	0.038950
41.69 	0.038407 	4947 	0.037933
41.71 	0.037495 	4934 	0.037139
41.73 	0.039708 	4936 	0.039234
41.75 	0.043417 	4929 	0.042822
41.77 	0.039668 	4941 	0.039312
41.79 	0.043487 	4944 	0.043250
41.81 	0.037480 	4936 	0.037124
41.83 	0.036932 	4928 	0.036694
41.85 	0.038064 	4939 	0.037471
41.87 	0.041743 	4935 	0.041505
41.89 	0.040746 	4933 	0.039796
41.91 	0.042342 	4936 	0.041749
41.93 	0.040349 	4932 	0.039874
41.95 	0.035287 	4931 	0.034693
41.97 	0.038055 	4914 	0.037339
41.99 	0.034659 	4905 	0.034539
42.01 	0.038244 	4942 	0.037888
42.03 	0.036850 	4939 	0.036612
42.05 	0.040186 	4952 	0.039594
42.07 	0.034029 	4937 	0.033791
42.09 	0.041027 	4948 	0.040672
42.11 	0.043276 	4945 	0.043039
42.13 	0.036198 	4945 	0.035724
42.15 	0.036655 	4938 	0.036299
42.17 	0.037617 	4918 	0.037260
42.19 	0.036471 	4908 	0.036352
42.21 	0.037339 	4901 	0.037100
42.23 	0.035977 	4892 	0.035259
42.25 	0.038454 	4889 	0.038094
42.27 	0.037751 	4874 	0.037511
42.29 	0.036192 	4863 	0.035710
42.31 	0.039547 	4855 	0.038944
42.33 	0.036202 	4834 	0.036202
42.35 	0.043406 	4838 	0.042922
42.37 	0.037474 	4830 	0.037110
42.39 	0.036428 	4804 	0.035940
42.41 	0.043089 	4804 	0.042723
42.43 	0.041110 	4792 	0.040988
42.45 	0.032035 	4776 	0.031790
42.47 	0.040923 	4765 	0.040800
42.49 	0.039454 	4765 	0.039454
42.51 	0.038372 	4743 	0.037755
42.53 	0.033841 	4728 	0.033593
42.55 	0.033772 	4708 	0.033523
42.57 	0.046300 	4730 	0.045557
42.59 	0.040178 	4729 	0.039187
42.61 	0.037171 	4708 	0.036922
42.63 	0.030155 	4709 	0.029782
42.65 	0.034365 	4685 	0.033740
42.67 	0.034586 	4684 	0.034086
42.69 	0.038083 	4674 	0.037582
42.71 	0.040532 	4663 	0.039778
42.73 	0.037284 	4640 	0.036527
42.75 	0.033788 	4617 	0.033408
42.77 	0.038478 	4600 	0.037969
42.79 	0.039066 	4582 	0.038810
42.81 	0.035072 	4562 	0.034944
42.83 	0.032628 	4536 	0.031982
42.85 	0.034011 	4528 	0.033364
42.87 	0.037119 	4499 	0.036859
42.89 	0.039955 	4480 	0.039955
42.91 	0.034111 	4456 	0.033848
42.93 	0.038686 	4446 	0.038423
42.95 	0.040761 	4416 	0.040363
42.97 	0.045217 	4401 	0.044818
42.99 	0.039453 	4385 	0.038785
43.01 	0.032546 	4363 	0.032278
43.03 	0.039926 	4333 	0.039521
43.05 	0.037457 	4325 	0.037321
43.07 	0.038408 	4296 	0.037590
43.09 	0.036190 	4283 	0.035916
43.11 	0.035723 	4255 	0.035447
43.13 	0.042483 	4237 	0.041631
43.15 	0.035663 	4206 	0.035663
43.17 	0.043073 	4179 	0.042792
43.19 	0.038865 	4194 	0.038446
43.21 	0.034036 	4172 	0.033896
43.23 	0.038517 	4154 	0.037953
43.25 	0.038936 	4135 	0.038086
43.27 	0.035810 	4105 	0.035525
43.29 	0.038049 	4100 	0.037906
43.31 	0.038245 	4079 	0.037957
43.33 	0.039250 	4051 	0.039250
43.35 	0.039187 	4032 	0.038436
43.37 	0.039851 	4015 	0.039121
43.39 	0.037731 	4002 	0.037292
43.41 	0.038771 	3972 	0.038476
43.43 	0.034091 	3960 	0.033351
43.45 	0.037103 	3935 	0.036507
43.47 	0.039786 	3921 	0.039487
43.49 	0.039004 	3897 	0.038403
43.51 	0.033531 	3877 	0.033078
43.53 	0.037277 	3863 	0.036822
43.55 	0.032051 	2964 	0.031458
43.57 	0.034406 	2238 	0.034144
43.59 	0.039519 	1746 	0.039183
43.61 	0.031828 	1351 	0.031828
43.63 	0.031968 	1001 	0.031383
43.65 	0.027656 	687 	0.027656
43.67 	0.021912 	502 	0.021912
43.69 	0.038147 	367 	0.038147
43.71 	0.025105 	239 	0.025105
43.73 	0.000000 	120 	0.000000
43.75 	0.000000 	16 	0.000000