File: Example_Data/25SC_s1_0047.002.dat
#F C:\frames\spec\25SC_s1_0047.002
#C title =s:47 frm:2 25SC_s1
#C wavelength =0.15406

#S 1  fr_average C:\frames\spec\25SC_s1_0047.002 C:\win32app\speccom\mask.axs chi 0 180 0 360 0.02
#C 2 theta =0.000000 to 180 deg
#C   q   =0.000000 to 81.568 nm^-1
#C  chi  =0.000000 to 360 deg
#C collumns:
#C  1 position (2theta or chi in degrees)
#C  2 average intensity (sum of all counts in the region divided with number of pixels)
#C  3 Number of pixels in region)
#C  4 error (sum of sqrt(intensity) for all pixels divided by number)
#N 4
#L TTh  Int  N_pix  Err
32.99 	0.065574 	61 	0.065574
33.01 	0.069874 	873 	0.069203
33.03 	0.053918 	1391 	0.053076
33.05 	0.061468 	1757 	0.060468
33.07 	0.062439 	2050 	0.062439
33.09 	0.050277 	2347 	0.048530
33.11 	0.058938 	2579 	0.057348
33.13 	0.053348 	2793 	0.052299
33.15 	0.061687 	2999 	0.059734
33.17 	0.053108 	3201 	0.051827
33.19 	0.055057 	3342 	0.054356
33.21 	0.058207 	3436 	0.057014
33.23 	0.061028 	3523 	0.059531
33.25 	0.056478 	3612 	0.055019
33.27 	0.061708 	3630 	0.060901
33.29 	0.057018 	3648 	0.056054
33.31 	0.059836 	3660 	0.058716
33.33 	0.060228 	3686 	0.058639
33.35 	0.061722 	3694 	0.061246
33.37 	0.066774 	3714 	0.065986
33.39 	0.063824 	3729 	0.063039
33.41 	0.064706 	3740 	0.063296
33.43 	0.055836 	3761 	0.055213
33.45 	0.064405 	3773 	0.063318
33.47 	0.059242 	3798 	0.058625
33.49 	0.056708 	3809 	0.055324
33.51 	0.053997 	3815 	0.053230
33.53 	0.057016 	3841 	0.055949
33.55 	0.055165 	3843 	0.054708
33.57 	0.064225 	3877 	0.063167
33.59 	0.056443 	3880 	0.054934
33.61 	0.061141 	3909 	0.060092
33.63 	0.057923 	3919 	0.056877
33.65 	0.050369 	3931 	0.050071
33.67 	0.062215 	3954 	0.061623
33.69 	0.058437 	3953 	0.058140
33.71 	0.057107 	3975 	0.056370
33.73 	0.056943 	4004 	0.055773
33.75 	0.061015 	3999 	0.059697
33.77 	0.064348 	4025 	0.063184
33.79 	0.054195 	4041 	0.053470
33.81 	0.063893 	4038 	0.062878
33.83 	0.055556 	4050 	0.054832
33.85 	0.051476 	4099 	0.050619
33.87 	0.063002 	4111 	0.062147
33.89 	0.060180 	4121 	0.059327
33.91 	0.062907 	4149 	0.061918
33.93 	0.059022 	4151 	0.057870
33.95 	0.060990 	4181 	0.059869
33.97 	0.058950 	4190 	0.057552
33.99 	0.059524 	4200 	0.058687
34.01 	0.063138 	4213 	0.062304
34.03 	0.057493 	4244 	0.055952
34.05 	0.058090 	4252 	0.056299
34.07 	0.060450 	4268 	0.059626
34.09 	0.051563 	4286 	0.050880
34.11 	0.057880 	4302 	0.057063
34.13 	0.058032 	4308 	0.057216
34.15 	0.056338 	4331 	0.055256
34.17 	0.048736 	4350 	0.047636
34.19 	0.060752 	4362 	0.059812
34.21 	0.060627 	4371 	0.059287
34.23 	0.058047 	4393 	0.057247
34.25 	0.059946 	4404 	0.059147
34.27 	0.057666 	4422 	0.056474
34.29 	0.055693 	4435 	0.054769
34.31 	0.060565 	4458 	0.059514
34.33 	0.058376 	4471 	0.057175
34.35 	0.058207 	4484 	0.057010
34.37 	0.052550 	4491 	0.052158
34.39 	0.055309 	4502 	0.054138
34.41 	0.056562 	4526 	0.055397
34.43 	0.057502 	4539 	0.056856
34.45 	0.056670 	4535 	0.056024
34.47 	0.058798 	4592 	0.057629
34.49 	0.052208 	4597 	0.051826
34.51 	0.059271 	4606 	0.058253
34.53 	0.060090 	4643 	0.059586
34.55 	0.061813 	4643 	0.060930
34.57 	0.056438 	4660 	0.055055
34.59 	0.056898 	4675 	0.055771
34.61 	0.057058 	4697 	0.056309
34.63 	0.058811 	4710 	0.057796
34.65 	0.052743 	4721 	0.051874
34.67 	0.060114 	4741 	0.059496
34.69 	0.062684 	4754 	0.060815
34.71 	0.062316 	4766 	0.061087
34.73 	0.062043 	4787 	0.061186
34.75 	0.056572 	4808 	0.055699
34.77 	0.057493 	4818 	0.056642
34.79 	0.055348 	4824 	0.054255
34.81 	0.059236 	4845 	0.057000
34.83 	0.057589 	4862 	0.056746
34.85 	0.058534 	4869 	0.057812
34.87 	0.052999 	4868 	0.052137
34.89 	0.057968 	4882 	0.057108
34.91 	0.067186 	4882 	0.066346
34.93 	0.059808 	4899 	0.058373
34.95 	0.057260 	4890 	0.055702
34.97 	0.062424 	4902 	0.060870
34.99 	0.057995 	4897 	0.056918
35.01 	0.058501 	4923 	0.058144
35.03 	0.057860 	4943 	0.056774
35.05 	0.056600 	4947 	0.055889
35.07 	0.052227 	4940 	0.051160
35.09 	0.062386 	4953 	0.061085
35.11 	0.056802 	4947 	0.055500
35.13 	0.060508 	4958 	0.059209
35.15 	0.057322 	4937 	0.056136
35.17 	0.058027 	4946 	0.056724
35.19 	0.055443 	4942 	0.054969
35.21 	0.059656 	4945 	0.059064
35.23 	0.057634 	4945 	0.056923
35.25 	0.056646 	4943 	0.055204
35.27 	0.051940 	4948 	0.050875
35.29 	0.058847 	4945 	0.058018
35.31 	0.055139 	4933 	0.054308
35.33 	0.061097 	4943 	0.059793
35.35 	0.057467 	4942 	0.056637
35.37 	0.058919 	4939 	0.057614
35.39 	0.051567 	4945 	0.050975
35.41 	0.058871 	4926 	0.057663
35.43 	0.064667 	4933 	0.063222
35.45 	0.057525 	4937 	0.056694
35.47 	0.047658 	4931 	0.046945
35.49 	0.053768 	4910 	0.053410
35.51 	0.056841 	4926 	0.055771
35.53 	0.060012 	4949 	0.059184
35.55 	0.056825 	4945 	0.056588
35.57 	0.058788 	4933 	0.058194
35.59 	0.058645 	4945 	0.057460
35.61 	0.054634 	4942 	0.053685
35.63 	0.061703 	4943 	0.061111
35.65 	0.057432 	4945 	0.056484
35.67 	0.058276 	4942 	0.057091
35.69 	0.058027 	4946 	0.057079
35.71 	0.059753 	4937 	0.059041
35.73 	0.057536 	4936 	0.056587
35.75 	0.060028 	4931 	0.059316
35.77 	0.062008 	4951 	0.061179
35.79 	0.056569 	4932 	0.055382
35.81 	0.060612 	4933 	0.059643
35.83 	0.059038 	4946 	0.058564
35.85 	0.053698 	4935 	0.052511
35.87 	0.056267 	4923 	0.055910
35.89 	0.050061 	4934 	0.049705
35.91 	0.056221 	4927 	0.055389
35.93 	0.055815 	4927 	0.054725
35.95 	0.056539 	4917 	0.054970
35.97 	0.053746 	4912 	0.052534
35.99 	0.057704 	4939 	0.056162
36.01 	0.057606 	4930 	0.056894
36.03 	0.063726 	4943 	0.062522
36.05 	0.054601 	4945 	0.053653
36.07 	0.055477 	4939 	0.054409
36.09 	0.057085 	4940 	0.056492
36.11 	0.060256 	4929 	0.059543
36.13 	0.061716 	4942 	0.060155
36.15 	0.059121 	4939 	0.058884
36.17 	0.057259 	4925 	0.056545
36.19 	0.063765 	4940 	0.062817
36.21 	0.055995 	4929 	0.054807
36.23 	0.057751 	4935 	0.057157
36.25 	0.055859 	4941 	0.054911
36.27 	0.055635 	4925 	0.055278
36.29 	0.060028 	4931 	0.059197
36.31 	0.060471 	4928 	0.058807
36.33 	0.057571 	4933 	0.056503
36.35 	0.055792 	4929 	0.054604
36.37 	0.052610 	4923 	0.051520
36.39 	0.061776 	4921 	0.060467
36.41 	0.056985 	4896 	0.055550
36.43 	0.054789 	4928 	0.053551
36.45 	0.058215 	4930 	0.057146
36.47 	0.054498 	4936 	0.053786
36.49 	0.058883 	4942 	0.057224
36.51 	0.061018 	4933 	0.060068
36.53 	0.062310 	4943 	0.061718
36.55 	0.056424 	4927 	0.055592
36.57 	0.055330 	4934 	0.053886
36.59 	0.053452 	4939 	0.052622
36.61 	0.055770 	4931 	0.054582
36.63 	0.049280 	4931 	0.048805
36.65 	0.055150 	4932 	0.054556
36.67 	0.058418 	4930 	0.057111
36.69 	0.056401 	4929 	0.055926
36.71 	0.060150 	4921 	0.059198
36.73 	0.052995 	4925 	0.052519
36.75 	0.054814 	4944 	0.054340
36.77 	0.052246 	4919 	0.051770
36.79 	0.058525 	4921 	0.057334
36.81 	0.055533 	4916 	0.054937
36.83 	0.050865 	4915 	0.050150
36.85 	0.053083 	4898 	0.052605
36.87 	0.054005 	4944 	0.053412
36.89 	0.058584 	4916 	0.057512
36.91 	0.058288 	4941 	0.057458
36.93 	0.060446 	4930 	0.059496
36.95 	0.055342 	4933 	0.054510
36.97 	0.056952 	4934 	0.055883
36.99 	0.057953 	4935 	0.057122
37.01 	0.056355 	4933 	0.055761
37.03 	0.057474 	4924 	0.056641
37.05 	0.053988 	4927 	0.053156
37.07 	0.052280 	4935 	0.050836
37.09 	0.056818 	4928 	0.055748
37.11 	0.048024 	4935 	0.046956
37.13 	0.053412 	4924 	0.053293
37.15 	0.064983 	4909 	0.063909
37.17 	0.051885 	4934 	0.050816
37.19 	0.054010 	4925 	0.053534
37.21 	0.062233 	4917 	0.060923
37.23 	0.061610 	4918 	0.060400
37.25 	0.056608 	4911 	0.056250
37.27 	0.048018 	4894 	0.047420
37.29 	0.053347 	4930 	0.052159
37.31 	0.057143 	4935 	0.056075
37.33 	0.055409 	4927 	0.054339
37.35 	0.051235 	4938 	0.050168
37.37 	0.048508 	4927 	0.047914
37.39 	0.054553 	4931 	0.053583
37.41 	0.053944 	4931 	0.053232
37.43 	0.046431 	4932 	0.045719
37.45 	0.053412 	4924 	0.052936
37.47 	0.053358 	4929 	0.052882
37.49 	0.053423 	4923 	0.052590
37.51 	0.052504 	4933 	0.051791
37.53 	0.053466 	4919 	0.052871
37.55 	0.052941 	4930 	0.052822
37.57 	0.053401 	4925 	0.052806
37.59 	0.055137 	4915 	0.053826
37.61 	0.054043 	4922 	0.053329
37.63 	0.053263 	4919 	0.052072
37.65 	0.047987 	4918 	0.047511
37.67 	0.052610 	4904 	0.051893
37.69 	0.057575 	4898 	0.056498
37.71 	0.051126 	4929 	0.050156
37.73 	0.051532 	4929 	0.050819
37.75 	0.052429 	4940 	0.051461
37.77 	0.050203 	4920 	0.048874
37.79 	0.053144 	4930 	0.052550
37.81 	0.057977 	4933 	0.057383
37.83 	0.052846 	4920 	0.052012
37.85 	0.051402 	4922 	0.050450
37.87 	0.053250 	4939 	0.052182
37.89 	0.057462 	4925 	0.056610
37.91 	0.048682 	4930 	0.048325
37.93 	0.048181 	4919 	0.047228
37.95 	0.051006 	4921 	0.050054
37.97 	0.051938 	4929 	0.051224
37.99 	0.049064 	4912 	0.048586
38.01 	0.052963 	4928 	0.052368
38.03 	0.046853 	4909 	0.046137
38.05 	0.053198 	4925 	0.052365
38.07 	0.055205 	4909 	0.054966
38.09 	0.049405 	4878 	0.048805
38.11 	0.056130 	4935 	0.055536
38.13 	0.050638 	4937 	0.049689
38.15 	0.054900 	4918 	0.054424
38.17 	0.054970 	4930 	0.053781
38.19 	0.059635 	4930 	0.058328
38.21 	0.054438 	4923 	0.053804
38.23 	0.058323 	4938 	0.056662
38.25 	0.059589 	4917 	0.058517
38.27 	0.055984 	4930 	0.055152
38.29 	0.060520 	4924 	0.059806
38.31 	0.058453 	4927 	0.057027
38.33 	0.058286 	4924 	0.057215
38.35 	0.061891 	4928 	0.060921
38.37 	0.063769 	4924 	0.062342
38.39 	0.064983 	4909 	0.064247
38.41 	0.064798 	4923 	0.063370
38.43 	0.066517 	4916 	0.065564
38.45 	0.063440 	4918 	0.062488
38.47 	0.066028 	4907 	0.063860
38.49 	0.068485 	4877 	0.067404
38.51 	0.067113 	4932 	0.065905
38.53 	0.064110 	4929 	0.063397
38.55 	0.068476 	4936 	0.067033
38.57 	0.066423 	4923 	0.064638
38.59 	0.069253 	4924 	0.067568
38.61 	0.058144 	4936 	0.057551
38.63 	0.064175 	4924 	0.063105
38.65 	0.061204 	4918 	0.060132
38.67 	0.056917 	4937 	0.056205
38.69 	0.057903 	4922 	0.057784
38.71 	0.056458 	4924 	0.055744
38.73 	0.055104 	4918 	0.054270
38.75 	0.051959 	4927 	0.051483
38.77 	0.047329 	4923 	0.046496
38.79 	0.047629 	4934 	0.047391
38.81 	0.052117 	4912 	0.050925
38.83 	0.055499 	4919 	0.054665
38.85 	0.049267 	4912 	0.048909
38.87 	0.046630 	4911 	0.046272
38.89 	0.047989 	4897 	0.047510
38.91 	0.049969 	4903 	0.049492
38.93 	0.047590 	4938 	0.046878
38.95 	0.047987 	4918 	0.047749
38.97 	0.048063 	4931 	0.047350
38.99 	0.046182 	4937 	0.045351
39.01 	0.048190 	4918 	0.047357
39.03 	0.050263 	4934 	0.049670
39.05 	0.040812 	4925 	0.040455
39.07 	0.047319 	4924 	0.046843
39.09 	0.050173 	4923 	0.049578
39.11 	0.051511 	4931 	0.051036
39.13 	0.047126 	4923 	0.046174
39.15 	0.049847 	4915 	0.049371
39.17 	0.045574 	4937 	0.044981
39.19 	0.045353 	4917 	0.044023
39.21 	0.049287 	4910 	0.048929
39.23 	0.045279 	4925 	0.044803
39.25 	0.043275 	4922 	0.042918
39.27 	0.045418 	4910 	0.044940
39.29 	0.039788 	4901 	0.039310
39.31 	0.047297 	4884 	0.046218
39.33 	0.042588 	4931 	0.042469
39.35 	0.046201 	4935 	0.045370
39.37 	0.045040 	4929 	0.044089
39.39 	0.045851 	4929 	0.045257
39.41 	0.042588 	4931 	0.041756
39.43 	0.043381 	4933 	0.042788
39.45 	0.040203 	4925 	0.039846
39.47 	0.042251 	4923 	0.041775
39.49 	0.049463 	4933 	0.048988
39.51 	0.044882 	4924 	0.044049
39.53 	0.045298 	4923 	0.044445
39.55 	0.043301 	4919 	0.042825
39.57 	0.044598 	4933 	0.044241
39.59 	0.043770 	4912 	0.043293
39.61 	0.046719 	4923 	0.046244
39.63 	0.045307 	4922 	0.044712
39.65 	0.049939 	4926 	0.049582
39.67 	0.046407 	4913 	0.046050
39.69 	0.049227 	4916 	0.047897
39.71 	0.044127 	4895 	0.043169
39.73 	0.047474 	4908 	0.046996
39.75 	0.048904 	4928 	0.047716
39.77 	0.047822 	4935 	0.047466
39.79 	0.049533 	4926 	0.048939
39.81 	0.049929 	4927 	0.048859
39.83 	0.047831 	4934 	0.047594
39.85 	0.044855 	4927 	0.044617
39.87 	0.042030 	4925 	0.041436
39.89 	0.044994 	4934 	0.044163
39.91 	0.044900 	4922 	0.044662
39.93 	0.047600 	4937 	0.046769
39.95 	0.047813 	4915 	0.047455
39.97 	0.047078 	4928 	0.046365
39.99 	0.045823 	4932 	0.045467
40.01 	0.045750 	4918 	0.045155
40.03 	0.043831 	4928 	0.043593
40.05 	0.045963 	4917 	0.045486
40.07 	0.040626 	4923 	0.040388
40.09 	0.038039 	4916 	0.037275
40.11 	0.049837 	4916 	0.048288
40.13 	0.045752 	4896 	0.045273
40.15 	0.041930 	4913 	0.041453
40.17 	0.041396 	4928 	0.040445
40.19 	0.046054 	4929 	0.045460
40.21 	0.043566 	4935 	0.042854
40.23 	0.041363 	4932 	0.040987
40.25 	0.040650 	4920 	0.039936
40.27 	0.042131 	4937 	0.041538
40.29 	0.044855 	4927 	0.044379
40.31 	0.047176 	4939 	0.046583
40.33 	0.041363 	4932 	0.040887
40.35 	0.042692 	4919 	0.042334
40.37 	0.041591 	4929 	0.040996
40.39 	0.046846 	4931 	0.045659
40.41 	0.039391 	4925 	0.038796
40.43 	0.042462 	4922 	0.041867
40.45 	0.041760 	4933 	0.041285
40.47 	0.037820 	4918 	0.037463
40.49 	0.038977 	4926 	0.038858
40.51 	0.047135 	4922 	0.046064
40.53 	0.046379 	4916 	0.045188
40.55 	0.047066 	4908 	0.046589
40.57 	0.039468 	4890 	0.038989
40.59 	0.041928 	4937 	0.041454
40.61 	0.041945 	4935 	0.041352
40.63 	0.041176 	4930 	0.040820
40.65 	0.041321 	4937 	0.040727
40.67 	0.045620 	4932 	0.045145
40.69 	0.046587 	4937 	0.045638
40.71 	0.045620 	4932 	0.045145
40.73 	0.043849 	4926 	0.043254
40.75 	0.044616 	4931 	0.043765
40.77 	0.042721 	4939 	0.042365
40.79 	0.039196 	4924 	0.038958
40.81 	0.049990 	4941 	0.049397
40.83 	0.042208 	4928 	0.041851
40.85 	0.044070 	4924 	0.043594
40.87 	0.046672 	4928 	0.045939
40.89 	0.043399 	4931 	0.043043
40.91 	0.049563 	4923 	0.048730
40.93 	0.045399 	4934 	0.044924
40.95 	0.041522 	4913 	0.040569
40.97 	0.046304 	4924 	0.045709
40.99 	0.038993 	4924 	0.038755
41.01 	0.042345 	4912 	0.041630
41.03 	0.045872 	4905 	0.045633
41.05 	0.039708 	4936 	0.039115
41.07 	0.037120 	4930 	0.036763
41.09 	0.043329 	4939 	0.042854
41.11 	0.040122 	4935 	0.039528
41.13 	0.046799 	4936 	0.045612
41.15 	0.042502 	4941 	0.041316
41.17 	0.045399 	4934 	0.045162
41.19 	0.041582 	4930 	0.041463
41.21 	0.046587 	4937 	0.045994
41.23 	0.041709 	4939 	0.040997
41.25 	0.040138 	4933 	0.039782
41.27 	0.041168 	4931 	0.040455
41.29 	0.036526 	4928 	0.036050
41.31 	0.040746 	4933 	0.040034
41.33 	0.042333 	4937 	0.042333
41.35 	0.044147 	4938 	0.043910
41.37 	0.035743 	4924 	0.035248
41.39 	0.037300 	4933 	0.036944
41.41 	0.043037 	4926 	0.042561
41.43 	0.040576 	4929 	0.040101
41.45 	0.039886 	4914 	0.039767
41.47 	0.044255 	4926 	0.043898
41.49 	0.043132 	4892 	0.043012
41.51 	0.040081 	4940 	0.039725
41.53 	0.043892 	4944 	0.043299
41.55 	0.045795 	4935 	0.045202
41.57 	0.040275 	4941 	0.039801
41.59 	0.040949 	4933 	0.040355
41.61 	0.037755 	4953 	0.037518
41.63 	0.035642 	4938 	0.035286
41.65 	0.038547 	4929 	0.038072
41.67 	0.039271 	4940 	0.039153
41.69 	0.040024 	4947 	0.038959
41.71 	0.042359 	4934 	0.041766
41.73 	0.043760 	4936 	0.043167
41.75 	0.037736 	4929 	0.037498
41.77 	0.041490 	4941 	0.041134
41.79 	0.042476 	4944 	0.042120
41.81 	0.041937 	4936 	0.041581
41.83 	0.041599 	4928 	0.041361
41.85 	0.041506 	4939 	0.041151
41.87 	0.041135 	4935 	0.040660
41.89 	0.038719 	4933 	0.038244
41.91 	0.043760 	4936 	0.043641
41.93 	0.045215 	4932 	0.044602
41.95 	0.042588 	4931 	0.042350
41.97 	0.043142 	4914 	0.042904
41.99 	0.043629 	4905 	0.042793
42.01 	0.038244 	4942 	0.038007
42.03 	0.037457 	4939 	0.036983
42.05 	0.045638 	4952 	0.045165
42.07 	0.040105 	4937 	0.039749
42.09 	0.036176 	4948 	0.035584
42.11 	0.039029 	4945 	0.038319
42.13 	0.044085 	4945 	0.043730
42.15 	0.040705 	4938 	0.040112
42.17 	0.038837 	4918 	0.038718
42.19 	0.041769 	4908 	0.041271
42.21 	0.038360 	4901 	0.038120
42.23 	0.039248 	4892 	0.038529
42.25 	0.038658 	4889 	0.038179
42.27 	0.035494 	4874 	0.034773
42.29 	0.040716 	4863 	0.039993
42.31 	0.043460 	4855 	0.043098
42.33 	0.039098 	4834 	0.038735
42.35 	0.044233 	4838 	0.043749
42.37 	0.038095 	4830 	0.037246
42.39 	0.038301 	4804 	0.037936
42.41 	0.040175 	4804 	0.039443
42.43 	0.035684 	4792 	0.035196
42.45 	0.035385 	4776 	0.035385
42.47 	0.037356 	4765 	0.036864
42.49 	0.037146 	4765 	0.036388
42.51 	0.039848 	4743 	0.039725
42.53 	0.039763 	4728 	0.039515
42.55 	0.042906 	4708 	0.042532
42.57 	0.037209 	4730 	0.037209
42.59 	0.042504 	4729 	0.042132
42.61 	0.035896 	4708 	0.035025
42.63 	0.040561 	4709 	0.039814
42.65 	0.038207 	4685 	0.037686
42.67 	0.039069 	4684 	0.038694
42.69 	0.036799 	4674 	0.036423
42.71 	0.038816 	4663 	0.038314
42.73 	0.035776 	4640 	0.035523
42.75 	0.042019 	4617 	0.041511
42.77 	0.043478 	4600 	0.042714
42.79 	0.040594 	4582 	0.040338
42.81 	0.037484 	4562 	0.037355
42.83 	0.032628 	4536 	0.032370
42.85 	0.039973 	4528 	0.039327
42.87 	0.042009 	4499 	0.041619
42.89 	0.035491 	4480 	0.035099
42.91 	0.034785 	4456 	0.034259
42.93 	0.038686 	4446 	0.038555
42.95 	0.036685 	4416 	0.036154
42.97 	0.037946 	4401 	0.037680
42.99 	0.046066 	4385 	0.045799
43.01 	0.036901 	4363 	0.036901
43.03 	0.038541 	4333 	0.038271
43.05 	0.040925 	4325 	0.040248
43.07 	0.033054 	4296 	0.032509
43.09 	0.038758 	4283 	0.038348
43.11 	0.032432 	4255 	0.032432
43.13 	0.039651 	4237 	0.039098
43.15 	0.031384 	4206 	0.031244
43.17 	0.038287 	4179 	0.038006
43.19 	0.040534 	4194 	0.039975
43.21 	0.045302 	4172 	0.044460
43.23 	0.036591 	4154 	0.036450
43.25 	0.036276 	4135 	0.035709
43.27 	0.039220 	4105 	0.038935
43.29 	0.040000 	4100 	0.039429
43.31 	0.035058 	4079 	0.034627
43.33 	0.036040 	4051 	0.035896
43.35 	0.039187 	4032 	0.038751
43.37 	0.036364 	4015 	0.036218
43.39 	0.044478 	4002 	0.044331
43.41 	0.035247 	3972 	0.034804
43.43 	0.040657 	3960 	0.039473
43.45 	0.037103 	3935 	0.036185
43.47 	0.034940 	3921 	0.034791
43.49 	0.038748 	3897 	0.038297
43.51 	0.031468 	3877 	0.031165
43.53 	0.039865 	3863 	0.039562
43.55 	0.040486 	2964 	0.040486
43.57 	0.036193 	2238 	0.035931
43.59 	0.030355 	1746 	0.030355
43.61 	0.039230 	1351 	0.037929
43.63 	0.036963 	1001 	0.036963
43.65 	0.018923 	687 	0.018923
43.67 	0.023904 	502 	0.023904
43.69 	0.029973 	367 	0.029973
43.71 	0.016736 	239 	0.016736
43.73 	0.025000 	120 	0.025000
43.75 	0.000000 	16 	0.000000