File: Example_Data/25SC_s1_0011.001.dat
#F C:\frames\spec\25SC_s1_0011.001
#C title =s:11 frm:1 25SC_s1
#C wavelength =0.15406

#S 1  fr_average C:\frames\spec\25SC_s1_0011.001 C:\win32app\speccom\mask.axs chi 0 180 0 360 0.02
#C 2 theta =0.000000 to 180 deg
#C   q   =0.000000 to 81.568 nm^-1
#C  chi  =0.000000 to 360 deg
#C collumns:
#C  1 position (2theta or chi in degrees)
#C  2 average intensity (sum of all counts in the region divided with number of pixels)
#C  3 Number of pixels in region)
#C  4 error (sum of sqrt(intensity) for all pixels divided by number)
#N 4
#L TTh  Int  N_pix  Err
32.99 	0.049180 	61 	0.049180
33.01 	0.057274 	873 	0.055932
33.03 	0.058231 	1391 	0.056126
33.05 	0.050085 	1757 	0.049752
33.07 	0.067317 	2050 	0.066460
33.09 	0.059651 	2347 	0.058652
33.11 	0.064754 	2579 	0.063164
33.13 	0.059076 	2793 	0.058028
33.15 	0.069356 	2999 	0.068184
33.17 	0.056545 	3201 	0.055447
33.19 	0.061939 	3342 	0.060186
33.21 	0.062282 	3436 	0.061529
33.23 	0.058757 	3523 	0.057094
33.25 	0.057032 	3612 	0.056519
33.27 	0.061157 	3630 	0.060350
33.29 	0.059759 	3648 	0.058474
33.31 	0.062568 	3660 	0.061448
33.33 	0.060770 	3686 	0.059817
33.35 	0.057932 	3694 	0.057615
33.37 	0.056274 	3714 	0.055958
33.39 	0.062483 	3729 	0.061541
33.41 	0.063102 	3740 	0.061666
33.43 	0.053709 	3761 	0.052619
33.45 	0.058839 	3773 	0.057908
33.47 	0.056872 	3798 	0.055792
33.49 	0.069310 	3809 	0.067618
33.51 	0.060813 	3815 	0.059431
33.53 	0.059880 	3841 	0.059423
33.55 	0.053604 	3843 	0.052994
33.57 	0.063193 	3877 	0.061833
33.59 	0.055928 	3880 	0.055022
33.61 	0.054234 	3909 	0.053485
33.63 	0.058178 	3919 	0.056833
33.65 	0.058001 	3931 	0.056063
33.67 	0.067274 	3954 	0.066088
33.69 	0.055907 	3953 	0.054425
33.71 	0.058868 	3975 	0.058278
33.73 	0.054945 	4004 	0.054506
33.75 	0.059265 	3999 	0.058972
33.77 	0.054658 	4025 	0.053785
33.79 	0.056917 	4041 	0.055878
33.81 	0.059683 	4038 	0.058813
33.83 	0.060494 	4050 	0.060060
33.85 	0.060259 	4099 	0.059115
33.87 	0.056191 	4111 	0.055906
33.89 	0.057025 	4121 	0.056030
33.91 	0.062907 	4149 	0.061472
33.93 	0.058058 	4151 	0.057212
33.95 	0.060512 	4181 	0.060092
33.97 	0.059189 	4190 	0.058490
33.99 	0.051190 	4200 	0.049935
34.01 	0.061002 	4213 	0.060445
34.03 	0.064797 	4244 	0.063256
34.05 	0.056914 	4252 	0.056226
34.07 	0.060216 	4268 	0.059255
34.09 	0.062529 	4286 	0.061436
34.11 	0.059740 	4302 	0.058650
34.13 	0.056871 	4308 	0.055919
34.15 	0.063496 	4331 	0.062278
34.17 	0.062299 	4350 	0.061087
34.19 	0.060064 	4362 	0.059393
34.21 	0.060169 	4371 	0.059097
34.23 	0.058275 	4393 	0.057474
34.25 	0.061081 	4404 	0.059751
34.27 	0.055857 	4422 	0.055195
34.29 	0.060428 	4435 	0.058976
34.31 	0.061911 	4458 	0.061254
34.33 	0.060389 	4471 	0.059603
34.35 	0.053524 	4484 	0.052087
34.37 	0.055890 	4491 	0.055107
34.39 	0.054642 	4502 	0.053710
34.41 	0.060318 	4526 	0.059930
34.43 	0.055299 	4539 	0.054266
34.45 	0.053363 	4535 	0.052329
34.47 	0.060540 	4592 	0.058329
34.49 	0.056124 	4597 	0.054849
34.51 	0.059488 	4606 	0.058470
34.53 	0.056214 	4643 	0.055331
34.55 	0.058367 	4643 	0.057989
34.57 	0.057296 	4660 	0.056165
34.59 	0.056898 	4675 	0.056397
34.61 	0.054716 	4697 	0.053718
34.63 	0.060722 	4710 	0.059354
34.65 	0.055285 	4721 	0.054789
34.67 	0.058848 	4741 	0.057345
34.69 	0.058477 	4754 	0.057368
34.71 	0.054133 	4766 	0.053273
34.73 	0.059327 	4787 	0.058715
34.75 	0.060524 	4808 	0.059549
34.77 	0.058323 	4818 	0.057472
34.79 	0.058665 	4824 	0.057694
34.81 	0.058411 	4845 	0.057323
34.83 	0.060880 	4862 	0.060278
34.85 	0.057096 	4869 	0.056374
34.87 	0.052383 	4868 	0.050819
34.89 	0.059197 	4882 	0.057997
34.91 	0.059607 	4882 	0.058407
34.93 	0.058175 	4899 	0.057458
34.95 	0.060941 	4890 	0.059743
34.97 	0.053856 	4902 	0.053617
34.99 	0.061875 	4897 	0.060300
35.01 	0.062360 	4923 	0.061170
35.03 	0.057050 	4943 	0.055865
35.05 	0.055185 	4947 	0.053981
35.07 	0.054251 	4940 	0.053895
35.09 	0.057339 	4953 	0.056511
35.11 	0.054376 	4947 	0.053429
35.13 	0.057281 	4958 	0.055814
35.15 	0.056715 	4937 	0.056003
35.17 	0.059442 	4946 	0.058376
35.19 	0.061109 	4942 	0.059924
35.21 	0.059454 	4945 	0.058862
35.23 	0.057634 	4945 	0.056311
35.25 	0.061097 	4943 	0.060504
35.27 	0.056993 	4948 	0.055927
35.29 	0.058443 	4945 	0.057258
35.31 	0.061626 	4933 	0.061270
35.33 	0.052195 	4943 	0.051010
35.35 	0.058681 	4942 	0.057713
35.37 	0.056692 	4939 	0.055723
35.39 	0.062487 	4945 	0.061421
35.41 	0.052172 	4926 	0.051439
35.43 	0.055342 	4933 	0.054510
35.45 	0.054487 	4937 	0.053656
35.47 	0.050902 	4931 	0.050427
35.49 	0.056823 	4910 	0.056107
35.51 	0.063946 	4926 	0.063114
35.53 	0.055769 	4949 	0.054940
35.55 	0.055814 	4945 	0.054254
35.57 	0.058585 	4933 	0.057873
35.59 	0.060870 	4945 	0.060277
35.61 	0.059288 	4942 	0.058102
35.63 	0.055634 	4943 	0.054923
35.65 	0.055814 	4945 	0.055222
35.67 	0.056657 	4942 	0.055709
35.69 	0.055803 	4946 	0.054362
35.71 	0.055904 	4937 	0.054718
35.73 	0.060981 	4936 	0.060387
35.75 	0.059826 	4931 	0.058380
35.77 	0.056150 	4951 	0.054849
35.79 	0.055556 	4932 	0.055199
35.81 	0.060815 	4933 	0.060221
35.83 	0.056814 	4946 	0.056340
35.85 	0.060588 	4935 	0.059638
35.87 	0.062970 	4923 	0.061661
35.89 	0.062019 	4934 	0.061425
35.91 	0.054394 	4927 	0.053919
35.93 	0.057845 	4927 	0.056874
35.95 	0.058776 	4917 	0.057703
35.97 	0.057410 	4912 	0.056456
35.99 	0.067220 	4939 	0.065896
36.01 	0.064909 	4930 	0.063958
36.03 	0.066356 	4943 	0.065408
36.05 	0.060061 	4945 	0.058876
36.07 	0.061146 	4939 	0.059940
36.09 	0.060729 	4940 	0.059780
36.11 	0.059647 	4929 	0.058577
36.13 	0.056253 	4942 	0.055304
36.15 	0.064588 	4939 	0.063402
36.17 	0.058680 	4925 	0.057253
36.19 	0.061943 	4940 	0.061588
36.21 	0.066748 	4929 	0.065559
36.23 	0.055927 	4935 	0.055215
36.25 	0.059502 	4941 	0.058317
36.27 	0.059492 	4925 	0.058660
36.29 	0.058203 	4931 	0.057609
36.31 	0.065544 	4928 	0.064117
36.33 	0.060004 	4933 	0.059529
36.35 	0.068777 	4929 	0.067232
36.37 	0.065610 	4923 	0.064421
36.39 	0.055070 	4921 	0.054356
36.41 	0.061479 	4896 	0.060282
36.43 	0.057224 	4928 	0.056273
36.45 	0.055781 	4930 	0.055068
36.47 	0.060778 	4936 	0.060185
36.49 	0.058276 	4942 	0.057209
36.51 	0.057977 	4933 	0.056671
36.53 	0.060490 	4943 	0.060016
36.55 	0.058250 	4927 	0.057180
36.57 	0.060803 	4934 	0.059972
36.59 	0.060944 	4939 	0.059995
36.61 	0.061448 	4931 	0.059904
36.63 	0.059014 	4931 	0.057708
36.65 	0.064274 	4932 	0.063205
36.67 	0.057809 	4930 	0.056859
36.69 	0.063096 	4929 	0.062145
36.71 	0.058931 	4921 	0.058078
36.73 	0.059086 	4925 	0.058373
36.75 	0.057848 	4944 	0.056999
36.77 	0.062818 	4919 	0.061369
36.79 	0.061776 	4921 	0.059752
36.81 	0.065500 	4916 	0.063832
36.83 	0.056562 	4915 	0.055251
36.85 	0.058391 	4898 	0.057674
36.87 	0.056634 	4944 	0.055805
36.89 	0.060415 	4916 	0.059223
36.91 	0.065371 	4941 	0.064522
36.93 	0.057404 	4930 	0.056196
36.95 	0.061626 	4933 	0.060320
36.97 	0.062019 	4934 	0.061306
36.99 	0.062411 	4935 	0.061343
37.01 	0.062031 	4933 	0.061200
37.03 	0.059708 	4924 	0.058161
37.05 	0.058859 	4927 	0.057789
37.07 	0.062209 	4935 	0.061378
37.09 	0.065950 	4928 	0.064761
37.11 	0.065248 	4935 	0.063468
37.13 	0.060723 	4924 	0.059633
37.15 	0.062742 	4909 	0.061191
37.17 	0.059384 	4934 	0.058553
37.19 	0.061929 	4925 	0.060858
37.21 	0.054505 	4917 	0.052817
37.23 	0.061814 	4918 	0.060623
37.25 	0.060273 	4911 	0.059676
37.27 	0.053126 	4894 	0.052049
37.29 	0.056795 	4930 	0.055845
37.31 	0.064438 	4935 	0.063488
37.33 	0.058250 	4927 	0.056804
37.35 	0.062981 	4938 	0.061913
37.37 	0.060483 	4927 	0.059294
37.39 	0.056784 	4931 	0.055714
37.41 	0.057392 	4931 	0.056679
37.43 	0.058800 	4932 	0.058443
37.45 	0.058083 	4924 	0.057250
37.47 	0.067559 	4929 	0.066014
37.49 	0.053016 	4923 	0.052303
37.51 	0.057571 	4933 	0.056978
37.53 	0.052450 	4919 	0.051616
37.55 	0.058215 	4930 	0.057264
37.57 	0.059289 	4925 	0.058100
37.59 	0.053917 	4915 	0.053440
37.61 	0.055465 	4922 	0.054513
37.63 	0.057735 	4919 	0.056783
37.65 	0.057340 	4918 	0.056387
37.67 	0.056688 	4904 	0.055733
37.69 	0.064312 	4898 	0.062996
37.71 	0.062082 	4929 	0.061250
37.73 	0.053155 	4929 	0.052561
37.75 	0.052429 	4940 	0.051599
37.77 	0.053252 	4920 	0.052300
37.79 	0.050710 	4930 	0.049641
37.81 	0.056963 	4933 	0.056013
37.83 	0.058943 	4920 	0.057852
37.85 	0.058716 	4922 	0.058121
37.87 	0.056084 	4939 	0.055491
37.89 	0.057868 	4925 	0.056916
37.91 	0.056795 	4930 	0.056082
37.93 	0.053466 	4919 	0.053228
37.95 	0.057915 	4921 	0.056725
37.97 	0.054778 	4929 	0.054540
37.99 	0.054764 	4912 	0.054287
38.01 	0.060674 	4928 	0.058990
38.03 	0.056020 	4909 	0.055423
38.05 	0.055838 	4925 	0.055124
38.07 	0.053168 	4909 	0.052571
38.09 	0.053506 	4878 	0.052425
38.11 	0.052280 	4935 	0.051686
38.13 	0.059955 	4937 	0.059244
38.15 	0.055714 	4918 	0.054999
38.17 	0.054767 	4930 	0.053460
38.19 	0.052738 	4930 	0.051669
38.21 	0.059923 	4923 	0.058733
38.23 	0.055286 	4938 	0.054930
38.25 	0.055318 	4917 	0.053770
38.27 	0.053753 	4930 	0.053277
38.29 	0.053615 	4924 	0.052663
38.31 	0.056221 	4927 	0.055607
38.33 	0.055240 	4924 	0.054050
38.35 	0.059659 	4928 	0.059065
38.37 	0.060317 	4924 	0.059127
38.39 	0.057853 	4909 	0.057137
38.41 	0.055048 	4923 	0.054334
38.43 	0.060618 	4916 	0.059665
38.45 	0.067100 	4918 	0.065909
38.47 	0.058284 	4907 	0.057568
38.49 	0.071355 	4877 	0.069434
38.51 	0.065693 	4932 	0.064862
38.53 	0.065125 	4929 	0.064174
38.55 	0.069692 	4936 	0.068743
38.57 	0.066626 	4923 	0.064841
38.59 	0.072299 	4924 	0.070257
38.61 	0.079822 	4936 	0.078398
38.63 	0.068846 	4924 	0.067895
38.65 	0.078691 	4918 	0.076785
38.67 	0.077983 	4937 	0.076677
38.69 	0.075173 	4922 	0.073507
38.71 	0.075751 	4924 	0.073967
38.73 	0.079911 	4918 	0.077409
38.75 	0.080779 	4927 	0.078996
38.77 	0.074345 	4923 	0.072203
38.79 	0.066275 	4934 	0.064731
38.81 	0.064943 	4912 	0.064227
38.83 	0.070136 	4919 	0.069184
38.85 	0.076751 	4912 	0.075439
38.87 	0.066992 	4911 	0.065064
38.89 	0.062487 	4897 	0.061650
38.91 	0.062207 	4903 	0.060375
38.93 	0.060753 	4938 	0.060397
38.95 	0.062424 	4918 	0.061114
38.97 	0.056581 	4931 	0.055393
38.99 	0.057727 	4937 	0.056897
39.01 	0.051240 	4918 	0.050645
39.03 	0.054925 	4934 	0.053956
39.05 	0.051371 	4925 	0.050895
39.07 	0.051787 	4924 	0.051192
39.09 	0.053626 	4923 	0.052793
39.11 	0.052322 	4931 	0.051471
39.13 	0.053626 	4923 	0.052674
39.15 	0.046796 	4915 	0.045723
39.17 	0.049423 	4937 	0.048118
39.19 	0.045556 	4917 	0.045318
39.21 	0.046029 	4910 	0.045432
39.23 	0.045888 	4925 	0.045155
39.25 	0.044697 	4922 	0.043983
39.27 	0.047862 	4910 	0.047146
39.29 	0.048357 	4901 	0.047640
39.31 	0.055897 	4884 	0.055177
39.33 	0.047049 	4931 	0.046693
39.35 	0.047822 	4935 	0.047109
39.37 	0.044025 	4929 	0.043550
39.39 	0.044431 	4929 	0.043698
39.41 	0.051308 	4931 	0.050476
39.43 	0.047841 	4933 	0.047247
39.45 	0.047107 	4925 	0.046274
39.47 	0.051391 	4923 	0.050440
39.49 	0.047436 	4933 	0.046723
39.51 	0.046913 	4924 	0.046794
39.53 	0.045298 	4923 	0.044941
39.55 	0.048587 	4919 	0.047634
39.57 	0.040949 	4933 	0.040830
39.59 	0.048046 	4912 	0.046853
39.61 	0.046313 	4923 	0.045599
39.63 	0.047338 	4922 	0.046505
39.65 	0.045067 	4926 	0.044710
39.67 	0.045593 	4913 	0.045097
39.69 	0.048413 	4916 	0.047579
39.71 	0.046578 	4895 	0.046339
39.73 	0.050733 	4908 	0.049540
39.75 	0.042005 	4928 	0.041886
39.77 	0.046809 	4935 	0.045978
39.79 	0.049533 	4926 	0.048701
39.81 	0.046073 	4927 	0.045359
39.83 	0.046818 	4934 	0.046581
39.85 	0.040999 	4927 	0.040523
39.87 	0.046091 	4925 	0.045853
39.89 	0.045399 	4934 	0.044449
39.91 	0.045713 	4922 	0.044999
39.93 	0.044967 	4937 	0.044373
39.95 	0.042930 	4915 	0.042453
39.97 	0.043222 	4928 	0.042747
39.99 	0.046431 	4932 	0.045956
40.01 	0.043107 	4918 	0.042511
40.03 	0.043019 	4928 	0.042544
40.05 	0.048403 	4917 	0.047689
40.07 	0.047329 	4923 	0.046377
40.09 	0.051261 	4916 	0.050427
40.11 	0.045769 	4916 	0.044458
40.13 	0.041667 	4896 	0.041308
40.15 	0.042947 	4913 	0.042590
40.17 	0.038352 	4928 	0.038115
40.19 	0.042808 	4929 	0.042214
40.21 	0.044580 	4935 	0.043867
40.23 	0.044404 	4932 	0.043810
40.25 	0.044309 	4920 	0.043337
40.27 	0.042536 	4937 	0.041943
40.29 	0.042419 	4927 	0.042182
40.31 	0.046366 	4939 	0.045891
40.33 	0.048256 	4932 	0.047544
40.35 	0.042488 	4919 	0.042250
40.37 	0.044837 	4929 	0.044480
40.39 	0.044413 	4931 	0.044057
40.41 	0.040000 	4925 	0.039643
40.43 	0.045104 	4922 	0.044509
40.45 	0.044800 	4933 	0.043613
40.47 	0.038634 	4918 	0.038514
40.49 	0.043849 	4926 	0.043373
40.51 	0.045307 	4922 	0.044474
40.53 	0.044955 	4916 	0.044717
40.55 	0.041157 	4908 	0.040919
40.57 	0.045603 	4890 	0.044625
40.59 	0.041928 	4937 	0.041335
40.61 	0.040527 	4935 	0.039933
40.63 	0.042394 	4930 	0.041918
40.65 	0.040308 	4937 	0.039952
40.67 	0.046634 	4932 	0.046278
40.69 	0.037675 	4937 	0.037200
40.71 	0.047445 	4932 	0.047089
40.73 	0.042428 	4926 	0.041833
40.75 	0.042588 	4931 	0.042113
40.77 	0.044138 	4939 	0.043545
40.79 	0.041430 	4924 	0.041430
40.81 	0.041287 	4941 	0.041050
40.83 	0.041802 	4928 	0.040831
40.85 	0.048538 	4924 	0.048181
40.87 	0.046469 	4928 	0.045994
40.89 	0.047860 	4931 	0.046910
40.91 	0.043673 	4923 	0.043435
40.93 	0.041548 	4934 	0.041311
40.95 	0.036841 	4913 	0.036006
40.97 	0.043054 	4924 	0.042579
40.99 	0.045085 	4924 	0.044114
41.01 	0.041531 	4912 	0.041173
41.03 	0.040367 	4905 	0.040128
41.05 	0.043558 	4936 	0.043320
41.07 	0.046450 	4930 	0.046213
41.09 	0.042519 	4939 	0.042282
41.11 	0.044174 	4935 	0.043818
41.13 	0.037277 	4936 	0.037158
41.15 	0.042299 	4941 	0.041706
41.17 	0.043373 	4934 	0.042779
41.19 	0.042596 	4930 	0.041765
41.21 	0.044156 	4937 	0.043919
41.23 	0.042519 	4939 	0.042282
41.25 	0.038516 	4933 	0.038160
41.27 	0.047252 	4931 	0.046658
41.29 	0.042411 	4928 	0.041816
41.31 	0.038516 	4933 	0.037685
41.33 	0.041523 	4937 	0.041167
41.35 	0.041920 	4938 	0.041327
41.37 	0.036962 	4924 	0.036486
41.39 	0.040138 	4933 	0.039544
41.41 	0.049330 	4926 	0.048854
41.43 	0.041591 	4929 	0.041115
41.45 	0.040700 	4914 	0.040342
41.47 	0.038977 	4926 	0.038858
41.49 	0.041496 	4892 	0.041257
41.51 	0.039069 	4940 	0.038120
41.53 	0.043689 	4944 	0.043215
41.55 	0.048024 	4935 	0.047431
41.57 	0.042906 	4941 	0.042076
41.59 	0.048652 	4933 	0.048058
41.61 	0.042600 	4953 	0.042246
41.63 	0.041515 	4938 	0.041159
41.65 	0.046663 	4929 	0.045950
41.67 	0.032996 	4940 	0.032403
41.69 	0.044876 	4947 	0.044639
41.71 	0.041751 	4934 	0.041632
41.73 	0.039708 	4936 	0.039234
41.75 	0.045242 	4929 	0.044767
41.77 	0.046145 	4941 	0.045670
41.79 	0.040858 	4944 	0.040147
41.81 	0.033833 	4936 	0.033833
41.83 	0.040584 	4928 	0.040466
41.85 	0.040089 	4939 	0.039496
41.87 	0.040932 	4935 	0.040457
41.89 	0.047233 	4933 	0.046758
41.91 	0.037277 	4936 	0.036546
41.93 	0.042174 	4932 	0.042174
41.95 	0.040763 	4931 	0.040287
41.97 	0.038869 	4914 	0.038630
41.99 	0.034251 	4905 	0.034251
42.01 	0.039862 	4942 	0.039625
42.03 	0.041304 	4939 	0.040829
42.05 	0.037763 	4952 	0.037644
42.07 	0.039903 	4937 	0.039665
42.09 	0.043856 	4948 	0.043264
42.11 	0.041052 	4945 	0.040578
42.13 	0.041860 	4945 	0.041268
42.15 	0.041110 	4938 	0.040279
42.17 	0.039447 	4918 	0.038613
42.19 	0.041361 	4908 	0.040884
42.21 	0.041012 	4901 	0.040773
42.23 	0.042110 	4892 	0.041631
42.25 	0.043567 	4889 	0.043208
42.27 	0.044112 	4874 	0.043751
42.29 	0.039482 	4863 	0.039120
42.31 	0.040165 	4855 	0.039923
42.33 	0.045718 	4834 	0.044870
42.35 	0.033692 	4838 	0.033571
42.37 	0.041822 	4830 	0.041216
42.39 	0.036220 	4804 	0.035976
42.41 	0.035387 	4804 	0.034879
42.43 	0.039858 	4792 	0.039125
42.45 	0.040201 	4776 	0.040201
42.47 	0.041553 	4765 	0.041184
42.49 	0.044281 	4765 	0.043544
42.51 	0.041535 	4743 	0.041288
42.53 	0.038494 	4728 	0.037875
42.55 	0.042481 	4708 	0.041859
42.57 	0.039746 	4730 	0.039499
42.59 	0.035525 	4729 	0.035154
42.61 	0.042693 	4708 	0.042569
42.63 	0.041835 	4709 	0.041213
42.65 	0.039274 	4685 	0.038899
42.67 	0.038002 	4684 	0.037501
42.69 	0.038083 	4674 	0.037456
42.71 	0.042462 	4663 	0.041708
42.73 	0.043319 	4640 	0.042435
42.75 	0.040286 	4617 	0.039652
42.77 	0.038696 	4600 	0.038314
42.79 	0.044740 	4582 	0.044485
42.81 	0.037484 	4562 	0.036970
42.83 	0.038801 	4536 	0.038542
42.85 	0.038428 	4528 	0.038298
42.87 	0.046010 	4499 	0.045468
42.89 	0.036161 	4480 	0.035899
42.91 	0.038151 	4456 	0.037888
42.93 	0.038237 	4446 	0.037841
42.95 	0.041667 	4416 	0.041003
42.97 	0.037037 	4401 	0.036771
42.99 	0.036716 	4385 	0.036449
43.01 	0.037130 	4363 	0.036191
43.03 	0.038541 	4333 	0.038136
43.05 	0.041387 	4325 	0.040710
43.07 	0.036546 	4296 	0.036273
43.09 	0.036657 	4283 	0.036383
43.11 	0.037603 	4255 	0.037327
43.13 	0.035874 	4237 	0.035736
43.15 	0.038992 	4206 	0.038853
43.17 	0.044030 	4179 	0.043749
43.19 	0.042680 	4194 	0.041842
43.21 	0.040508 	4172 	0.039947
43.23 	0.036351 	4154 	0.036209
43.25 	0.038936 	4135 	0.038369
43.27 	0.039464 	4105 	0.039036
43.29 	0.038293 	4100 	0.038150
43.31 	0.037019 	4079 	0.036444
43.33 	0.034313 	4051 	0.034023
43.35 	0.035962 	4032 	0.035526
43.37 	0.035367 	4015 	0.034930
43.39 	0.036232 	4002 	0.035939
43.41 	0.031722 	3972 	0.031132
43.43 	0.040404 	3960 	0.039516
43.45 	0.036086 	3935 	0.035938
43.47 	0.040041 	3921 	0.039742
43.49 	0.044137 	3897 	0.043836
43.51 	0.043332 	3877 	0.043181
43.53 	0.039089 	3863 	0.038634
43.55 	0.034750 	2964 	0.034553
43.57 	0.031278 	2238 	0.030231
43.59 	0.038946 	1746 	0.037549
43.61 	0.046632 	1351 	0.044898
43.63 	0.032967 	1001 	0.032967
43.65 	0.052402 	687 	0.051549
43.67 	0.037849 	502 	0.037849
43.69 	0.051771 	367 	0.051771
43.71 	0.029289 	239 	0.029289
43.73 	0.033333 	120 	0.033333
43.75 	0.000000 	16 	0.000000