File: Example_Data/25SC_s1_0024.002.dat
#F C:\frames\spec\25SC_s1_0024.002
#C title =s:24 frm:2 25SC_s1
#C wavelength =0.15406

#S 1  fr_average C:\frames\spec\25SC_s1_0024.002 C:\win32app\speccom\mask.axs chi 0 180 0 360 0.02
#C 2 theta =0.000000 to 180 deg
#C   q   =0.000000 to 81.568 nm^-1
#C  chi  =0.000000 to 360 deg
#C collumns:
#C  1 position (2theta or chi in degrees)
#C  2 average intensity (sum of all counts in the region divided with number of pixels)
#C  3 Number of pixels in region)
#C  4 error (sum of sqrt(intensity) for all pixels divided by number)
#N 4
#L TTh  Int  N_pix  Err
32.99 	0.098361 	61 	0.098361
33.01 	0.052692 	873 	0.051350
33.03 	0.058231 	1391 	0.057389
33.05 	0.061468 	1757 	0.059801
33.07 	0.058537 	2050 	0.057679
33.09 	0.057946 	2347 	0.057697
33.11 	0.049632 	2579 	0.048723
33.13 	0.058002 	2793 	0.056953
33.15 	0.063688 	2999 	0.062711
33.17 	0.055295 	3201 	0.054380
33.19 	0.061341 	3342 	0.060289
33.21 	0.059953 	3436 	0.059101
33.23 	0.055067 	3523 	0.053404
33.25 	0.061462 	3612 	0.060489
33.27 	0.058953 	3630 	0.057797
33.29 	0.055373 	3648 	0.054088
33.31 	0.055191 	3660 	0.054231
33.33 	0.057515 	3686 	0.057038
33.35 	0.059285 	3694 	0.057515
33.37 	0.062736 	3714 	0.061947
33.39 	0.063824 	3729 	0.063039
33.41 	0.061497 	3740 	0.060062
33.43 	0.061952 	3761 	0.061484
33.45 	0.064140 	3773 	0.062432
33.47 	0.054502 	3798 	0.053397
33.49 	0.053032 	3809 	0.052699
33.51 	0.061861 	3815 	0.060479
33.53 	0.056235 	3841 	0.055168
33.55 	0.065053 	3843 	0.063681
33.57 	0.053650 	3877 	0.053348
33.59 	0.051546 	3880 	0.050339
33.61 	0.056025 	3909 	0.054826
33.63 	0.057923 	3919 	0.056727
33.65 	0.061816 	3931 	0.060475
33.67 	0.057663 	3954 	0.056922
33.69 	0.056160 	3953 	0.055271
33.71 	0.061132 	3975 	0.060395
33.73 	0.055195 	4004 	0.054024
33.75 	0.063516 	3999 	0.062051
33.77 	0.065093 	4025 	0.063929
33.79 	0.057412 	4041 	0.056542
33.81 	0.062159 	4038 	0.061579
33.83 	0.062963 	4050 	0.061782
33.85 	0.053428 	4099 	0.052856
33.87 	0.064461 	4111 	0.063464
33.89 	0.062364 	4121 	0.061368
33.91 	0.057363 	4149 	0.056093
33.93 	0.054927 	4151 	0.054785
33.95 	0.060990 	4181 	0.059286
33.97 	0.062291 	4190 	0.061150
33.99 	0.055952 	4200 	0.055673
34.01 	0.059340 	4213 	0.058645
34.03 	0.053959 	4244 	0.052832
34.05 	0.055503 	4252 	0.054539
34.07 	0.055295 	4268 	0.054883
34.09 	0.061363 	4286 	0.060816
34.11 	0.058810 	4302 	0.057312
34.13 	0.061746 	4308 	0.060522
34.15 	0.051720 	4331 	0.051044
34.17 	0.066667 	4350 	0.065029
34.19 	0.056167 	4362 	0.055764
34.21 	0.057195 	4371 	0.056659
34.23 	0.058275 	4393 	0.057074
34.25 	0.066076 	4404 	0.064081
34.27 	0.057214 	4422 	0.056684
34.29 	0.055242 	4435 	0.054318
34.31 	0.054509 	4458 	0.053458
34.33 	0.058824 	4471 	0.058168
34.35 	0.058653 	4484 	0.057216
34.37 	0.055890 	4491 	0.055759
34.39 	0.055753 	4502 	0.054691
34.41 	0.058551 	4526 	0.057127
34.43 	0.059264 	4539 	0.058361
34.45 	0.053142 	4535 	0.052496
34.47 	0.060758 	4592 	0.059865
34.49 	0.055906 	4597 	0.055141
34.51 	0.058836 	4606 	0.058200
34.53 	0.052552 	4643 	0.051921
34.55 	0.055352 	4643 	0.054974
34.57 	0.053004 	4660 	0.052753
34.59 	0.060963 	4675 	0.059960
34.61 	0.065574 	4697 	0.064431
34.63 	0.054352 	4710 	0.053979
34.65 	0.052743 	4721 	0.052495
34.67 	0.052942 	4741 	0.051830
34.69 	0.058687 	4754 	0.057825
34.71 	0.054763 	4766 	0.054148
34.73 	0.062252 	4787 	0.061028
34.75 	0.057820 	4808 	0.057211
34.77 	0.056870 	4818 	0.056141
34.79 	0.061567 	4824 	0.060090
34.81 	0.064190 	4845 	0.062961
34.83 	0.057384 	4862 	0.056299
34.85 	0.055864 	4869 	0.055002
34.87 	0.059162 	4868 	0.058320
34.89 	0.056944 	4882 	0.055124
34.91 	0.061245 	4882 	0.060405
34.93 	0.054501 	4899 	0.053305
34.95 	0.054806 	4890 	0.053847
34.97 	0.055692 	4902 	0.054975
34.99 	0.059220 	4897 	0.057784
35.01 	0.065001 	4923 	0.063930
35.03 	0.055634 	4943 	0.054805
35.05 	0.054781 	4947 	0.053597
35.07 	0.061336 	4940 	0.059794
35.09 	0.055320 	4953 	0.054118
35.11 	0.062058 	4947 	0.060637
35.13 	0.049415 	4958 	0.048352
35.15 	0.049625 	4937 	0.048795
35.17 	0.054792 	4946 	0.053469
35.19 	0.054634 	4942 	0.053330
35.21 	0.057230 	4945 	0.055926
35.23 	0.053387 	4945 	0.052746
35.25 	0.055837 	4943 	0.054177
35.27 	0.062045 	4948 	0.061217
35.29 	0.057230 	4945 	0.056756
35.31 	0.056761 	4933 	0.055573
35.33 	0.058264 	4943 	0.057672
35.35 	0.057871 	4942 	0.056923
35.37 	0.053857 	4939 	0.053027
35.39 	0.057432 	4945 	0.056958
35.41 	0.064961 	4926 	0.063772
35.43 	0.054125 	4933 	0.053532
35.45 	0.054284 	4937 	0.053097
35.47 	0.053742 	4931 	0.052910
35.49 	0.059267 	4910 	0.058193
35.51 	0.055217 	4926 	0.054504
35.53 	0.052738 	4949 	0.051199
35.55 	0.059454 	4945 	0.057796
35.57 	0.058585 	4933 	0.057279
35.59 	0.056825 	4945 	0.055640
35.61 	0.063132 	4942 	0.061710
35.63 	0.059883 	4943 	0.059034
35.65 	0.051972 	4945 	0.051142
35.67 	0.057669 	4942 	0.056346
35.69 	0.057016 	4946 	0.056305
35.71 	0.056309 	4937 	0.055954
35.73 	0.060575 	4936 	0.059626
35.75 	0.055770 	4931 	0.054582
35.77 	0.062412 	4951 	0.061702
35.79 	0.060624 	4932 	0.059912
35.81 	0.053314 	4933 	0.052364
35.83 	0.056814 	4946 	0.056221
35.85 	0.058561 	4935 	0.057612
35.87 	0.054032 	4923 	0.052961
35.89 	0.056141 	4934 	0.055073
35.91 	0.061295 	4927 	0.060582
35.93 	0.059265 	4927 	0.058552
35.95 	0.061420 	4917 	0.060347
35.97 	0.062704 	4912 	0.060915
35.99 	0.059324 	4939 	0.058494
36.01 	0.060649 	4930 	0.059580
36.03 	0.060287 	4943 	0.059458
36.05 	0.058645 	4945 	0.057697
36.07 	0.057299 	4939 	0.057062
36.09 	0.051619 	4940 	0.050789
36.11 	0.063096 	4929 	0.061650
36.13 	0.057062 	4942 	0.055995
36.15 	0.061956 	4939 	0.060888
36.17 	0.061929 	4925 	0.060977
36.19 	0.053644 	4940 	0.052577
36.21 	0.063502 	4929 	0.062076
36.23 	0.056738 	4935 	0.055669
36.25 	0.058085 	4941 	0.056900
36.27 	0.058680 	4925 	0.057372
36.29 	0.053944 	4931 	0.053232
36.31 	0.057427 	4928 	0.055862
36.33 	0.058585 	4933 	0.057873
36.35 	0.055589 	4929 	0.054163
36.37 	0.057892 	4923 	0.056821
36.39 	0.062589 	4921 	0.061994
36.41 	0.055351 	4896 	0.054394
36.43 	0.064529 	4928 	0.063816
36.45 	0.056389 	4930 	0.055677
36.47 	0.052472 	4936 	0.051760
36.49 	0.059692 	4942 	0.059100
36.51 	0.057369 	4933 	0.056419
36.53 	0.056241 	4943 	0.055767
36.55 	0.057439 	4927 	0.056606
36.57 	0.054114 	4934 	0.052808
36.59 	0.061146 	4939 	0.060079
36.61 	0.055770 	4931 	0.054819
36.63 	0.056581 	4931 	0.055036
36.65 	0.059813 	4932 	0.058863
36.67 	0.059432 	4930 	0.058600
36.69 	0.055386 	4929 	0.054673
36.71 	0.055680 	4921 	0.055323
36.73 	0.051168 	4925 	0.051049
36.75 	0.057241 	4944 	0.055306
36.77 	0.054483 	4919 	0.053530
36.79 	0.056086 	4921 	0.055015
36.81 	0.056753 	4916 	0.056515
36.83 	0.059207 	4915 	0.058849
36.85 	0.055329 	4898 	0.054233
36.87 	0.052184 	4944 	0.051474
36.89 	0.062042 	4916 	0.061546
36.91 	0.057276 	4941 	0.056090
36.93 	0.052130 	4930 	0.051179
36.95 	0.059396 	4933 	0.058208
36.97 	0.053912 	4934 	0.053318
36.99 	0.051064 	4935 	0.050708
37.01 	0.054936 	4933 	0.054224
37.03 	0.052600 	4924 	0.051886
37.05 	0.055003 	4927 	0.053695
37.07 	0.057751 	4935 	0.056445
37.09 	0.059862 	4928 	0.058792
37.11 	0.055522 	4935 	0.054572
37.13 	0.059911 	4924 	0.059197
37.15 	0.051131 	4909 	0.050653
37.17 	0.054722 	4934 	0.053891
37.19 	0.054010 	4925 	0.052821
37.21 	0.055928 	4917 	0.055194
37.23 	0.052867 	4918 	0.051319
37.25 	0.053350 	4911 	0.052515
37.27 	0.051900 	4894 	0.051043
37.29 	0.055984 	4930 	0.054201
37.31 	0.054914 	4935 	0.054439
37.33 	0.057642 	4927 	0.057166
37.35 	0.055488 	4938 	0.054539
37.37 	0.048914 	4927 	0.048557
37.39 	0.053944 	4931 	0.052994
37.41 	0.049686 	4931 	0.049329
37.43 	0.048662 	4932 	0.047949
37.45 	0.052193 	4924 	0.051599
37.47 	0.058227 	4929 	0.057157
37.49 	0.057688 	4923 	0.056499
37.51 	0.053517 	4933 	0.052310
37.53 	0.052043 	4919 	0.051547
37.55 	0.053753 	4930 	0.053040
37.57 	0.050152 	4925 	0.049439
37.59 	0.053306 	4915 	0.052472
37.61 	0.051808 	4922 	0.050975
37.63 	0.052043 	4919 	0.051209
37.65 	0.049410 	4918 	0.048696
37.67 	0.054445 	4904 	0.053251
37.69 	0.054308 	4898 	0.053351
37.71 	0.057415 	4929 	0.056227
37.73 	0.054981 	4929 	0.053654
37.75 	0.054656 	4940 	0.053351
37.77 	0.055285 	4920 	0.054451
37.79 	0.052738 	4930 	0.051907
37.81 	0.056152 	4933 	0.055084
37.83 	0.052236 	4920 	0.051045
37.85 	0.055262 	4922 	0.054310
37.87 	0.050010 	4939 	0.049773
37.89 	0.052792 	4925 	0.051602
37.91 	0.051724 	4930 	0.050892
37.93 	0.055499 	4919 	0.054665
37.95 	0.059947 	4921 	0.058995
37.97 	0.048691 	4929 	0.048216
37.99 	0.058632 	4912 	0.058036
38.01 	0.052760 	4928 	0.051096
38.03 	0.052557 	4909 	0.051841
38.05 	0.052792 	4925 	0.052316
38.07 	0.052760 	4909 	0.052283
38.09 	0.055966 	4878 	0.054885
38.11 	0.055522 	4935 	0.054453
38.13 	0.052664 	4937 	0.052070
38.15 	0.050630 	4918 	0.050035
38.17 	0.055578 	4930 	0.054746
38.19 	0.056187 	4930 	0.055355
38.21 	0.054845 	4923 	0.053536
38.23 	0.055286 	4938 	0.054218
38.25 	0.057759 	4917 	0.056567
38.27 	0.060243 	4930 	0.058936
38.29 	0.051178 	4924 	0.049988
38.31 	0.059062 	4927 	0.057517
38.33 	0.052803 	4924 	0.051970
38.35 	0.062500 	4928 	0.062143
38.37 	0.057880 	4924 	0.057166
38.39 	0.058057 	4909 	0.056505
38.41 	0.061548 	4923 	0.060834
38.43 	0.061432 	4916 	0.060598
38.45 	0.064050 	4918 	0.063217
38.47 	0.063583 	4907 	0.062369
38.49 	0.066024 	4877 	0.065183
38.51 	0.060422 	4932 	0.058996
38.53 	0.062284 	4929 	0.061334
38.55 	0.067261 	4936 	0.065718
38.57 	0.057079 	4923 	0.056008
38.59 	0.063363 	4924 	0.062530
38.61 	0.056524 	4936 	0.055574
38.63 	0.062754 	4924 	0.061802
38.65 	0.061204 	4918 	0.060013
38.67 	0.059145 	4937 	0.057346
38.69 	0.062170 	4922 	0.061337
38.71 	0.062145 	4924 	0.061431
38.73 	0.058357 	4918 	0.057404
38.75 	0.054191 	4927 	0.053002
38.77 	0.052610 	4923 	0.051896
38.79 	0.061613 	4934 	0.060288
38.81 	0.059446 	4912 	0.058711
38.83 	0.057532 	4919 	0.056937
38.85 	0.051099 	4912 	0.050980
38.87 	0.051517 	4911 	0.050563
38.89 	0.051664 	4897 	0.050707
38.91 	0.050173 	4903 	0.049934
38.93 	0.050020 	4938 	0.049664
38.95 	0.051240 	4918 	0.049672
38.97 	0.050497 	4931 	0.049665
38.99 	0.049625 	4937 	0.048913
39.01 	0.049410 	4918 	0.048815
39.03 	0.048845 	4934 	0.048132
39.05 	0.042437 	4925 	0.041842
39.07 	0.048538 	4924 	0.047705
39.09 	0.046313 	4923 	0.045956
39.11 	0.044210 	4931 	0.043616
39.13 	0.046516 	4923 	0.045921
39.15 	0.049847 	4915 	0.048894
39.17 	0.048815 	4937 	0.048459
39.19 	0.048607 	4917 	0.048369
39.21 	0.047047 	4910 	0.045734
39.23 	0.046497 	4925 	0.046260
39.25 	0.041040 	4922 	0.040683
39.27 	0.048269 	4910 	0.047553
39.29 	0.048766 	4901 	0.047809
39.31 	0.043202 	4884 	0.042483
39.33 	0.043805 	4931 	0.043329
39.35 	0.044782 	4935 	0.043714
39.37 	0.038953 	4929 	0.038478
39.39 	0.043214 	4929 	0.042025
39.41 	0.045630 	4931 	0.045273
39.43 	0.047436 	4933 	0.046604
39.45 	0.042437 	4925 	0.042318
39.47 	0.040829 	4923 	0.040353
39.49 	0.047030 	4933 	0.046080
39.51 	0.049553 	4924 	0.049434
39.53 	0.043266 	4923 	0.042790
39.55 	0.045944 	4919 	0.045587
39.57 	0.044598 	4933 	0.044004
39.59 	0.044992 	4912 	0.044634
39.61 	0.047329 	4923 	0.046853
39.63 	0.046526 	4922 	0.045931
39.65 	0.044864 	4926 	0.044507
39.67 	0.048850 	4913 	0.048492
39.69 	0.045769 	4916 	0.045411
39.71 	0.044944 	4895 	0.044345
39.73 	0.047066 	4908 	0.046827
39.75 	0.045252 	4928 	0.044301
39.77 	0.043972 	4935 	0.043497
39.79 	0.047909 	4926 	0.047196
39.81 	0.049523 	4927 	0.048691
39.83 	0.046210 	4934 	0.045379
39.85 	0.049117 	4927 	0.048523
39.87 	0.049949 	4925 	0.049117
39.89 	0.046210 	4934 	0.045498
39.91 	0.044697 	4922 	0.044459
39.93 	0.044561 	4937 	0.043968
39.95 	0.048016 	4915 	0.047659
39.97 	0.047890 	4928 	0.047295
39.99 	0.049473 	4932 	0.048641
40.01 	0.043310 	4918 	0.042715
40.03 	0.048093 	4928 	0.047736
40.05 	0.044743 	4917 	0.044385
40.07 	0.043876 	4923 	0.043638
40.09 	0.042107 	4916 	0.041631
40.11 	0.044345 	4916 	0.043868
40.13 	0.041667 	4896 	0.040809
40.15 	0.043761 	4913 	0.042669
40.17 	0.047281 	4928 	0.046805
40.19 	0.045648 	4929 	0.045173
40.21 	0.044782 	4935 	0.044545
40.23 	0.041768 	4932 	0.040937
40.25 	0.039634 	4920 	0.039158
40.27 	0.044764 	4937 	0.044289
40.29 	0.039781 	4927 	0.039543
40.31 	0.042924 	4939 	0.042449
40.33 	0.039335 	4932 	0.038741
40.35 	0.043301 	4919 	0.042944
40.37 	0.046054 	4929 	0.045341
40.39 	0.048063 	4931 	0.047469
40.41 	0.045482 	4925 	0.044630
40.43 	0.046323 	4922 	0.045609
40.45 	0.041760 	4933 	0.040691
40.47 	0.050224 	4918 	0.049628
40.49 	0.046285 	4926 	0.045928
40.51 	0.042259 	4922 	0.041188
40.53 	0.045159 	4916 	0.044424
40.55 	0.041769 	4908 	0.041291
40.57 	0.042331 	4890 	0.041732
40.59 	0.042739 	4937 	0.042145
40.61 	0.043364 	4935 	0.043008
40.63 	0.047465 	4930 	0.046257
40.65 	0.043346 	4937 	0.042753
40.67 	0.045012 	4932 	0.044537
40.69 	0.042131 	4937 	0.041894
40.71 	0.047648 	4932 	0.046935
40.73 	0.041616 	4926 	0.041021
40.75 	0.041168 	4931 	0.041049
40.77 	0.049200 	4939 	0.048133
40.79 	0.041024 	4924 	0.040667
40.81 	0.046347 	4941 	0.045379
40.83 	0.045657 	4928 	0.044944
40.85 	0.043054 	4924 	0.042698
40.87 	0.047484 	4928 	0.047127
40.89 	0.043399 	4931 	0.042805
40.91 	0.043063 	4923 	0.042587
40.93 	0.045399 	4934 	0.044924
40.95 	0.046815 	4913 	0.045622
40.97 	0.037774 	4924 	0.036941
40.99 	0.042242 	4924 	0.042004
41.01 	0.041531 	4912 	0.041054
41.03 	0.044037 	4905 	0.043440
41.05 	0.045786 	4936 	0.045311
41.07 	0.044625 	4930 	0.044149
41.09 	0.041101 	4939 	0.040153
41.11 	0.041743 	4935 	0.041268
41.13 	0.045989 	4936 	0.045158
41.15 	0.039061 	4941 	0.038468
41.17 	0.040940 	4934 	0.040347
41.19 	0.043002 	4930 	0.042646
41.21 	0.045979 	4937 	0.045386
41.23 	0.040899 	4939 	0.040899
41.25 	0.036489 	4933 	0.036370
41.27 	0.039951 	4931 	0.039239
41.29 	0.040787 	4928 	0.040074
41.31 	0.037097 	4933 	0.036741
41.33 	0.043144 	4937 	0.042669
41.35 	0.043135 	4938 	0.042542
41.37 	0.040820 	4924 	0.039968
41.39 	0.041557 	4933 	0.040963
41.41 	0.038774 	4926 	0.038298
41.43 	0.041388 	4929 	0.041031
41.45 	0.039683 	4914 	0.039206
41.47 	0.038774 	4926 	0.038179
41.49 	0.040883 	4892 	0.040644
41.51 	0.041296 	4940 	0.040821
41.53 	0.038835 	4944 	0.038835
41.55 	0.039514 	4935 	0.039158
41.57 	0.043513 	4941 	0.042446
41.59 	0.039732 	4933 	0.039376
41.61 	0.040178 	4953 	0.039350
41.63 	0.041312 	4938 	0.040838
41.65 	0.039765 	4929 	0.039765
41.67 	0.037652 	4940 	0.037296
41.69 	0.038407 	4947 	0.038289
41.71 	0.044183 	4934 	0.043471
41.73 	0.044773 	4936 	0.044061
41.75 	0.039765 	4929 	0.039052
41.77 	0.042502 	4941 	0.041553
41.79 	0.045105 	4944 	0.044019
41.81 	0.035859 	4936 	0.035384
41.83 	0.041193 	4928 	0.040955
41.85 	0.036242 	4939 	0.036242
41.87 	0.043566 	4935 	0.042597
41.89 	0.040949 	4933 	0.040949
41.91 	0.040924 	4936 	0.040449
41.93 	0.039132 	4932 	0.038776
41.95 	0.038735 	4931 	0.038497
41.97 	0.041921 	4914 	0.041444
41.99 	0.041590 	4905 	0.040874
42.01 	0.039458 	4942 	0.038865
42.03 	0.041709 	4939 	0.041353
42.05 	0.040590 	4952 	0.040116
42.07 	0.036257 	4937 	0.036138
42.09 	0.043452 	4948 	0.042860
42.11 	0.040040 	4945 	0.039448
42.13 	0.040243 	4945 	0.039413
42.15 	0.042932 	4938 	0.042339
42.17 	0.039244 	4918 	0.038648
42.19 	0.035249 	4908 	0.035010
42.21 	0.042644 	4901 	0.042644
42.23 	0.035364 	4892 	0.035124
42.25 	0.039067 	4889 	0.038348
42.27 	0.040624 	4874 	0.039302
42.29 	0.041949 	4863 	0.041588
42.31 	0.037281 	4855 	0.036678
42.33 	0.036823 	4834 	0.036217
42.35 	0.036999 	4838 	0.036757
42.37 	0.039337 	4830 	0.038954
42.39 	0.038093 	4804 	0.037971
42.41 	0.038926 	4804 	0.038682
42.43 	0.040067 	4792 	0.039578
42.45 	0.041667 	4776 	0.040931
42.47 	0.035257 	4765 	0.034888
42.49 	0.038615 	4765 	0.037980
42.51 	0.038372 	4743 	0.037878
42.53 	0.039552 	4728 	0.038932
42.55 	0.039720 	4708 	0.039471
42.57 	0.040169 	4730 	0.039674
42.59 	0.034468 	4729 	0.033973
42.61 	0.040569 	4708 	0.040072
42.63 	0.039074 	4709 	0.038452
42.65 	0.039274 	4685 	0.038774
42.67 	0.036721 	4684 	0.036346
42.69 	0.037013 	4674 	0.036637
42.71 	0.042033 	4663 	0.041656
42.73 	0.042026 	4640 	0.041521
42.75 	0.034221 	4617 	0.034094
42.77 	0.040435 	4600 	0.040053
42.79 	0.041903 	4582 	0.041775
42.81 	0.034853 	4562 	0.034468
42.83 	0.039021 	4536 	0.039021
42.85 	0.039973 	4528 	0.039327
42.87 	0.038231 	4499 	0.037970
42.89 	0.040848 	4480 	0.040587
42.91 	0.037478 	4456 	0.037193
42.93 	0.038012 	4446 	0.037353
42.95 	0.040534 	4416 	0.039739
42.97 	0.036128 	4401 	0.035308
42.99 	0.042645 	4385 	0.041977
43.01 	0.044923 	4363 	0.044118
43.03 	0.035772 	4333 	0.034939
43.05 	0.036301 	4325 	0.035352
43.07 	0.036778 	4296 	0.036506
43.09 	0.039458 	4283 	0.039185
43.11 	0.044888 	4255 	0.044751
43.13 	0.039415 	4237 	0.039138
43.15 	0.039705 	4206 	0.039427
43.17 	0.041397 	4179 	0.040977
43.19 	0.040534 	4194 	0.039975
43.21 	0.032359 	4172 	0.032078
43.23 	0.037313 	4154 	0.036749
43.25 	0.037001 	4135 	0.036576
43.27 	0.031425 	4105 	0.030997
43.29 	0.041220 	4100 	0.040791
43.31 	0.038000 	4079 	0.037856
43.33 	0.036287 	4051 	0.035998
43.35 	0.031994 	4032 	0.031849
43.37 	0.037609 	4015 	0.037171
43.39 	0.037981 	4002 	0.037688
43.41 	0.041037 	3972 	0.040447
43.43 	0.039394 	3960 	0.038802
43.45 	0.037103 	3935 	0.036805
43.47 	0.039531 	3921 	0.038933
43.49 	0.040287 	3897 	0.039836
43.51 	0.038432 	3877 	0.038130
43.53 	0.039089 	3863 	0.038937
43.55 	0.039811 	2964 	0.039416
43.57 	0.037980 	2238 	0.037457
43.59 	0.039519 	1746 	0.039183
43.61 	0.023686 	1351 	0.023253
43.63 	0.031968 	1001 	0.031968
43.65 	0.033479 	687 	0.032626
43.67 	0.035857 	502 	0.035857
43.69 	0.049046 	367 	0.049046
43.71 	0.025105 	239 	0.025105
43.73 	0.050000 	120 	0.050000
43.75 	0.062500 	16 	0.062500