File: Example_Data/25SC_s1_0047.003.dat
#F C:\frames\spec\25SC_s1_0047.003
#C title =s:47 frm:3 25SC_s1
#C wavelength =0.15406

#S 1  fr_average C:\frames\spec\25SC_s1_0047.003 C:\win32app\speccom\mask.axs chi 0 180 0 360 0.02
#C 2 theta =0.000000 to 180 deg
#C   q   =0.000000 to 81.568 nm^-1
#C  chi  =0.000000 to 360 deg
#C collumns:
#C  1 position (2theta or chi in degrees)
#C  2 average intensity (sum of all counts in the region divided with number of pixels)
#C  3 Number of pixels in region)
#C  4 error (sum of sqrt(intensity) for all pixels divided by number)
#N 4
#L TTh  Int  N_pix  Err
32.99 	0.032787 	61 	0.032787
33.01 	0.044674 	873 	0.043332
33.03 	0.048886 	1391 	0.048886
33.05 	0.058054 	1757 	0.057387
33.07 	0.061463 	2050 	0.060606
33.09 	0.059651 	2347 	0.059151
33.11 	0.066693 	2579 	0.065330
33.13 	0.059076 	2793 	0.057818
33.15 	0.060020 	2999 	0.059043
33.17 	0.056232 	3201 	0.055134
33.19 	0.060443 	3342 	0.059742
33.21 	0.064901 	3436 	0.063367
33.23 	0.059892 	3523 	0.059227
33.25 	0.056478 	3612 	0.056316
33.27 	0.059229 	3630 	0.058099
33.29 	0.061952 	3648 	0.060988
33.31 	0.056284 	3660 	0.055137
33.33 	0.061313 	3686 	0.060360
33.35 	0.060368 	3694 	0.059417
33.37 	0.065428 	3714 	0.063983
33.39 	0.057120 	3729 	0.056309
33.41 	0.058556 	3740 	0.057773
33.43 	0.059293 	3761 	0.058514
33.45 	0.058044 	3773 	0.056336
33.47 	0.058715 	3798 	0.057481
33.49 	0.059858 	3809 	0.058474
33.51 	0.058716 	3815 	0.058101
33.53 	0.053632 	3841 	0.053174
33.55 	0.056466 	3843 	0.054917
33.57 	0.061646 	3877 	0.060286
33.59 	0.062629 	3880 	0.061723
33.61 	0.063443 	3909 	0.061495
33.63 	0.071702 	3919 	0.070656
33.65 	0.060544 	3931 	0.059352
33.67 	0.064492 	3954 	0.062541
33.69 	0.056413 	3953 	0.055672
33.71 	0.059371 	3975 	0.057750
33.73 	0.058442 	4004 	0.057564
33.75 	0.062016 	3999 	0.060990
33.77 	0.060621 	4025 	0.059602
33.79 	0.060134 	4041 	0.058468
33.81 	0.057702 	4038 	0.056227
33.83 	0.064444 	4050 	0.062396
33.85 	0.062698 	4099 	0.061841
33.87 	0.064218 	4111 	0.063505
33.89 	0.058724 	4121 	0.058013
33.91 	0.062425 	4149 	0.062283
33.93 	0.055167 	4151 	0.053756
33.95 	0.058120 	4181 	0.057840
33.97 	0.061575 	4190 	0.060317
33.99 	0.065000 	4200 	0.064442
34.01 	0.059577 	4213 	0.058743
34.03 	0.057729 	4244 	0.057038
34.05 	0.061383 	4252 	0.060143
34.07 	0.059044 	4268 	0.058358
34.09 	0.058563 	4286 	0.057469
34.11 	0.057415 	4302 	0.056326
34.13 	0.062906 	4308 	0.061818
34.15 	0.066266 	4331 	0.064756
34.17 	0.063678 	4350 	0.063140
34.19 	0.063503 	4362 	0.062294
34.21 	0.058110 	4371 	0.056904
34.23 	0.055315 	4393 	0.054249
34.25 	0.060173 	4404 	0.059353
34.27 	0.061284 	4422 	0.060357
34.29 	0.058174 	4435 	0.057117
34.31 	0.062135 	4458 	0.060690
34.33 	0.056140 	4471 	0.055222
34.35 	0.050624 	4484 	0.050102
34.37 	0.052772 	4491 	0.051990
34.39 	0.056864 	4502 	0.055693
34.41 	0.061644 	4526 	0.060199
34.43 	0.059264 	4539 	0.058619
34.45 	0.058655 	4535 	0.058397
34.47 	0.067509 	4592 	0.065213
34.49 	0.055253 	4597 	0.054234
34.51 	0.060139 	4606 	0.059376
34.53 	0.063967 	4643 	0.062832
34.55 	0.056644 	4643 	0.055383
34.57 	0.053219 	4660 	0.052590
34.59 	0.062246 	4675 	0.061118
34.61 	0.062806 	4697 	0.061933
34.63 	0.061996 	4710 	0.061105
34.65 	0.057615 	4721 	0.056746
34.67 	0.059903 	4741 	0.058544
34.69 	0.057425 	4754 	0.056193
34.71 	0.058959 	4766 	0.057607
34.73 	0.061834 	4787 	0.060978
34.75 	0.061356 	4808 	0.060381
34.77 	0.059776 	4818 	0.058925
34.79 	0.059287 	4824 	0.058194
34.81 	0.057379 	4845 	0.056653
34.83 	0.053065 	4862 	0.052703
34.85 	0.056891 	4869 	0.056169
34.87 	0.063887 	4868 	0.063165
34.89 	0.057968 	4882 	0.056768
34.91 	0.062270 	4882 	0.061670
34.93 	0.058379 	4899 	0.057303
34.95 	0.053374 	4890 	0.052536
34.97 	0.055896 	4902 	0.054581
34.99 	0.052277 	4897 	0.051320
35.01 	0.056470 	4923 	0.055280
35.03 	0.061299 	4943 	0.059995
35.05 	0.064079 	4947 	0.063369
35.07 	0.057287 	4940 	0.056695
35.09 	0.057137 	4953 	0.056191
35.11 	0.060643 	4947 	0.058867
35.13 	0.060912 	4958 	0.059966
35.15 	0.058132 	4937 	0.056827
35.17 	0.060251 	4946 	0.058711
35.19 	0.062121 	4942 	0.061528
35.21 	0.057634 	4945 	0.057042
35.23 	0.059050 	4945 	0.058102
35.25 	0.059276 	4943 	0.058683
35.27 	0.061843 	4948 	0.061133
35.29 	0.052983 	4945 	0.051917
35.31 	0.053112 	4933 	0.052518
35.33 	0.059478 	4943 	0.058648
35.35 	0.063739 	4942 	0.062772
35.37 	0.056894 	4939 	0.056064
35.39 	0.061881 	4945 	0.060795
35.41 	0.061916 	4926 	0.061084
35.43 	0.063450 	4933 	0.062500
35.45 	0.055499 	4937 	0.054431
35.47 	0.057392 	4931 	0.056323
35.49 	0.060081 	4910 	0.059485
35.51 	0.058871 	4926 	0.057544
35.53 	0.056779 	4949 	0.055240
35.55 	0.059858 	4945 	0.059148
35.57 	0.055747 	4933 	0.055035
35.59 	0.061476 	4945 	0.060765
35.61 	0.056050 	4942 	0.055339
35.63 	0.059073 	4943 	0.057888
35.65 	0.059656 	4945 	0.057998
35.67 	0.057062 	4942 	0.056351
35.69 	0.061262 	4946 	0.060433
35.71 	0.057525 	4937 	0.056576
35.73 	0.054092 	4936 	0.053024
35.75 	0.056784 	4931 	0.055952
35.77 	0.057766 	4951 	0.057411
35.79 	0.061436 	4932 	0.060822
35.81 	0.056152 	4933 	0.054846
35.83 	0.060049 	4946 	0.059338
35.85 	0.058156 	4935 	0.056732
35.87 	0.052407 	4923 	0.051217
35.89 	0.063032 	4934 	0.061607
35.91 	0.056424 	4927 	0.055829
35.93 	0.054394 	4927 	0.053205
35.95 	0.059996 	4917 	0.057832
35.97 	0.061482 	4912 	0.060290
35.99 	0.060741 	4939 	0.059318
36.01 	0.055984 	4930 	0.054914
36.03 	0.057657 	4943 	0.056571
36.05 	0.059252 	4945 	0.058423
36.07 	0.059931 	4939 	0.058982
36.09 	0.056275 	4940 	0.055682
36.11 	0.058024 	4929 	0.056954
36.13 	0.060907 	4942 	0.059721
36.15 	0.055072 	4939 	0.054004
36.17 	0.063756 	4925 	0.062151
36.19 	0.056073 	4940 	0.055836
36.21 	0.057821 	4929 	0.056751
36.23 	0.054914 	4935 	0.054083
36.25 	0.048371 	4941 	0.047422
36.27 	0.061523 	4925 	0.060571
36.29 	0.066112 	4931 	0.063974
36.31 	0.051948 	4928 	0.051354
36.33 	0.056558 	4933 	0.055964
36.35 	0.057010 	4929 	0.056534
36.37 	0.058298 	4923 	0.057584
36.39 	0.053851 	4921 	0.053256
36.41 	0.053513 	4896 	0.052915
36.43 	0.058442 	4928 	0.057372
36.45 	0.056998 	4930 	0.055572
36.47 	0.057131 	4936 	0.056419
36.49 	0.056050 	4942 	0.055576
36.51 	0.056558 	4933 	0.055964
36.53 	0.058871 	4943 	0.058160
36.55 	0.054394 	4927 	0.053443
36.57 	0.049453 	4934 	0.049097
36.59 	0.054667 	4939 	0.053718
36.61 	0.056581 	4931 	0.055373
36.63 	0.052322 	4931 	0.051966
36.65 	0.059408 	4932 	0.058458
36.67 	0.056389 	4930 	0.055201
36.69 	0.058633 	4929 	0.057801
36.71 	0.052632 	4921 	0.051203
36.73 	0.060102 	4925 	0.059507
36.75 	0.054612 	4944 	0.053427
36.77 	0.057125 	4919 	0.055935
36.79 	0.051412 	4921 	0.050698
36.81 	0.051058 	4916 	0.050700
36.83 	0.055544 	4915 	0.054472
36.85 	0.056758 	4898 	0.056399
36.87 	0.058050 	4944 	0.057458
36.89 	0.052278 	4916 	0.051682
36.91 	0.047156 	4941 	0.046682
36.93 	0.046653 	4930 	0.046297
36.95 	0.049057 	4933 	0.048582
36.97 	0.059587 	4934 	0.058874
36.99 	0.055724 	4935 	0.055012
37.01 	0.055747 	4933 	0.054065
37.03 	0.057474 	4924 	0.057117
37.05 	0.057845 	4927 	0.056755
37.07 	0.059574 	4935 	0.058031
37.09 	0.055398 	4928 	0.054328
37.11 	0.056940 	4935 	0.056228
37.13 	0.055646 	4924 	0.054456
37.15 	0.054594 	4909 	0.053400
37.17 	0.053709 	4934 	0.052403
37.19 	0.054619 	4925 	0.053668
37.21 	0.055115 	4917 	0.054400
37.23 	0.057137 	4918 	0.056045
37.25 	0.053757 	4911 	0.053160
37.27 	0.053739 	4894 	0.053021
37.29 	0.052535 	4930 	0.051941
37.31 	0.052077 	4935 	0.051602
37.33 	0.047899 	4927 	0.046592
37.35 	0.052653 	4938 	0.051803
37.37 	0.052973 	4927 	0.052379
37.39 	0.052728 	4931 	0.051777
37.41 	0.059014 	4931 	0.058183
37.43 	0.053325 	4932 	0.052613
37.45 	0.051381 	4924 	0.050786
37.47 	0.055792 	4929 	0.055079
37.49 	0.060329 	4923 	0.059120
37.51 	0.057369 	4933 	0.056419
37.53 	0.050417 	4919 	0.049583
37.55 	0.053347 	4930 	0.052515
37.57 	0.054213 	4925 	0.053500
37.59 	0.049847 	4915 	0.049251
37.61 	0.054856 	4922 	0.053904
37.63 	0.045538 	4919 	0.044942
37.65 	0.054087 	4918 	0.053115
37.67 	0.056688 	4904 	0.055494
37.69 	0.052879 	4898 	0.052042
37.71 	0.053155 	4929 	0.052323
37.73 	0.052343 	4929 	0.051511
37.75 	0.057287 	4940 	0.056339
37.77 	0.059756 	4920 	0.058685
37.79 	0.054361 	4930 	0.053529
37.81 	0.049666 	4933 	0.049191
37.83 	0.056301 	4920 	0.055348
37.85 	0.051402 	4922 	0.050212
37.87 	0.047783 	4939 	0.047309
37.89 	0.048934 	4925 	0.048220
37.91 	0.052941 	4930 	0.052228
37.93 	0.059362 	4919 	0.058647
37.95 	0.053444 	4921 	0.052254
37.97 	0.056604 	4929 	0.055277
37.99 	0.051507 	4912 	0.050891
38.01 	0.048701 	4928 	0.048345
38.03 	0.059279 	4909 	0.058324
38.05 	0.055635 	4925 	0.054564
38.07 	0.056427 	4909 	0.055711
38.09 	0.058631 	4878 	0.057310
38.11 	0.048430 	4935 	0.048073
38.13 	0.054892 	4937 	0.053942
38.15 	0.054290 	4918 	0.053218
38.17 	0.049087 	4930 	0.047899
38.19 	0.061055 	4930 	0.059372
38.21 	0.056470 	4923 	0.055518
38.23 	0.052653 	4938 	0.052277
38.25 	0.053285 	4917 	0.052212
38.27 	0.058012 	4930 	0.057180
38.29 	0.061129 	4924 	0.060177
38.31 	0.055206 	4927 	0.054255
38.33 	0.055240 	4924 	0.054883
38.35 	0.061891 	4928 	0.060683
38.37 	0.067222 	4924 	0.066389
38.39 	0.060909 	4909 	0.059835
38.41 	0.057892 	4923 	0.057297
38.43 	0.063263 	4916 	0.061833
38.45 	0.064254 	4918 	0.062448
38.47 	0.065213 	4907 	0.063900
38.49 	0.067254 	4877 	0.065813
38.51 	0.070357 	4932 	0.069644
38.53 	0.068168 	4929 	0.066623
38.55 	0.058549 	4936 	0.057956
38.57 	0.059110 	4923 	0.058396
38.59 	0.060114 	4924 	0.059400
38.61 	0.063006 	4936 	0.061325
38.63 	0.059708 	4924 	0.058280
38.65 	0.059780 	4918 	0.059066
38.67 	0.056917 	4937 	0.055137
38.69 	0.057497 	4922 	0.056545
38.71 	0.057474 	4924 	0.056641
38.73 	0.060594 	4918 	0.059522
38.75 	0.052567 	4927 	0.052092
38.77 	0.050985 	4923 	0.050152
38.79 	0.053304 	4934 	0.052473
38.81 	0.049878 	4912 	0.049043
38.83 	0.049197 	4919 	0.048721
38.85 	0.050896 	4912 	0.050777
38.87 	0.050703 	4911 	0.050106
38.89 	0.049826 	4897 	0.048989
38.91 	0.055476 	4903 	0.054759
38.93 	0.051438 	4938 	0.050489
38.95 	0.050224 	4918 	0.049985
38.97 	0.050497 	4931 	0.048933
38.99 	0.049423 	4937 	0.048829
39.01 	0.048394 	4918 	0.047917
39.03 	0.047021 	4934 	0.046783
39.05 	0.056244 	4925 	0.055173
39.07 	0.046304 	4924 	0.045352
39.09 	0.050782 	4923 	0.049711
39.11 	0.046644 	4931 	0.046287
39.13 	0.053626 	4923 	0.052674
39.15 	0.054730 	4915 	0.053996
39.17 	0.051448 	4937 	0.050618
39.19 	0.048810 	4917 	0.047976
39.21 	0.047251 	4910 	0.046754
39.23 	0.048731 	4925 	0.048493
39.25 	0.049573 	4922 	0.048463
39.27 	0.048269 	4910 	0.047314
39.29 	0.045909 	4901 	0.045311
39.31 	0.046478 	4884 	0.045639
39.33 	0.052322 	4931 	0.051115
39.35 	0.047011 	4935 	0.046418
39.37 	0.051329 	4929 	0.050240
39.39 	0.047068 	4929 	0.046236
39.41 	0.054553 	4931 	0.053602
39.43 	0.048247 	4933 	0.047534
39.45 	0.048528 	4925 	0.047576
39.47 	0.051595 	4923 	0.051119
39.49 	0.045206 	4933 	0.044731
39.51 	0.045085 	4924 	0.044609
39.53 	0.045298 	4923 	0.044584
39.55 	0.040862 	4919 	0.040743
39.57 	0.046625 	4933 	0.046150
39.59 	0.053135 	4912 	0.052777
39.61 	0.047126 	4923 	0.046174
39.63 	0.053840 	4922 	0.052412
39.65 	0.045879 	4926 	0.045522
39.67 	0.048239 	4913 	0.048001
39.69 	0.045972 	4916 	0.045496
39.71 	0.049234 	4895 	0.048396
39.73 	0.048085 	4908 	0.047369
39.75 	0.047687 	4928 	0.047092
39.77 	0.048227 	4935 	0.047515
39.79 	0.050345 	4926 	0.049751
39.81 	0.045464 	4927 	0.044394
39.83 	0.057357 	4934 	0.055913
39.85 	0.052567 	4927 	0.051854
39.87 	0.053198 	4925 	0.052246
39.89 	0.050669 	4934 	0.050194
39.91 	0.046729 	4922 	0.046253
39.93 	0.049828 	4937 	0.049353
39.95 	0.049034 	4915 	0.048557
39.97 	0.047281 	4928 	0.046429
39.99 	0.047851 	4932 	0.047257
40.01 	0.052460 	4918 	0.051746
40.03 	0.050933 	4928 	0.050458
40.05 	0.045149 	4917 	0.044673
40.07 	0.050579 	4923 	0.049389
40.09 	0.041090 	4916 	0.040733
40.11 	0.046379 	4916 	0.045525
40.13 	0.046773 	4896 	0.046294
40.15 	0.051292 	4913 	0.050577
40.17 	0.047687 	4928 	0.046855
40.19 	0.045242 	4929 	0.044886
40.21 	0.048632 	4935 	0.048138
40.23 	0.050689 	4932 	0.049858
40.25 	0.047154 	4920 	0.046321
40.27 	0.049423 	4937 	0.047999
40.29 	0.051959 	4927 	0.051364
40.31 	0.044746 	4939 	0.043678
40.33 	0.046837 	4932 	0.046006
40.35 	0.046148 	4919 	0.045909
40.37 	0.051938 	4929 	0.051224
40.39 	0.041777 	4931 	0.041301
40.41 	0.048122 	4925 	0.047765
40.43 	0.047338 	4922 	0.046743
40.45 	0.046625 	4933 	0.045537
40.47 	0.041074 	4918 	0.039982
40.49 	0.045473 	4926 	0.044878
40.51 	0.044697 	4922 	0.043864
40.53 	0.054312 	4916 	0.053955
40.55 	0.047066 	4908 	0.046350
40.57 	0.042536 	4890 	0.041937
40.59 	0.044359 	4937 	0.043766
40.61 	0.042756 	4935 	0.042281
40.63 	0.041582 	4930 	0.041107
40.65 	0.044764 	4937 	0.044289
40.67 	0.040957 	4932 	0.040482
40.69 	0.044967 	4937 	0.044373
40.71 	0.046634 	4932 	0.045922
40.73 	0.051766 	4926 	0.051409
40.75 	0.047455 	4931 	0.046267
40.77 	0.049808 	4939 	0.049215
40.79 	0.042039 	4924 	0.041206
40.81 	0.043716 	4941 	0.043597
40.83 	0.049310 	4928 	0.049072
40.85 	0.043867 	4924 	0.043629
40.87 	0.042614 	4928 	0.041900
40.89 	0.045224 	4931 	0.044511
40.91 	0.044891 	4923 	0.044653
40.93 	0.045197 	4934 	0.043990
40.95 	0.051496 	4913 	0.050065
40.97 	0.042648 	4924 	0.042291
40.99 	0.045898 	4924 	0.045065
41.01 	0.042142 	4912 	0.041407
41.03 	0.049541 	4905 	0.049064
41.05 	0.042139 	4936 	0.041665
41.07 	0.048682 	4930 	0.047850
41.09 	0.042924 	4939 	0.042212
41.11 	0.045593 	4935 	0.045118
41.13 	0.044773 	4936 	0.043942
41.15 	0.043716 	4941 	0.043360
41.17 	0.041954 	4934 	0.041716
41.19 	0.042191 	4930 	0.041597
41.21 	0.042333 	4937 	0.041740
41.23 	0.045353 	4939 	0.044879
41.25 	0.047233 	4933 	0.047114
41.27 	0.045832 	4931 	0.045120
41.29 	0.051745 	4928 	0.050913
41.31 	0.044598 	4933 	0.044479
41.33 	0.042131 	4937 	0.041894
41.35 	0.040502 	4938 	0.040502
41.37 	0.043664 	4924 	0.043069
41.39 	0.047841 	4933 	0.047247
41.41 	0.044661 	4926 	0.043710
41.43 	0.046663 	4929 	0.046187
41.45 	0.043142 	4914 	0.043023
41.47 	0.039586 	4926 	0.038872
41.49 	0.050899 	4892 	0.049463
41.51 	0.047571 	4940 	0.046859
41.53 	0.046521 	4944 	0.046166
41.55 	0.046403 	4935 	0.045454
41.57 	0.046347 	4941 	0.045873
41.59 	0.040341 	4933 	0.040222
41.61 	0.046033 	4953 	0.045441
41.63 	0.041312 	4938 	0.041075
41.65 	0.043417 	4929 	0.043060
41.67 	0.043725 	4940 	0.042776
41.69 	0.041844 	4947 	0.040896
41.71 	0.042764 	4934 	0.042052
41.73 	0.042139 	4936 	0.041902
41.75 	0.043417 	4929 	0.042466
41.77 	0.042906 	4941 	0.042432
41.79 	0.042476 	4944 	0.042239
41.81 	0.041937 	4936 	0.041343
41.83 	0.046469 	4928 	0.045994
41.85 	0.040292 	4939 	0.039699
41.87 	0.040527 	4935 	0.039933
41.89 	0.041557 	4933 	0.041201
41.91 	0.042950 	4936 	0.042594
41.93 	0.044201 	4932 	0.043607
41.95 	0.039951 	4931 	0.039457
41.97 	0.044363 	4914 	0.044005
41.99 	0.042813 	4905 	0.042216
42.01 	0.042898 	4942 	0.042423
42.03 	0.048998 	4939 	0.048286
42.05 	0.049071 	4952 	0.048598
42.07 	0.035042 	4937 	0.034804
42.09 	0.045271 	4948 	0.044324
42.11 	0.039029 	4945 	0.038674
42.13 	0.036400 	4945 	0.036400
42.15 	0.039287 	4938 	0.038931
42.17 	0.038227 	4918 	0.038108
42.19 	0.041972 	4908 	0.041734
42.21 	0.041828 	4901 	0.041470
42.23 	0.036795 	4892 	0.036196
42.25 	0.047044 	4889 	0.046565
42.27 	0.042675 	4874 	0.041814
42.29 	0.035369 	4863 	0.035249
42.31 	0.045314 	4855 	0.044952
42.33 	0.041994 	4834 	0.041267
42.35 	0.042786 	4838 	0.042302
42.37 	0.038509 	4830 	0.037903
42.39 	0.046628 	4804 	0.045652
42.41 	0.045587 	4804 	0.044855
42.43 	0.040275 	4792 	0.039522
42.45 	0.043551 	4776 	0.043060
42.47 	0.043652 	4765 	0.043283
42.49 	0.039454 	4765 	0.038840
42.51 	0.045962 	4743 	0.045345
42.53 	0.043993 	4728 	0.043374
42.55 	0.044605 	4708 	0.043734
42.57 	0.045666 	4730 	0.044675
42.59 	0.035103 	4729 	0.034979
42.61 	0.038870 	4708 	0.038497
42.63 	0.037800 	4709 	0.037302
42.65 	0.041409 	4685 	0.041034
42.67 	0.039496 	4684 	0.038871
42.69 	0.046427 	4674 	0.046051
42.71 	0.043320 	4663 	0.042692
42.73 	0.041810 	4640 	0.041305
42.75 	0.038120 	4617 	0.037866
42.77 	0.040217 	4600 	0.040090
42.79 	0.041248 	4582 	0.040865
42.81 	0.039018 	4562 	0.038633
42.83 	0.039021 	4536 	0.037967
42.85 	0.042624 	4528 	0.041847
42.87 	0.037564 	4499 	0.037303
42.89 	0.046875 	4480 	0.045698
42.91 	0.042190 	4456 	0.041402
42.93 	0.039586 	4446 	0.039191
42.95 	0.042799 	4416 	0.042268
42.97 	0.039764 	4401 	0.039231
42.99 	0.039453 	4385 	0.039319
43.01 	0.035068 	4363 	0.034799
43.03 	0.038541 	4333 	0.038271
43.05 	0.039769 	4325 	0.039227
43.07 	0.040037 	4296 	0.039628
43.09 	0.041326 	4283 	0.041189
43.11 	0.044183 	4255 	0.043357
43.13 	0.040359 	4237 	0.039667
43.15 	0.040418 	4206 	0.040140
43.17 	0.046901 	4179 	0.046340
43.19 	0.039342 	4194 	0.038923
43.21 	0.042426 	4172 	0.042145
43.23 	0.038276 	4154 	0.037571
43.25 	0.043047 	4135 	0.042480
43.27 	0.043118 	4105 	0.042547
43.29 	0.035610 	4100 	0.035181
43.31 	0.048051 	4079 	0.047333
43.33 	0.037768 	4051 	0.037335
43.35 	0.039931 	4032 	0.039640
43.37 	0.036613 	4015 	0.036175
43.39 	0.042229 	4002 	0.041643
43.41 	0.036254 	3972 	0.035516
43.43 	0.039141 	3960 	0.038846
43.45 	0.039136 	3935 	0.038838
43.47 	0.038511 	3921 	0.038062
43.49 	0.036952 	3897 	0.036350
43.51 	0.038690 	3877 	0.038085
43.53 	0.039607 	3863 	0.039000
43.55 	0.040148 	2964 	0.039358
43.57 	0.043342 	2238 	0.043081
43.59 	0.040092 	1746 	0.039421
43.61 	0.038490 	1351 	0.037623
43.63 	0.050949 	1001 	0.050949
43.65 	0.052402 	687 	0.051549
43.67 	0.033865 	502 	0.033865
43.69 	0.040872 	367 	0.037680
43.71 	0.025105 	239 	0.025105
43.73 	0.041667 	120 	0.041667
43.75 	0.000000 	16 	0.000000