File: Example_Data/25SC_s1_0029.001.dat
#F C:\frames\spec\25SC_s1_0029.001
#C title =s:29 frm:1 25SC_s1
#C wavelength =0.15406

#S 1  fr_average C:\frames\spec\25SC_s1_0029.001 C:\win32app\speccom\mask.axs chi 0 180 0 360 0.02
#C 2 theta =0.000000 to 180 deg
#C   q   =0.000000 to 81.568 nm^-1
#C  chi  =0.000000 to 360 deg
#C collumns:
#C  1 position (2theta or chi in degrees)
#C  2 average intensity (sum of all counts in the region divided with number of pixels)
#C  3 Number of pixels in region)
#C  4 error (sum of sqrt(intensity) for all pixels divided by number)
#N 4
#L TTh  Int  N_pix  Err
32.99 	0.131148 	61 	0.131148
33.01 	0.064147 	873 	0.062134
33.03 	0.061107 	1391 	0.059423
33.05 	0.058623 	1757 	0.057568
33.07 	0.061951 	2050 	0.059951
33.09 	0.051555 	2347 	0.051555
33.11 	0.063591 	2579 	0.062455
33.13 	0.058718 	2793 	0.057879
33.15 	0.059020 	2999 	0.058434
33.17 	0.047173 	3201 	0.046624
33.19 	0.058348 	3342 	0.057121
33.21 	0.057043 	3436 	0.056191
33.23 	0.057905 	3523 	0.057074
33.25 	0.056202 	3612 	0.055715
33.27 	0.057300 	3630 	0.056332
33.29 	0.060033 	3648 	0.059391
33.31 	0.058743 	3660 	0.058103
33.33 	0.059143 	3686 	0.058666
33.35 	0.064970 	3694 	0.063860
33.37 	0.066774 	3714 	0.066143
33.39 	0.059533 	3729 	0.057962
33.41 	0.064171 	3740 	0.063388
33.43 	0.053975 	3761 	0.053040
33.45 	0.056984 	3773 	0.056363
33.47 	0.061348 	3798 	0.060577
33.49 	0.060383 	3809 	0.059897
33.51 	0.055308 	3815 	0.054361
33.53 	0.055454 	3841 	0.054539
33.55 	0.058808 	3843 	0.057741
33.57 	0.049523 	3877 	0.049372
33.59 	0.061082 	3880 	0.060026
33.61 	0.058839 	3909 	0.058539
33.63 	0.059964 	3919 	0.059366
33.65 	0.056729 	3931 	0.055536
33.67 	0.061457 	3954 	0.061160
33.69 	0.053630 	3953 	0.052741
33.71 	0.062893 	3975 	0.061714
33.73 	0.059441 	4004 	0.058416
33.75 	0.066267 	3999 	0.065388
33.77 	0.062112 	4025 	0.060802
33.79 	0.067063 	4041 	0.066193
33.81 	0.064141 	4038 	0.062835
33.83 	0.065679 	4050 	0.064377
33.85 	0.055867 	4099 	0.054724
33.87 	0.060326 	4111 	0.060041
33.89 	0.059937 	4121 	0.059653
33.91 	0.052061 	4149 	0.051214
33.93 	0.060949 	4151 	0.059820
33.95 	0.064817 	4181 	0.063836
33.97 	0.055609 	4190 	0.054071
33.99 	0.063095 	4200 	0.062537
34.01 	0.065274 	4213 	0.064023
34.03 	0.056079 	4244 	0.055389
34.05 	0.059031 	4252 	0.058067
34.07 	0.061621 	4268 	0.060523
34.09 	0.056230 	4286 	0.055683
34.11 	0.060205 	4302 	0.058707
34.13 	0.057567 	4308 	0.056887
34.15 	0.053106 	4331 	0.052159
34.17 	0.057701 	4350 	0.057028
34.19 	0.060752 	4362 	0.059118
34.21 	0.060856 	4371 	0.059515
34.23 	0.058957 	4393 	0.058135
34.25 	0.061535 	4404 	0.060471
34.27 	0.064450 	4422 	0.062993
34.29 	0.055242 	4435 	0.053922
34.31 	0.058546 	4458 	0.057079
34.33 	0.048982 	4471 	0.048065
34.35 	0.056869 	4484 	0.055824
34.37 	0.056112 	4491 	0.054917
34.39 	0.061084 	4502 	0.060303
34.41 	0.059434 	4526 	0.058528
34.43 	0.058603 	4539 	0.057033
34.45 	0.057773 	4535 	0.057256
34.47 	0.056620 	4592 	0.055982
34.49 	0.060039 	4597 	0.058765
34.51 	0.066652 	4606 	0.065380
34.53 	0.055783 	4643 	0.054521
34.55 	0.057506 	4643 	0.056118
34.57 	0.061588 	4660 	0.060834
34.59 	0.057326 	4675 	0.056303
34.61 	0.058548 	4697 	0.057675
34.63 	0.056900 	4710 	0.055905
34.65 	0.055709 	4721 	0.055068
34.67 	0.049989 	4741 	0.049125
34.69 	0.054060 	4754 	0.053074
34.71 	0.053084 	4766 	0.051855
34.73 	0.054940 	4787 	0.054329
34.75 	0.059068 	4808 	0.058215
34.77 	0.059983 	4818 	0.059375
34.79 	0.055556 	4824 	0.054443
34.81 	0.056553 	4845 	0.054981
34.83 	0.054710 	4862 	0.054349
34.85 	0.059355 	4869 	0.058513
34.87 	0.051561 	4868 	0.051080
34.89 	0.058583 	4882 	0.057863
34.91 	0.057354 	4882 	0.056514
34.93 	0.061441 	4899 	0.059648
34.95 	0.064826 	4890 	0.063508
34.97 	0.063239 	4902 	0.061666
34.99 	0.052890 	4897 	0.052291
35.01 	0.057688 	4923 	0.056736
35.03 	0.060085 	4943 	0.058900
35.05 	0.056600 	4947 	0.056008
35.07 	0.059919 	4940 	0.058970
35.09 	0.060569 	4953 	0.059505
35.11 	0.053770 	4947 	0.053178
35.13 	0.056273 	4958 	0.054973
35.15 	0.053271 	4937 	0.052678
35.17 	0.056611 	4946 	0.055427
35.19 	0.054229 	4942 	0.053162
35.21 	0.050556 	4945 	0.049608
35.23 	0.057027 	4945 	0.055961
35.25 	0.061501 	4943 	0.061027
35.27 	0.055982 	4948 	0.055272
35.29 	0.057432 	4945 	0.056129
35.31 	0.061829 	4933 	0.060760
35.33 	0.053409 	4943 	0.052935
35.35 	0.054431 	4942 	0.053720
35.37 	0.057704 	4939 	0.056399
35.39 	0.055814 	4945 	0.054511
35.41 	0.057247 	4926 	0.056415
35.43 	0.055342 	4933 	0.054154
35.45 	0.050435 	4937 	0.049842
35.47 	0.060637 	4931 	0.059686
35.49 	0.060692 	4910 	0.058744
35.51 	0.055014 	4926 	0.054519
35.53 	0.054152 	4949 	0.053442
35.55 	0.053589 	4945 	0.052642
35.57 	0.053517 	4933 	0.052191
35.59 	0.053994 	4945 	0.053283
35.61 	0.056860 	4942 	0.055674
35.63 	0.055634 	4943 	0.054212
35.65 	0.049949 	4945 	0.049476
35.67 	0.056050 	4942 	0.054983
35.69 	0.061059 	4946 	0.059994
35.71 	0.056309 	4937 	0.055360
35.73 	0.055916 	4936 	0.055204
35.75 	0.064693 	4931 	0.063386
35.77 	0.063422 	4951 	0.061746
35.79 	0.063058 	4932 	0.062107
35.81 	0.052504 	4933 	0.051554
35.83 	0.056611 	4946 	0.055664
35.85 	0.056535 	4935 	0.055467
35.87 	0.056267 	4923 	0.054958
35.89 	0.057357 	4934 	0.056170
35.91 	0.059468 	4927 	0.059112
35.93 	0.057642 	4927 	0.056572
35.95 	0.058776 	4917 	0.057823
35.97 	0.057614 	4912 	0.056898
35.99 	0.052237 	4939 	0.051881
36.01 	0.057809 	4930 	0.057215
36.03 	0.056443 	4943 	0.055021
36.05 	0.060061 	4945 	0.059231
36.07 	0.054464 	4939 	0.053397
36.09 	0.056275 	4940 	0.055544
36.11 	0.053155 	4929 	0.052442
36.13 	0.064953 	4942 	0.063650
36.15 	0.060134 	4939 	0.059541
36.17 	0.054010 	4925 	0.052940
36.19 	0.049798 	4940 	0.048711
36.21 	0.058633 	4929 	0.057682
36.23 	0.054711 	4935 	0.054118
36.25 	0.059907 	4941 	0.058603
36.27 	0.056650 	4925 	0.055222
36.29 	0.054350 	4931 	0.053756
36.31 	0.055398 	4928 	0.055279
36.33 	0.059396 	4933 	0.057852
36.35 	0.054169 	4929 	0.053694
36.37 	0.056673 	4923 	0.055721
36.39 	0.055273 	4921 	0.054559
36.41 	0.058415 	4896 	0.057697
36.43 	0.055804 	4928 	0.055209
36.45 	0.056592 	4930 	0.055642
36.47 	0.060575 	4936 	0.059250
36.49 	0.052813 	4942 	0.052319
36.51 	0.056355 	4933 	0.055643
36.53 	0.055837 	4943 	0.054750
36.55 	0.055612 	4927 	0.055136
36.57 	0.052290 	4934 	0.051815
36.59 	0.056489 	4939 	0.055303
36.61 	0.055972 	4931 	0.055497
36.63 	0.060434 	4931 	0.059840
36.65 	0.056772 	4932 	0.055584
36.67 	0.055578 	4930 	0.054390
36.69 	0.055386 	4929 	0.054198
36.71 	0.052022 	4921 	0.050812
36.73 	0.051168 	4925 	0.050692
36.75 	0.057443 	4944 	0.056259
36.77 	0.054889 	4919 	0.054651
36.79 	0.056289 	4921 	0.055218
36.81 	0.056347 	4916 	0.055393
36.83 	0.057375 	4915 	0.056899
36.85 	0.051858 	4898 	0.051260
36.87 	0.057241 	4944 	0.056293
36.89 	0.055330 	4916 	0.054019
36.91 	0.056466 	4941 	0.055380
36.93 	0.060446 	4930 	0.059139
36.95 	0.054328 	4933 	0.053121
36.97 	0.052898 	4934 	0.051711
36.99 	0.055724 	4935 	0.054894
37.01 	0.058788 	4933 	0.057600
37.03 	0.052600 	4924 	0.051648
37.05 	0.051147 	4927 	0.050652
37.07 	0.054509 	4935 	0.053678
37.09 	0.057630 	4928 	0.056917
37.11 	0.058967 	4935 	0.057661
37.13 	0.052600 	4924 	0.051886
37.15 	0.055408 	4909 	0.054096
37.17 	0.054520 	4934 	0.053451
37.19 	0.056244 	4925 	0.054816
37.21 	0.056132 	4917 	0.054940
37.23 	0.062830 	4918 	0.062116
37.25 	0.055182 	4911 	0.054347
37.27 	0.056600 	4894 	0.054805
37.29 	0.050710 	4930 	0.049997
37.31 	0.055319 	4935 	0.054488
37.33 	0.053176 	4927 	0.052463
37.35 	0.057513 	4938 	0.056801
37.37 	0.058453 	4927 	0.057146
37.39 	0.055770 	4931 	0.054700
37.41 	0.054756 	4931 	0.053786
37.43 	0.054339 	4932 	0.053745
37.45 	0.057677 	4924 	0.057082
37.47 	0.056807 	4929 	0.055737
37.49 	0.057688 	4923 	0.056736
37.51 	0.054328 	4933 	0.053734
37.53 	0.058752 	4919 	0.058037
37.55 	0.049899 	4930 	0.049542
37.57 	0.052183 	4925 	0.051231
37.59 	0.053510 	4915 	0.052795
37.61 	0.055465 	4922 	0.054156
37.63 	0.057939 	4919 	0.056867
37.65 	0.054494 	4918 	0.054017
37.67 	0.051591 	4904 	0.050874
37.69 	0.058800 	4898 	0.058202
37.71 	0.054981 	4929 	0.054387
37.73 	0.054981 	4929 	0.054505
37.75 	0.058907 	4940 	0.058057
37.77 	0.055488 	4920 	0.054535
37.79 	0.057606 	4930 	0.056418
37.81 	0.060004 	4933 	0.059054
37.83 	0.055081 	4920 	0.053772
37.85 	0.053434 	4922 	0.052719
37.87 	0.050618 	4939 	0.049669
37.89 	0.060102 	4925 	0.059031
37.91 	0.054361 	4930 	0.053886
37.93 	0.061191 	4919 	0.060596
37.95 	0.052835 	4921 	0.052240
37.97 	0.052546 	4929 	0.051714
37.99 	0.057003 	4912 	0.055691
38.01 	0.048498 	4928 	0.047310
38.03 	0.061112 	4909 	0.060158
38.05 	0.054213 	4925 	0.053381
38.07 	0.050316 	4909 	0.049480
38.09 	0.051251 	4878 	0.050410
38.11 	0.059169 	4935 	0.058338
38.13 	0.059550 	4937 	0.058443
38.15 	0.059780 	4918 	0.058828
38.17 	0.062677 	4930 	0.061133
38.19 	0.054767 	4930 	0.053559
38.21 	0.061142 	4923 	0.060428
38.23 	0.060551 	4938 	0.059246
38.25 	0.058979 	4917 	0.058145
38.27 	0.057809 	4930 	0.056621
38.29 	0.061535 	4924 	0.059989
38.31 	0.061904 	4927 	0.060358
38.33 	0.064785 	4924 	0.063714
38.35 	0.064935 	4928 	0.063390
38.37 	0.063160 	4924 	0.061376
38.39 	0.067631 	4909 	0.066318
38.41 	0.070689 	4923 	0.069023
38.43 	0.075264 	4916 	0.073319
38.45 	0.071574 	4918 	0.070144
38.47 	0.072753 	4907 	0.071321
38.49 	0.067665 	4877 	0.066223
38.51 	0.076642 	4932 	0.075811
38.53 	0.072834 	4929 	0.071032
38.55 	0.074959 	4936 	0.073140
38.57 	0.076173 	4923 	0.073774
38.59 	0.071690 	4924 	0.070262
38.61 	0.068882 	4936 	0.067814
38.63 	0.073111 	4924 	0.071684
38.65 	0.073404 	4918 	0.071736
38.67 	0.069273 	4937 	0.068086
38.69 	0.062576 	4922 	0.061029
38.71 	0.059708 	4924 	0.059351
38.73 	0.060797 	4918 	0.060202
38.75 	0.065963 	4927 	0.064774
38.77 	0.063173 	4923 	0.062677
38.79 	0.054722 	4934 	0.053773
38.81 	0.060668 	4912 	0.059833
38.83 	0.063428 	4919 	0.061879
38.85 	0.059650 	4912 	0.058696
38.87 	0.057422 	4911 	0.056349
38.89 	0.060854 	4897 	0.059638
38.91 	0.048542 	4903 	0.048064
38.93 	0.050425 	4938 	0.049595
38.95 	0.056527 	4918 	0.055693
38.97 	0.053336 	4931 	0.053217
38.99 	0.053676 	4937 	0.052727
39.01 	0.048597 	4918 	0.047882
39.03 	0.046818 	4934 	0.046462
39.05 	0.047513 	4925 	0.047037
39.07 	0.044476 	4924 	0.044000
39.09 	0.048548 	4923 	0.047715
39.11 	0.049280 	4931 	0.048448
39.13 	0.050579 	4923 	0.049865
39.15 	0.048220 	4915 	0.047366
39.17 	0.047802 	4937 	0.047446
39.19 	0.042506 	4917 	0.042267
39.21 	0.048473 	4910 	0.047637
39.23 	0.047107 	4925 	0.046354
39.25 	0.044291 	4922 	0.043696
39.27 	0.047454 	4910 	0.046858
39.29 	0.043665 	4901 	0.043186
39.31 	0.047502 	4884 	0.046662
39.33 	0.044818 	4931 	0.044106
39.35 	0.042553 	4935 	0.041821
39.37 	0.051126 	4929 	0.050413
39.39 	0.046865 	4929 	0.046152
39.41 	0.044616 	4931 	0.044259
39.43 	0.044800 	4933 	0.043969
39.45 	0.047919 	4925 	0.047086
39.47 	0.044079 	4923 	0.043365
39.49 	0.047841 	4933 	0.047247
39.51 	0.047319 	4924 	0.046348
39.53 	0.044282 	4923 	0.043568
39.55 	0.043505 	4919 	0.042909
39.57 	0.045206 	4933 	0.044018
39.59 	0.046621 	4912 	0.046024
39.61 	0.044891 	4923 	0.044177
39.63 	0.049980 	4922 	0.049623
39.65 	0.046894 	4926 	0.046299
39.67 	0.043965 	4913 	0.043369
39.69 	0.046989 	4916 	0.046632
39.71 	0.037998 	4895 	0.037519
39.73 	0.043602 	4908 	0.042767
39.75 	0.040990 	4928 	0.040634
39.77 	0.049443 	4935 	0.049324
39.79 	0.043037 	4926 	0.042442
39.81 	0.048711 	4927 	0.047522
39.83 	0.041548 	4934 	0.041192
39.85 	0.045464 	4927 	0.044750
39.87 	0.043249 	4925 	0.043011
39.89 	0.046413 	4934 	0.046294
39.91 	0.046119 	4922 	0.045881
39.93 	0.038687 	4937 	0.038332
39.95 	0.044354 	4915 	0.043639
39.97 	0.044440 	4928 	0.043964
39.99 	0.043593 	4932 	0.043237
40.01 	0.040057 	4918 	0.039342
40.03 	0.042208 	4928 	0.041683
40.05 	0.043319 	4917 	0.042704
40.07 	0.041438 	4923 	0.040962
40.09 	0.050448 	4916 	0.049613
40.11 	0.041497 	4916 	0.041021
40.13 	0.037582 	4896 	0.037462
40.15 	0.046815 	4913 	0.046338
40.17 	0.044237 	4928 	0.043405
40.19 	0.047271 	4929 	0.046558
40.21 	0.041337 	4935 	0.040981
40.23 	0.046026 	4932 	0.045076
40.25 	0.043496 	4920 	0.042762
40.27 	0.038485 	4937 	0.038109
40.29 	0.042622 	4927 	0.042503
40.31 	0.040899 	4939 	0.040187
40.33 	0.038727 	4932 	0.038370
40.35 	0.045334 	4919 	0.045096
40.37 	0.040576 	4929 	0.040101
40.39 	0.043196 	4931 	0.042840
40.41 	0.037157 	4925 	0.037157
40.43 	0.043275 	4922 	0.042918
40.45 	0.047638 	4933 	0.046926
40.47 	0.037210 	4918 	0.036853
40.49 	0.044458 	4926 	0.043507
40.51 	0.040024 	4922 	0.039667
40.53 	0.044955 	4916 	0.044479
40.55 	0.043399 	4908 	0.042921
40.57 	0.038650 	4890 	0.038411
40.59 	0.042941 	4937 	0.042466
40.61 	0.043364 	4935 	0.043008
40.63 	0.036714 	4930 	0.036239
40.65 	0.038890 	4937 	0.038178
40.67 	0.041971 	4932 	0.041496
40.69 	0.047802 	4937 	0.046972
40.71 	0.041160 	4932 	0.040685
40.73 	0.039586 	4926 	0.039229
40.75 	0.040965 	4931 	0.040609
40.77 	0.045556 	4939 	0.044844
40.79 	0.038587 	4924 	0.038349
40.81 	0.040275 	4941 	0.039564
40.83 	0.046063 	4928 	0.046063
40.85 	0.046101 	4924 	0.046101
40.87 	0.036526 	4928 	0.036407
40.89 	0.042588 	4931 	0.041855
40.91 	0.042251 	4923 	0.041537
40.93 	0.039522 	4934 	0.039284
40.95 	0.040301 	4913 	0.039824
40.97 	0.041024 	4924 	0.040905
40.99 	0.044882 	4924 	0.044149
41.01 	0.043567 	4912 	0.043209
41.03 	0.047095 	4905 	0.046378
41.05 	0.038695 	4936 	0.038577
41.07 	0.043205 	4930 	0.042492
41.09 	0.041304 	4939 	0.040691
41.11 	0.039919 	4935 	0.039187
41.13 	0.040316 	4936 	0.039723
41.15 	0.043918 	4941 	0.043444
41.17 	0.042764 	4934 	0.042290
41.19 	0.039757 	4930 	0.038806
41.21 	0.039700 	4937 	0.039344
41.23 	0.037659 	4939 	0.037066
41.25 	0.038111 	4933 	0.037873
41.27 	0.043196 	4931 	0.042365
41.29 	0.042005 	4928 	0.041411
41.31 	0.039935 	4933 	0.038709
41.33 	0.042333 	4937 	0.042096
41.35 	0.037870 	4938 	0.037751
41.37 	0.045695 	4924 	0.044862
41.39 	0.040138 	4933 	0.039544
41.41 	0.037150 	4926 	0.036793
41.43 	0.043214 	4929 	0.042382
41.45 	0.037851 	4914 	0.037017
41.47 	0.038571 	4926 	0.037976
41.49 	0.041496 	4892 	0.041137
41.51 	0.042510 	4940 	0.042154
41.53 	0.038430 	4944 	0.037720
41.55 	0.046403 	4935 	0.045572
41.57 	0.040275 	4941 	0.039682
41.59 	0.038719 	4933 	0.038481
41.61 	0.043408 	4953 	0.042817
41.63 	0.037262 	4938 	0.037025
41.65 	0.040779 	4929 	0.040423
41.67 	0.036437 	4940 	0.036319
41.69 	0.036790 	4947 	0.036672
41.71 	0.039927 	4934 	0.039927
41.73 	0.041532 	4936 	0.040345
41.75 	0.043619 	4929 	0.042787
41.77 	0.039870 	4941 	0.039396
41.79 	0.039644 	4944 	0.039407
41.81 	0.042950 	4936 	0.042712
41.83 	0.036729 	4928 	0.036372
41.85 	0.038874 	4939 	0.038262
41.87 	0.037285 	4935 	0.036929
41.89 	0.040746 	4933 	0.040271
41.91 	0.033023 	4936 	0.032429
41.93 	0.038118 	4932 	0.038000
41.95 	0.042182 	4931 	0.041826
41.97 	0.039683 	4914 	0.038948
41.99 	0.036290 	4905 	0.036290
42.01 	0.038041 	4942 	0.037567
42.03 	0.038267 	4939 	0.037911
42.05 	0.037561 	4952 	0.037206
42.07 	0.036662 	4937 	0.036069
42.09 	0.040420 	4948 	0.039947
42.11 	0.034580 	4945 	0.034107
42.13 	0.042063 	4945 	0.041470
42.15 	0.035642 	4938 	0.035642
42.17 	0.043107 	4918 	0.042273
42.19 	0.040342 	4908 	0.039626
42.21 	0.039380 	4901 	0.039021
42.23 	0.039248 	4892 	0.038649
42.25 	0.040090 	4889 	0.039970
42.27 	0.033238 	4874 	0.032637
42.29 	0.037220 	4863 	0.036738
42.31 	0.040165 	4855 	0.039682
42.33 	0.039926 	4834 	0.039441
42.35 	0.039686 	4838 	0.039323
42.37 	0.036646 	4830 	0.036282
42.39 	0.043089 	4804 	0.042357
42.41 	0.037052 	4804 	0.036809
42.43 	0.036311 	4792 	0.035944
42.45 	0.035804 	4776 	0.035436
42.47 	0.034627 	4765 	0.034136
42.49 	0.038615 	4765 	0.038246
42.51 	0.035631 	4743 	0.035384
42.53 	0.037014 	4728 	0.036890
42.55 	0.033985 	4708 	0.033736
42.57 	0.040592 	4730 	0.040097
42.59 	0.041235 	4729 	0.040987
42.61 	0.034410 	4708 	0.034285
42.63 	0.032916 	4709 	0.032418
42.65 	0.040128 	4685 	0.039503
42.67 	0.033732 	4684 	0.033232
42.69 	0.038939 	4674 	0.038688
42.71 	0.034742 	4663 	0.034490
42.73 	0.035129 	4640 	0.035003
42.75 	0.038553 	4617 	0.037644
42.77 	0.037391 	4600 	0.037264
42.79 	0.040594 	4582 	0.039954
42.81 	0.035511 	4562 	0.035511
42.83 	0.035273 	4536 	0.035015
42.85 	0.035557 	4528 	0.035557
42.87 	0.032896 	4499 	0.032636
42.89 	0.036384 	4480 	0.036122
42.91 	0.035458 	4456 	0.034910
42.93 	0.040036 	4446 	0.039509
42.95 	0.036005 	4416 	0.035607
42.97 	0.040673 	4401 	0.040273
42.99 	0.037400 	4385 	0.037133
43.01 	0.041714 	4363 	0.041580
43.03 	0.039695 	4333 	0.039560
43.05 	0.038382 	4325 	0.038246
43.07 	0.028399 	4296 	0.027989
43.09 	0.036890 	4283 	0.036753
43.11 	0.044653 	4255 	0.043965
43.13 	0.041539 	4237 	0.041262
43.15 	0.036852 	4206 	0.036574
43.17 	0.037330 	4179 	0.036769
43.19 	0.038150 	4194 	0.037451
43.21 	0.037632 	4172 	0.037491
43.23 	0.041165 	4154 	0.041024
43.25 	0.037001 	4135 	0.036718
43.27 	0.037272 	4105 	0.036701
43.29 	0.039268 	4100 	0.038554
43.31 	0.039225 	4079 	0.038651
43.33 	0.038262 	4051 	0.037684
43.35 	0.041171 	4032 	0.040880
43.37 	0.043337 	4015 	0.043337
43.39 	0.040730 	4002 	0.040730
43.41 	0.041037 	3972 	0.040005
43.43 	0.032828 	3960 	0.032680
43.45 	0.037357 	3935 	0.037208
43.47 	0.038256 	3921 	0.037658
43.49 	0.037721 	3897 	0.037270
43.51 	0.038174 	3877 	0.037872
43.53 	0.039089 	3863 	0.038482
43.55 	0.035425 	2964 	0.035425
43.57 	0.032618 	2238 	0.031833
43.59 	0.037801 	1746 	0.037465
43.61 	0.037010 	1351 	0.035709
43.63 	0.031968 	1001 	0.031383
43.65 	0.034934 	687 	0.034934
43.67 	0.047809 	502 	0.047809
43.69 	0.051771 	367 	0.051771
43.71 	0.025105 	239 	0.025105
43.73 	0.050000 	120 	0.050000
43.75 	0.062500 	16 	0.062500