File: Example_Data/25SC_s1_0028.001.dat
#F C:\frames\spec\25SC_s1_0028.001
#C title =s:28 frm:1 25SC_s1
#C wavelength =0.15406

#S 1  fr_average C:\frames\spec\25SC_s1_0028.001 C:\win32app\speccom\mask.axs chi 0 180 0 360 0.02
#C 2 theta =0.000000 to 180 deg
#C   q   =0.000000 to 81.568 nm^-1
#C  chi  =0.000000 to 360 deg
#C collumns:
#C  1 position (2theta or chi in degrees)
#C  2 average intensity (sum of all counts in the region divided with number of pixels)
#C  3 Number of pixels in region)
#C  4 error (sum of sqrt(intensity) for all pixels divided by number)
#N 4
#L TTh  Int  N_pix  Err
32.99 	0.049180 	61 	0.049180
33.01 	0.075601 	873 	0.074930
33.03 	0.060388 	1391 	0.059125
33.05 	0.059192 	1757 	0.058192
33.07 	0.065366 	2050 	0.063651
33.09 	0.057946 	2347 	0.057198
33.11 	0.054672 	2579 	0.053537
33.13 	0.048335 	2793 	0.048335
33.15 	0.063354 	2999 	0.061792
33.17 	0.057794 	3201 	0.057245
33.19 	0.058049 	3342 	0.056647
33.21 	0.063155 	3436 	0.062132
33.23 	0.052796 	3523 	0.052131
33.25 	0.055648 	3612 	0.054999
33.27 	0.062259 	3630 	0.061291
33.29 	0.051535 	3648 	0.051214
33.31 	0.057650 	3660 	0.056690
33.33 	0.064840 	3686 	0.063886
33.35 	0.054413 	3694 	0.053937
33.37 	0.055466 	3714 	0.053415
33.39 	0.050684 	3729 	0.050055
33.41 	0.059091 	3740 	0.057812
33.43 	0.053709 	3761 	0.053553
33.45 	0.062285 	3773 	0.060732
33.47 	0.056345 	3798 	0.055883
33.49 	0.057233 	3809 	0.056772
33.51 	0.055570 	3815 	0.055109
33.53 	0.066389 	3841 	0.065016
33.55 	0.063232 	3843 	0.062165
33.57 	0.056487 	3877 	0.056185
33.59 	0.060309 	3880 	0.060007
33.61 	0.059094 	3909 	0.057896
33.63 	0.060475 	3919 	0.059129
33.65 	0.057746 	3931 	0.056852
33.67 	0.061204 	3954 	0.060463
33.69 	0.067291 	3953 	0.065784
33.71 	0.056101 	3975 	0.054922
33.73 	0.058442 	4004 	0.058149
33.75 	0.065266 	3999 	0.063362
33.77 	0.057143 	4025 	0.056415
33.79 	0.056669 	4041 	0.055654
33.81 	0.057454 	4038 	0.055278
33.83 	0.056049 	4050 	0.055037
33.85 	0.058307 	4099 	0.057164
33.87 	0.055704 	4111 	0.054707
33.89 	0.055084 	4121 	0.053947
33.91 	0.060979 	4149 	0.060131
33.93 	0.060708 	4151 	0.059720
33.95 	0.053815 	4181 	0.053114
33.97 	0.058234 	4190 	0.057535
33.99 	0.061190 	4200 	0.059773
34.01 	0.059577 	4213 	0.058187
34.03 	0.058200 	4244 	0.057073
34.05 	0.058796 	4252 	0.057694
34.07 	0.060684 	4268 	0.059998
34.09 	0.058796 	4286 	0.058523
34.11 	0.057648 	4302 	0.056650
34.13 	0.054782 	4308 	0.054238
34.15 	0.057723 	4331 	0.057047
34.17 	0.058161 	4350 	0.057331
34.19 	0.060293 	4362 	0.058413
34.21 	0.058110 	4371 	0.057038
34.23 	0.055315 	4393 	0.054649
34.25 	0.052452 	4404 	0.051787
34.27 	0.061058 	4422 	0.059866
34.29 	0.061330 	4435 	0.059877
34.31 	0.061238 	4458 	0.060844
34.33 	0.051890 	4471 	0.051366
34.35 	0.060660 	4484 	0.059223
34.37 	0.061234 	4491 	0.060321
34.39 	0.060640 	4502 	0.058536
34.41 	0.055678 	4526 	0.054772
34.43 	0.057502 	4539 	0.056448
34.45 	0.056229 	4535 	0.055325
34.47 	0.055749 	4592 	0.054856
34.49 	0.056341 	4597 	0.055301
34.51 	0.054928 	4606 	0.054017
34.53 	0.053844 	4643 	0.052709
34.55 	0.059660 	4643 	0.058377
34.57 	0.053863 	4660 	0.053486
34.59 	0.055187 	4675 	0.054686
34.61 	0.050245 	4697 	0.049247
34.63 	0.055626 	4710 	0.054631
34.65 	0.059733 	4721 	0.058989
34.67 	0.053575 	4741 	0.052463
34.69 	0.052587 	4754 	0.051725
34.71 	0.057491 	4766 	0.056507
34.73 	0.057865 	4787 	0.056764
34.75 	0.060732 	4808 	0.059879
34.77 	0.056870 	4818 	0.056262
34.79 	0.055348 	4824 	0.054620
34.81 	0.058824 	4845 	0.057373
34.83 	0.055121 	4862 	0.053917
34.85 	0.058534 	4869 	0.058052
34.87 	0.057929 	4868 	0.057207
34.89 	0.058173 	4882 	0.056253
34.91 	0.056125 	4882 	0.055645
34.93 	0.055113 	4899 	0.054157
34.95 	0.059305 	4890 	0.058586
34.97 	0.058548 	4902 	0.057233
34.99 	0.062283 	4897 	0.061565
35.01 	0.056876 	4923 	0.055924
35.03 	0.051588 	4943 	0.050877
35.05 	0.048110 	4947 	0.047399
35.07 	0.056073 	4940 	0.055361
35.09 	0.053705 	4953 	0.052759
35.11 	0.051142 	4947 	0.050550
35.13 	0.057886 	4958 	0.057059
35.15 	0.058538 	4937 	0.057588
35.17 	0.058835 	4946 	0.058006
35.19 	0.053420 	4942 	0.052827
35.21 	0.060263 	4945 	0.059434
35.23 	0.062487 	4945 	0.061540
35.25 	0.057050 	4943 	0.056576
35.27 	0.058205 	4948 	0.057850
35.29 	0.057027 	4945 	0.055724
35.31 	0.056152 	4933 	0.055183
35.33 	0.056848 	4943 	0.056137
35.35 	0.053824 	4942 	0.052995
35.37 	0.054060 	4939 	0.052992
35.39 	0.057230 	4945 	0.056400
35.41 	0.050142 	4926 	0.049785
35.43 	0.056152 	4933 	0.055440
35.45 	0.055904 	4937 	0.055192
35.47 	0.057798 	4931 	0.056966
35.49 	0.054175 	4910 	0.053221
35.51 	0.052984 	4926 	0.052271
35.53 	0.057183 	4949 	0.056710
35.55 	0.051365 	4945 	0.050180
35.57 	0.057571 	4933 	0.057096
35.59 	0.055005 	4945 	0.054413
35.61 	0.052003 	4942 	0.051174
35.63 	0.053409 	4943 	0.052698
35.65 	0.065521 	4945 	0.064336
35.67 	0.058276 	4942 	0.057565
35.69 	0.058229 	4946 	0.057045
35.71 	0.052056 	4937 	0.050850
35.73 	0.056726 	4936 	0.055995
35.75 	0.057392 	4931 	0.056422
35.77 	0.055544 	4951 	0.054361
35.79 	0.053933 	4932 	0.053340
35.81 	0.054328 	4933 	0.053853
35.83 	0.058027 	4946 	0.057316
35.85 	0.059372 	4935 	0.058778
35.87 	0.061751 	4923 	0.060442
35.89 	0.051885 	4934 	0.051647
35.91 	0.053582 	4927 	0.052869
35.93 	0.059874 	4927 	0.058923
35.95 	0.050234 	4917 	0.050115
35.97 	0.058428 	4912 	0.057951
35.99 	0.058109 	4939 	0.057022
36.01 	0.053753 	4930 	0.052921
36.03 	0.056646 	4943 	0.055816
36.05 	0.056218 	4945 	0.054915
36.07 	0.058716 	4939 	0.057867
36.09 	0.062146 	4940 	0.061197
36.11 	0.049706 	4929 	0.048993
36.13 	0.057062 	4942 	0.056114
36.15 	0.056084 	4939 	0.055728
36.17 	0.055431 	4925 	0.054004
36.19 	0.053441 	4940 	0.052236
36.21 	0.057415 	4929 	0.056583
36.23 	0.052685 	4935 	0.051379
36.25 	0.054442 	4941 	0.052901
36.27 	0.053198 	4925 	0.052484
36.29 	0.057798 	4931 	0.056709
36.31 	0.055804 	4928 	0.054853
36.33 	0.060815 	4933 	0.059252
36.35 	0.053763 	4929 	0.052456
36.37 	0.062157 	4923 	0.061443
36.39 	0.056086 	4921 	0.055134
36.41 	0.060253 	4896 	0.059176
36.43 	0.058644 	4928 	0.057694
36.45 	0.053753 	4930 	0.053396
36.47 	0.059765 	4936 	0.058578
36.49 	0.052813 	4942 	0.050916
36.51 	0.054531 	4933 	0.053699
36.53 	0.055634 	4943 	0.055160
36.55 	0.055815 	4927 	0.055102
36.57 	0.052290 	4934 	0.051815
36.59 	0.061348 	4939 	0.059807
36.61 	0.055972 	4931 	0.054903
36.63 	0.049686 	4931 	0.048735
36.65 	0.054339 	4932 	0.053508
36.67 	0.057606 	4930 	0.057131
36.69 	0.053966 	4929 	0.053134
36.71 	0.054460 	4921 	0.053746
36.73 	0.059086 	4925 	0.058254
36.75 	0.057848 	4944 	0.056782
36.77 	0.058955 	4919 	0.058479
36.79 	0.053851 	4921 	0.053494
36.81 	0.055736 	4916 	0.054664
36.83 	0.051272 	4915 	0.050676
36.85 	0.053695 	4898 	0.052858
36.87 	0.056028 	4944 	0.054606
36.89 	0.054109 	4916 	0.053037
36.91 	0.053026 	4941 	0.052077
36.93 	0.059635 	4930 	0.058209
36.95 	0.053517 	4933 	0.052805
36.97 	0.057965 	4934 	0.056659
36.99 	0.056535 	4935 	0.055348
37.01 	0.048044 	4933 	0.047569
37.03 	0.053209 	4924 	0.052733
37.05 	0.052567 	4927 	0.051973
37.07 	0.062209 	4935 	0.061497
37.09 	0.052354 	4928 	0.051522
37.11 	0.053901 	4935 	0.053189
37.13 	0.053209 	4924 	0.052376
37.15 	0.061316 	4909 	0.060361
37.17 	0.054520 	4934 	0.053689
37.19 	0.059492 	4925 	0.057946
37.21 	0.049827 	4917 	0.049351
37.23 	0.047987 	4918 	0.047034
37.25 	0.047852 	4911 	0.047255
37.27 	0.060074 	4894 	0.059475
37.29 	0.052333 	4930 	0.051501
37.31 	0.056535 	4935 	0.055210
37.33 	0.055815 	4927 	0.055220
37.35 	0.049413 	4938 	0.048701
37.37 	0.056221 	4927 	0.055389
37.39 	0.055567 	4931 	0.054973
37.41 	0.053133 	4931 	0.051826
37.43 	0.053122 	4932 	0.052647
37.45 	0.053615 	4924 	0.052782
37.47 	0.050517 	4929 	0.049923
37.49 	0.057485 	4923 	0.056652
37.51 	0.049260 	4933 	0.048548
37.53 	0.060175 	4919 	0.058845
37.55 	0.054158 	4930 	0.053326
37.57 	0.055025 	4925 	0.054550
37.59 	0.047813 	4915 	0.047574
37.61 	0.060138 	4922 	0.059662
37.63 	0.055499 	4919 	0.055142
37.65 	0.049817 	4918 	0.049579
37.67 	0.056077 	4904 	0.055241
37.69 	0.055125 	4898 	0.054407
37.71 	0.054575 	4929 	0.053743
37.73 	0.057212 	4929 	0.056143
37.75 	0.049798 	4940 	0.049086
37.77 	0.052846 	4920 	0.052250
37.79 	0.057809 	4930 	0.056978
37.81 	0.057369 	4933 	0.055706
37.83 	0.056504 	4920 	0.055433
37.85 	0.051808 	4922 	0.051213
37.87 	0.054667 	4939 	0.053817
37.89 	0.050355 	4925 	0.049761
37.91 	0.052535 	4930 	0.051347
37.93 	0.057125 	4919 	0.056292
37.95 	0.059541 	4921 	0.058350
37.97 	0.056401 	4929 	0.055569
37.99 	0.054967 	4912 	0.054013
38.01 	0.055601 	4928 	0.054531
38.03 	0.056631 	4909 	0.055795
38.05 	0.052995 	4925 	0.052043
38.07 	0.052557 	4909 	0.051841
38.09 	0.049815 	4878 	0.049335
38.11 	0.065653 	4935 	0.063497
38.13 	0.060766 	4937 	0.059678
38.15 	0.061000 	4918 	0.060405
38.17 	0.056187 	4930 	0.055949
38.19 	0.054564 	4930 	0.053613
38.21 	0.058907 	4923 	0.057479
38.23 	0.056096 	4938 	0.054178
38.25 	0.063047 	4917 	0.062213
38.27 	0.060041 	4930 	0.058615
38.29 	0.056458 	4924 	0.055368
38.31 	0.062716 	4927 	0.061269
38.33 	0.064988 	4924 	0.063779
38.35 	0.061485 	4928 	0.060653
38.37 	0.065800 	4924 	0.064234
38.39 	0.069872 	4909 	0.068778
38.41 	0.065204 	4923 	0.063538
38.43 	0.070789 	4916 	0.070074
38.45 	0.070964 	4918 	0.068939
38.47 	0.072346 	4907 	0.070555
38.49 	0.065614 	4877 	0.064413
38.51 	0.079075 	4932 	0.077769
38.53 	0.064719 	4929 	0.062441
38.55 	0.072934 	4936 	0.071747
38.57 	0.078407 	4923 	0.076841
38.59 	0.072502 	4924 	0.070123
38.61 	0.071515 	4936 	0.070329
38.63 	0.072299 	4924 	0.071109
38.65 	0.068727 	4918 	0.067893
38.67 	0.077577 	4937 	0.076154
38.69 	0.064811 	4922 	0.063720
38.71 	0.072502 	4924 	0.071074
38.73 	0.066694 	4918 	0.065126
38.75 	0.053379 	4927 	0.052785
38.77 	0.066829 	4923 	0.065044
38.79 	0.060195 	4934 	0.058889
38.81 	0.058225 	4912 	0.056913
38.83 	0.065664 	4919 	0.063997
38.85 	0.055375 	4912 	0.053308
38.87 	0.056608 	4911 	0.055296
38.89 	0.057178 	4897 	0.056101
38.91 	0.054456 	4903 	0.053501
38.93 	0.052450 	4938 	0.051857
38.95 	0.056324 	4918 	0.055371
38.97 	0.051308 	4931 	0.050595
38.99 	0.052056 	4937 	0.051819
39.01 	0.051240 	4918 	0.050526
39.03 	0.047021 	4934 	0.046427
39.05 	0.047310 	4925 	0.046596
39.07 	0.048538 	4924 	0.048161
39.09 	0.048548 	4923 	0.047715
39.11 	0.047658 	4931 	0.047044
39.13 	0.049157 	4923 	0.048324
39.15 	0.050051 	4915 	0.049217
39.17 	0.051246 	4937 	0.050771
39.19 	0.052471 	4917 	0.051637
39.21 	0.042363 	4910 	0.041885
39.23 	0.047107 	4925 	0.046393
39.25 	0.044900 	4922 	0.044662
39.27 	0.047047 	4910 	0.046570
39.29 	0.042848 	4901 	0.042251
39.31 	0.045250 	4884 	0.044890
39.33 	0.050091 	4931 	0.048784
39.35 	0.045187 	4935 	0.044357
39.37 	0.048894 	4929 	0.048775
39.39 	0.044431 	4929 	0.044074
39.41 	0.044616 	4931 	0.044022
39.43 	0.046219 	4933 	0.045982
39.45 	0.044670 	4925 	0.044194
39.47 	0.050985 	4923 	0.050271
39.49 	0.045611 	4933 	0.044661
39.51 	0.036353 	4924 	0.036115
39.53 	0.046923 	4923 	0.046447
39.55 	0.044725 	4919 	0.044605
39.57 	0.047233 	4933 	0.046520
39.59 	0.045806 	4912 	0.045210
39.61 	0.048345 	4923 	0.047988
39.63 	0.043478 	4922 	0.043002
39.65 	0.043240 	4926 	0.042289
39.67 	0.043965 	4913 	0.043250
39.69 	0.049227 	4916 	0.048393
39.71 	0.043309 	4895 	0.042950
39.73 	0.045029 	4908 	0.044551
39.75 	0.040584 	4928 	0.039990
39.77 	0.044377 	4935 	0.043546
39.79 	0.046691 	4926 	0.045978
39.81 	0.046276 	4927 	0.045800
39.83 	0.042156 	4934 	0.041444
39.85 	0.051147 	4927 	0.050671
39.87 	0.042640 	4925 	0.042283
39.89 	0.042562 	4934 	0.042087
39.91 	0.042259 	4922 	0.041902
39.93 	0.045372 	4937 	0.044778
39.95 	0.049440 	4915 	0.048467
39.97 	0.041599 	4928 	0.041242
39.99 	0.042376 	4932 	0.042258
40.01 	0.044530 	4918 	0.043439
40.03 	0.047281 	4928 	0.046805
40.05 	0.039862 	4917 	0.038889
40.07 	0.040626 	4923 	0.040388
40.09 	0.046786 	4916 	0.046309
40.11 	0.047193 	4916 	0.046955
40.13 	0.048611 	4896 	0.047893
40.15 	0.040912 	4913 	0.040316
40.17 	0.037946 	4928 	0.037233
40.19 	0.041591 	4929 	0.040977
40.21 	0.048835 	4935 	0.048123
40.23 	0.044809 	4932 	0.044453
40.25 	0.043902 	4920 	0.043188
40.27 	0.041726 	4937 	0.041607
40.29 	0.039578 	4927 	0.038983
40.31 	0.037457 	4939 	0.036745
40.33 	0.042376 	4932 	0.042258
40.35 	0.044725 	4919 	0.044486
40.37 	0.045648 	4929 	0.045173
40.39 	0.039343 	4931 	0.038987
40.41 	0.040812 	4925 	0.040574
40.43 	0.044088 	4922 	0.043493
40.45 	0.046625 	4933 	0.046150
40.47 	0.043920 	4918 	0.043563
40.49 	0.041616 	4926 	0.041021
40.51 	0.045916 	4922 	0.045202
40.53 	0.041294 	4916 	0.040460
40.55 	0.045029 	4908 	0.044193
40.57 	0.046012 	4890 	0.045174
40.59 	0.045777 	4937 	0.045421
40.61 	0.041540 	4935 	0.041065
40.63 	0.045030 	4930 	0.044555
40.65 	0.046182 	4937 	0.045589
40.67 	0.042579 	4932 	0.042460
40.69 	0.040105 	4937 	0.039393
40.71 	0.037510 	4932 	0.036916
40.73 	0.039383 	4926 	0.038669
40.75 	0.040357 	4931 	0.040001
40.77 	0.047985 	4939 	0.047274
40.79 	0.046304 	4924 	0.044757
40.81 	0.038251 	4941 	0.037777
40.83 	0.039367 	4928 	0.038773
40.85 	0.040414 	4924 	0.039582
40.87 	0.043831 	4928 	0.043475
40.89 	0.044616 	4931 	0.043784
40.91 	0.042251 	4923 	0.041894
40.93 	0.043575 	4934 	0.042744
40.95 	0.041522 	4913 	0.041284
40.97 	0.042242 	4924 	0.041647
40.99 	0.039602 	4924 	0.039245
41.01 	0.038070 	4912 	0.037354
41.03 	0.042202 	4905 	0.041844
41.05 	0.040113 	4936 	0.039164
41.07 	0.042394 	4930 	0.041799
41.09 	0.038469 	4939 	0.038114
41.11 	0.047822 	4935 	0.046734
41.13 	0.042545 	4936 	0.041833
41.15 	0.041085 	4941 	0.040255
41.17 	0.037495 	4934 	0.037257
41.19 	0.035700 	4930 	0.035343
41.21 	0.044359 	4937 	0.043746
41.23 	0.034217 	4939 	0.034099
41.25 	0.039935 	4933 	0.039579
41.27 	0.047049 	4931 	0.046574
41.29 	0.042614 	4928 	0.042019
41.31 	0.039327 	4933 	0.038852
41.33 	0.043346 	4937 	0.042872
41.35 	0.039287 	4938 	0.039169
41.37 	0.046913 	4924 	0.046437
41.39 	0.039327 	4933 	0.038971
41.41 	0.039383 	4926 	0.038907
41.43 	0.045445 	4929 	0.044970
41.45 	0.044770 	4914 	0.044055
41.47 	0.044458 	4926 	0.044101
41.49 	0.036182 	4892 	0.035443
41.51 	0.041700 	4940 	0.040870
41.53 	0.039239 	4944 	0.038884
41.55 	0.036474 	4935 	0.036118
41.57 	0.044121 	4941 	0.043172
41.59 	0.035881 	4933 	0.035762
41.61 	0.039370 	4953 	0.039134
41.63 	0.036857 	4938 	0.036738
41.65 	0.037736 	4929 	0.037498
41.67 	0.036842 	4940 	0.036724
41.69 	0.038205 	4947 	0.037968
41.71 	0.035468 	4934 	0.034637
41.73 	0.038695 	4936 	0.038102
41.75 	0.040982 	4929 	0.040507
41.77 	0.040275 	4941 	0.039682
41.79 	0.045712 	4944 	0.045593
41.81 	0.041937 	4936 	0.040869
41.83 	0.035511 	4928 	0.035036
41.85 	0.042519 	4939 	0.042400
41.87 	0.039716 	4935 	0.039123
41.89 	0.042570 	4933 	0.042333
41.91 	0.039100 	4936 	0.038863
41.93 	0.037510 	4932 	0.036798
41.95 	0.041168 	4931 	0.040574
41.97 	0.036630 	4914 	0.036392
41.99 	0.042610 	4905 	0.041774
42.01 	0.041076 	4942 	0.040602
42.03 	0.037255 	4939 	0.037017
42.05 	0.036147 	4952 	0.035792
42.07 	0.040105 	4937 	0.039749
42.09 	0.044058 	4948 	0.043348
42.11 	0.037816 	4945 	0.037698
42.13 	0.041456 	4945 	0.040982
42.15 	0.037060 	4938 	0.036585
42.17 	0.037210 	4918 	0.037091
42.19 	0.040546 	4908 	0.039830
42.21 	0.039584 	4901 	0.039106
42.23 	0.036795 	4892 	0.036555
42.25 	0.032522 	4889 	0.032282
42.27 	0.034469 	4874 	0.034228
42.29 	0.034547 	4863 	0.033703
42.31 	0.036457 	4855 	0.035854
42.33 	0.040132 	4834 	0.039648
42.35 	0.039893 	4838 	0.039529
42.37 	0.035611 	4830 	0.035247
42.39 	0.040591 	4804 	0.039596
42.41 	0.036428 	4804 	0.036184
42.43 	0.035684 	4792 	0.035073
42.45 	0.040410 	4776 	0.040165
42.47 	0.041763 	4765 	0.041271
42.49 	0.043442 	4765 	0.042950
42.51 	0.038372 	4743 	0.037878
42.53 	0.041667 	4728 	0.041171
42.55 	0.039295 	4708 	0.039046
42.57 	0.041226 	4730 	0.040607
42.59 	0.035525 	4729 	0.034658
42.61 	0.043755 	4708 	0.043258
42.63 	0.041622 	4709 	0.041374
42.65 	0.042903 	4685 	0.042653
42.67 	0.038429 	4684 	0.037928
42.69 	0.036799 	4674 	0.036047
42.71 	0.038816 	4663 	0.038565
42.73 	0.035129 	4640 	0.034751
42.75 	0.038553 	4617 	0.038299
42.77 	0.039565 	4600 	0.038801
42.79 	0.033173 	4582 	0.032790
42.81 	0.039237 	4562 	0.038852
42.83 	0.032407 	4536 	0.032278
42.85 	0.039973 	4528 	0.039456
42.87 	0.037119 	4499 	0.036599
42.89 	0.033929 	4480 	0.033406
42.91 	0.041068 	4456 	0.040148
42.93 	0.040261 	4446 	0.039866
42.95 	0.039629 	4416 	0.039231
42.97 	0.042945 	4401 	0.042412
42.99 	0.036716 	4385 	0.036182
43.01 	0.039881 	4363 	0.039881
43.03 	0.035080 	4333 	0.035080
43.05 	0.035838 	4325 	0.035296
43.07 	0.035615 	4296 	0.035342
43.09 	0.034555 	4283 	0.034418
43.11 	0.036663 	4255 	0.036112
43.13 	0.044607 	4237 	0.044331
43.15 	0.040894 	4206 	0.040476
43.17 	0.038765 	4179 	0.038625
43.19 	0.039819 	4194 	0.039539
43.21 	0.033317 	4172 	0.032756
43.23 	0.041887 	4154 	0.041182
43.25 	0.038210 	4135 	0.037927
43.27 	0.042875 	4105 	0.042589
43.29 	0.044146 	4100 	0.043861
43.31 	0.038000 	4079 	0.037569
43.33 	0.034066 	4051 	0.033632
43.35 	0.039187 	4032 	0.039041
43.37 	0.038854 	4015 	0.038271
43.39 	0.037731 	4002 	0.037585
43.41 	0.038016 	3972 	0.037869
43.43 	0.038384 	3960 	0.038384
43.45 	0.036595 	3935 	0.036595
43.47 	0.041826 	3921 	0.041228
43.49 	0.035155 	3897 	0.035005
43.51 	0.039464 	3877 	0.039010
43.53 	0.033394 	3863 	0.032787
43.55 	0.037787 	2964 	0.037194
43.57 	0.035746 	2238 	0.034394
43.59 	0.038946 	1746 	0.038946
43.61 	0.039230 	1351 	0.038797
43.63 	0.033966 	1001 	0.033966
43.65 	0.026201 	687 	0.026201
43.67 	0.033865 	502 	0.032698
43.69 	0.035422 	367 	0.035422
43.71 	0.054393 	239 	0.054393
43.73 	0.008333 	120 	0.008333
43.75 	0.000000 	16 	0.000000