File: Example_Data/25SC_s1_0051.001.dat
#F C:\frames\spec\25SC_s1_0051.001
#C title =s:51 frm:1 25SC_s1
#C wavelength =0.15406

#S 1  fr_average C:\frames\spec\25SC_s1_0051.001 C:\win32app\speccom\mask.axs chi 0 180 0 360 0.02
#C 2 theta =0.000000 to 180 deg
#C   q   =0.000000 to 81.568 nm^-1
#C  chi  =0.000000 to 360 deg
#C collumns:
#C  1 position (2theta or chi in degrees)
#C  2 average intensity (sum of all counts in the region divided with number of pixels)
#C  3 Number of pixels in region)
#C  4 error (sum of sqrt(intensity) for all pixels divided by number)
#N 4
#L TTh  Int  N_pix  Err
32.99 	0.065574 	61 	0.065574
33.01 	0.066438 	873 	0.065096
33.03 	0.058950 	1391 	0.057687
33.05 	0.052362 	1757 	0.051695
33.07 	0.061463 	2050 	0.059177
33.09 	0.048147 	2347 	0.047647
33.11 	0.053509 	2579 	0.052828
33.13 	0.064447 	2793 	0.062769
33.15 	0.057686 	2999 	0.057100
33.17 	0.052484 	3201 	0.051935
33.19 	0.052663 	3342 	0.051962
33.21 	0.058207 	3436 	0.056843
33.23 	0.059324 	3523 	0.057994
33.25 	0.053987 	3612 	0.053500
33.27 	0.061983 	3630 	0.061015
33.29 	0.058662 	3648 	0.057057
33.31 	0.064481 	3660 	0.063361
33.33 	0.056158 	3686 	0.054728
33.35 	0.054142 	3694 	0.053825
33.37 	0.058158 	3714 	0.057843
33.39 	0.060070 	3729 	0.059598
33.41 	0.044920 	3740 	0.044763
33.43 	0.057697 	3761 	0.057386
33.45 	0.062020 	3773 	0.061554
33.47 	0.053449 	3798 	0.052524
33.49 	0.061171 	3809 	0.060402
33.51 	0.057143 	3815 	0.056222
33.53 	0.060661 	3841 	0.059289
33.55 	0.056727 	3843 	0.055964
33.57 	0.060356 	3877 	0.059147
33.59 	0.061340 	3880 	0.060585
33.61 	0.055513 	3909 	0.054764
33.63 	0.050523 	3919 	0.049776
33.65 	0.063088 	3931 	0.062045
33.67 	0.061204 	3954 	0.059870
33.69 	0.059449 	3953 	0.058263
33.71 	0.060126 	3975 	0.059094
33.73 	0.065934 	4004 	0.064471
33.75 	0.061265 	3999 	0.060069
33.77 	0.052174 	4025 	0.051155
33.79 	0.058154 	4041 	0.057719
33.81 	0.055473 	4038 	0.054603
33.83 	0.052840 	4050 	0.051682
33.85 	0.051232 	4099 	0.050375
33.87 	0.058623 	4111 	0.057768
33.89 	0.057268 	4121 	0.056983
33.91 	0.061702 	4149 	0.060854
33.93 	0.055167 	4151 	0.053756
33.95 	0.060033 	4181 	0.059333
33.97 	0.054415 	4190 	0.053576
33.99 	0.059762 	4200 	0.058646
34.01 	0.054593 	4213 	0.053759
34.03 	0.059849 	4244 	0.059435
34.05 	0.061853 	4252 	0.061302
34.07 	0.057170 	4268 	0.056461
34.09 	0.062529 	4286 	0.061026
34.11 	0.059972 	4302 	0.059019
34.13 	0.063603 	4308 	0.063331
34.15 	0.058878 	4331 	0.058202
34.17 	0.059770 	4350 	0.058827
34.19 	0.055021 	4362 	0.054618
34.21 	0.053535 	4371 	0.052329
34.23 	0.056453 	4393 	0.055253
34.25 	0.062216 	4404 	0.061817
34.27 	0.054953 	4422 	0.053628
34.29 	0.052762 	4435 	0.051970
34.31 	0.058995 	4458 	0.057812
34.33 	0.060166 	4471 	0.058462
34.35 	0.052632 	4484 	0.051717
34.37 	0.053218 	4491 	0.052283
34.39 	0.052421 	4502 	0.051901
34.41 	0.052585 	4526 	0.051938
34.43 	0.055299 	4539 	0.054395
34.45 	0.064168 	4535 	0.063522
34.47 	0.064024 	4592 	0.063514
34.49 	0.056124 	4597 	0.055232
34.51 	0.056014 	4606 	0.054869
34.53 	0.055137 	4643 	0.054127
34.55 	0.057075 	4643 	0.056444
34.57 	0.056867 	4660 	0.055861
34.59 	0.054759 	4675 	0.053611
34.61 	0.053013 	4697 	0.052618
34.63 	0.050531 	4710 	0.050033
34.65 	0.052955 	4721 	0.051714
34.67 	0.059481 	4741 	0.058225
34.69 	0.051956 	4754 	0.051463
34.71 	0.055183 	4766 	0.053953
34.73 	0.056403 	4787 	0.055546
34.75 	0.053037 	4808 	0.052306
34.77 	0.051889 	4818 	0.051159
34.79 	0.058458 	4824 	0.057608
34.81 	0.053251 	4845 	0.052525
34.83 	0.049774 	4862 	0.049031
34.85 	0.059150 	4869 	0.057947
34.87 	0.053615 	4868 	0.053014
34.89 	0.047726 	4882 	0.047126
34.91 	0.055100 	4882 	0.053661
34.93 	0.053684 	4899 	0.052608
34.95 	0.052761 	4890 	0.051922
34.97 	0.055080 	4902 	0.054243
34.99 	0.060037 	4897 	0.059439
35.01 	0.056063 	4923 	0.055111
35.03 	0.059680 	4943 	0.058614
35.05 	0.052759 	4947 	0.051694
35.07 	0.050000 	4940 	0.049526
35.09 	0.056733 	4953 	0.055649
35.11 	0.057206 	4947 	0.056614
35.13 	0.059701 	4958 	0.059111
35.15 	0.054487 	4937 	0.053775
35.17 	0.056611 	4946 	0.055033
35.19 	0.058074 	4942 	0.057007
35.21 	0.055814 	4945 	0.055459
35.23 	0.051365 	4945 	0.050368
35.25 	0.050981 	4943 	0.050626
35.27 	0.049313 	4948 	0.048603
35.29 	0.056623 	4945 	0.055912
35.31 	0.054531 	4933 	0.054056
35.33 	0.059073 	4943 	0.058125
35.35 	0.057264 	4942 	0.055842
35.37 	0.054464 	4939 	0.053871
35.39 	0.054196 	4945 	0.052893
35.41 	0.053593 	4926 	0.053236
35.43 	0.050476 	4933 	0.049526
35.45 	0.055297 	4937 	0.054466
35.47 	0.050294 	4931 	0.049581
35.49 	0.054786 	4910 	0.054190
35.51 	0.048112 	4926 	0.047280
35.53 	0.060012 	4949 	0.058947
35.55 	0.047523 	4945 	0.046575
35.57 	0.051287 	4933 	0.050575
35.59 	0.059858 	4945 	0.058318
35.61 	0.063335 	4942 	0.062149
35.63 	0.055432 	4943 	0.054839
35.65 	0.053994 	4945 	0.053283
35.67 	0.053622 	4942 	0.053266
35.69 	0.059644 	4946 	0.058341
35.71 	0.053474 	4937 	0.052762
35.73 	0.055308 	4936 	0.054359
35.75 	0.056986 	4931 	0.055561
35.77 	0.058574 	4951 	0.057627
35.79 	0.055353 	4932 	0.054640
35.81 	0.053923 	4933 	0.053091
35.83 	0.057825 	4946 	0.056858
35.85 	0.051469 	4935 	0.050401
35.87 	0.052610 	4923 	0.051896
35.89 	0.057357 	4934 	0.056645
35.91 	0.057845 	4927 	0.056893
35.93 	0.060280 	4927 	0.058834
35.95 	0.058369 	4917 	0.056920
35.97 	0.053950 	4912 	0.052638
35.99 	0.055882 	4939 	0.055170
36.01 	0.057404 	4930 	0.056215
36.03 	0.060085 	4943 	0.058900
36.05 	0.056825 	4945 	0.056233
36.07 	0.052642 	4939 	0.051931
36.09 	0.055870 	4940 	0.054329
36.11 	0.055995 	4929 	0.055282
36.13 	0.051194 	4942 	0.050720
36.15 	0.062766 	4939 	0.061936
36.17 	0.059289 	4925 	0.058100
36.19 	0.054453 	4940 	0.054098
36.21 	0.057010 	4929 	0.056534
36.23 	0.052280 	4935 	0.051330
36.25 	0.056062 	4941 	0.055232
36.27 	0.057056 	4925 	0.056104
36.29 	0.056378 	4931 	0.055546
36.31 	0.059659 	4928 	0.057856
36.33 	0.055747 	4933 	0.055391
36.35 	0.060459 	4929 	0.059270
36.37 	0.058501 	4923 	0.057668
36.39 	0.054460 	4921 	0.053151
36.41 	0.055147 	4896 	0.054788
36.43 	0.058239 	4928 	0.057149
36.45 	0.058215 	4930 	0.057264
36.47 	0.059157 	4936 	0.058089
36.49 	0.060502 	4942 	0.059791
36.51 	0.055342 	4933 	0.054392
36.53 	0.054218 	4943 	0.053626
36.55 	0.057439 	4927 	0.056844
36.57 	0.061411 	4934 	0.059966
36.59 	0.056084 	4939 	0.055254
36.61 	0.054958 	4931 	0.054127
36.63 	0.061245 	4931 	0.060414
36.65 	0.052514 	4932 	0.051920
36.67 	0.060243 	4930 	0.059293
36.69 	0.059241 	4929 	0.058033
36.71 	0.056899 	4921 	0.056304
36.73 	0.049746 	4925 	0.049151
36.75 	0.051173 	4944 	0.050581
36.77 	0.052246 	4919 	0.051413
36.79 	0.063199 	4921 	0.061770
36.81 	0.058177 	4916 	0.057820
36.83 	0.056358 	4915 	0.055524
36.85 	0.058187 	4898 	0.057828
36.87 	0.057039 	4944 	0.056209
36.89 	0.049837 	4916 	0.049122
36.91 	0.058085 	4941 	0.057117
36.93 	0.057606 	4930 	0.056161
36.95 	0.061220 	4933 	0.060152
36.97 	0.055330 	4934 	0.054262
36.99 	0.051672 	4935 	0.051434
37.01 	0.052504 	4933 	0.051653
37.03 	0.058083 	4924 	0.057369
37.05 	0.058859 	4927 	0.057552
37.07 	0.057143 	4935 	0.056055
37.09 	0.055398 	4928 	0.054566
37.11 	0.060790 	4935 	0.059247
37.13 	0.056864 	4924 	0.056032
37.15 	0.053779 	4909 	0.053182
37.17 	0.054317 	4934 	0.053605
37.19 	0.055228 	4925 	0.054753
37.21 	0.047997 	4917 	0.047282
37.23 	0.054697 	4918 	0.053387
37.25 	0.052331 	4911 	0.051497
37.27 	0.055170 	4894 	0.054691
37.29 	0.051116 	4930 	0.051116
37.31 	0.056130 	4935 	0.055655
37.33 	0.057845 	4927 	0.056774
37.35 	0.054273 	4938 	0.053205
37.37 	0.057236 	4927 	0.056403
37.39 	0.056986 	4931 	0.055898
37.41 	0.053944 	4931 	0.053588
37.43 	0.049878 	4932 	0.049522
37.45 	0.057677 	4924 	0.057201
37.47 	0.061067 	4929 	0.060235
37.49 	0.058298 	4923 	0.057346
37.51 	0.053923 	4933 	0.053091
37.53 	0.054279 	4919 	0.053088
37.55 	0.052333 	4930 	0.051382
37.57 	0.049340 	4925 	0.049102
37.59 	0.055544 	4915 	0.054690
37.61 	0.055668 	4922 	0.055073
37.63 	0.051230 	4919 	0.050873
37.65 	0.051647 	4918 	0.051171
37.67 	0.058728 	4904 	0.057891
37.69 	0.057575 	4898 	0.056977
37.71 	0.053561 	4929 	0.052947
37.73 	0.051126 	4929 	0.050056
37.75 	0.056073 	4940 	0.055006
37.77 	0.055285 	4920 	0.054689
37.79 	0.055984 	4930 	0.055251
37.81 	0.055544 	4933 	0.054951
37.83 	0.052642 	4920 	0.052047
37.85 	0.050183 	4922 	0.049231
37.87 	0.045556 	4939 	0.045081
37.89 	0.053604 	4925 	0.052890
37.91 	0.053347 	4930 	0.052515
37.93 	0.055296 	4919 	0.054224
37.95 	0.053444 	4921 	0.052730
37.97 	0.050923 	4929 	0.050329
37.99 	0.053135 	4912 	0.052658
38.01 	0.048904 	4928 	0.048310
38.03 	0.047464 	4909 	0.046629
38.05 	0.045685 	4925 	0.045091
38.07 	0.055205 	4909 	0.054369
38.09 	0.053506 	4878 	0.053145
38.11 	0.058967 	4935 	0.058017
38.13 	0.055297 	4937 	0.053992
38.15 	0.057137 	4918 	0.056065
38.17 	0.054564 	4930 	0.053851
38.19 	0.051927 	4930 	0.051214
38.21 	0.062157 	4923 	0.060848
38.23 	0.063994 	4938 	0.063163
38.25 	0.057759 	4917 	0.056567
38.27 	0.065923 	4930 	0.064478
38.29 	0.059301 	4924 	0.058350
38.31 	0.061295 	4927 	0.060344
38.33 	0.065800 	4924 	0.065205
38.35 	0.071834 	4928 	0.070408
38.37 	0.067222 	4924 	0.066151
38.39 	0.075372 	4909 	0.073920
38.41 	0.067439 	4923 	0.065515
38.43 	0.067941 	4916 	0.066869
38.45 	0.069947 	4918 	0.068260
38.47 	0.076829 	4907 	0.075277
38.49 	0.078327 	4877 	0.075444
38.51 	0.073195 	4932 	0.071157
38.53 	0.070805 	4929 	0.069498
38.55 	0.079619 	4936 	0.077364
38.57 	0.066829 	4923 	0.065282
38.59 	0.062754 	4924 	0.061188
38.61 	0.065032 	4936 	0.063470
38.63 	0.064988 	4924 	0.063084
38.65 	0.066084 	4918 	0.065012
38.67 	0.060563 	4937 	0.059495
38.69 	0.063998 	4922 	0.062451
38.71 	0.062754 	4924 	0.061207
38.73 	0.053477 	4918 	0.052524
38.75 	0.052365 	4927 	0.051394
38.77 	0.052001 	4923 	0.051644
38.79 	0.049655 	4934 	0.049181
38.81 	0.048860 	4912 	0.048502
38.83 	0.056516 	4919 	0.056158
38.85 	0.049674 	4912 	0.048720
38.87 	0.049481 	4911 	0.049481
38.89 	0.048805 	4897 	0.048447
38.91 	0.053845 	4903 	0.053247
38.93 	0.038882 	4938 	0.038289
38.95 	0.046767 	4918 	0.046171
38.97 	0.045224 	4931 	0.044868
38.99 	0.042941 	4937 	0.042348
39.01 	0.052460 	4918 	0.051269
39.03 	0.044386 	4934 	0.043674
39.05 	0.043655 	4925 	0.042584
39.07 	0.052600 	4924 	0.051390
39.09 	0.049766 	4923 	0.049052
39.11 	0.045427 	4931 	0.045051
39.13 	0.049360 	4923 	0.048765
39.15 	0.048016 	4915 	0.046944
39.17 	0.043549 	4937 	0.043193
39.19 	0.047793 	4917 	0.046821
39.21 	0.045825 	4910 	0.045109
39.23 	0.047716 	4925 	0.046645
39.25 	0.045713 	4922 	0.045118
39.27 	0.043992 	4910 	0.043395
39.29 	0.045909 	4901 	0.045311
39.31 	0.045045 	4884 	0.044805
39.33 	0.041574 	4931 	0.041336
39.35 	0.043161 	4935 	0.042449
39.37 	0.046054 	4929 	0.045460
39.39 	0.045445 	4929 	0.044732
39.41 	0.048469 	4931 	0.047756
39.43 	0.044800 	4933 	0.044444
39.45 	0.042437 	4925 	0.041842
39.47 	0.043266 	4923 	0.042909
39.49 	0.046827 	4933 	0.046234
39.51 	0.042242 	4924 	0.042004
39.53 	0.046313 	4923 	0.045599
39.55 	0.047977 	4919 	0.047263
39.57 	0.042976 	4933 	0.042976
39.59 	0.042142 	4912 	0.041168
39.61 	0.037376 	4923 	0.036900
39.63 	0.043681 	4922 	0.042353
39.65 	0.046894 	4926 	0.046299
39.67 	0.043151 	4913 	0.043032
39.69 	0.046989 	4916 	0.046274
39.71 	0.042901 	4895 	0.042542
39.73 	0.040750 	4908 	0.040392
39.75 	0.042208 	4928 	0.041851
39.77 	0.041540 	4935 	0.041065
39.79 	0.039992 	4926 	0.039516
39.81 	0.039172 	4927 	0.038815
39.83 	0.045602 	4934 	0.045008
39.85 	0.043637 	4927 	0.043518
39.87 	0.044061 	4925 	0.043942
39.89 	0.037900 	4934 	0.037188
39.91 	0.041853 	4922 	0.041496
39.93 	0.046384 	4937 	0.045791
39.95 	0.043540 	4915 	0.043063
39.97 	0.044034 	4928 	0.042845
39.99 	0.042985 	4932 	0.042628
40.01 	0.046157 	4918 	0.045442
40.03 	0.035714 	4928 	0.035477
40.05 	0.045149 	4917 	0.044177
40.07 	0.042657 	4923 	0.042300
40.09 	0.040277 	4916 	0.039681
40.11 	0.045972 	4916 	0.045019
40.13 	0.044730 	4896 	0.044371
40.15 	0.041726 	4913 	0.041488
40.17 	0.040584 	4928 	0.039871
40.19 	0.044228 	4929 	0.043990
40.21 	0.040527 	4935 	0.040171
40.23 	0.036496 	4932 	0.035902
40.25 	0.034553 	4920 	0.034434
40.27 	0.039700 	4937 	0.039107
40.29 	0.045058 	4927 	0.044582
40.31 	0.045556 	4939 	0.044488
40.33 	0.044404 	4932 	0.043572
40.35 	0.041269 	4919 	0.041149
40.37 	0.041388 	4929 	0.040912
40.39 	0.038532 	4931 	0.037581
40.41 	0.044670 	4925 	0.044075
40.43 	0.045104 	4922 	0.044985
40.45 	0.038313 	4933 	0.038195
40.47 	0.043107 	4918 	0.042750
40.49 	0.044661 	4926 	0.044304
40.51 	0.045916 	4922 	0.045440
40.53 	0.041294 	4916 	0.040936
40.55 	0.040139 	4908 	0.039542
40.57 	0.040900 	4890 	0.040161
40.59 	0.042131 	4937 	0.041419
40.61 	0.045390 	4935 	0.044559
40.63 	0.039554 	4930 	0.038841
40.65 	0.036459 	4937 	0.035985
40.67 	0.038321 	4932 	0.037846
40.69 	0.040713 	4937 	0.040238
40.71 	0.039943 	4932 	0.039824
40.73 	0.044458 	4926 	0.043744
40.75 	0.039546 	4931 	0.038952
40.77 	0.040899 	4939 	0.040069
40.79 	0.041836 	4924 	0.041479
40.81 	0.047156 	4941 	0.046682
40.83 	0.042411 	4928 	0.042054
40.85 	0.039805 	4924 	0.039567
40.87 	0.042411 	4928 	0.041579
40.89 	0.036504 	4931 	0.036147
40.91 	0.047329 	4923 	0.046496
40.93 	0.044386 	4934 	0.043911
40.95 	0.038673 	4913 	0.038077
40.97 	0.036353 	4924 	0.036115
40.99 	0.043054 	4924 	0.042698
41.01 	0.037052 	4912 	0.036814
41.03 	0.037309 	4905 	0.036812
41.05 	0.038493 	4936 	0.037899
41.07 	0.041582 	4930 	0.041345
41.09 	0.034217 	4939 	0.033506
41.11 	0.039108 	4935 	0.038515
41.13 	0.041126 	4936 	0.040889
41.15 	0.041490 	4941 	0.040778
41.17 	0.039116 	4934 	0.038523
41.19 	0.041988 	4930 	0.041275
41.21 	0.040510 	4937 	0.040036
41.23 	0.038874 	4939 	0.038518
41.25 	0.045611 	4933 	0.044780
41.27 	0.044818 	4931 	0.044818
41.29 	0.039976 	4928 	0.039500
41.31 	0.039530 	4933 	0.038936
41.33 	0.037067 	4937 	0.036474
41.35 	0.040907 	4938 	0.040077
41.37 	0.045288 	4924 	0.044456
41.39 	0.042165 	4933 	0.041928
41.41 	0.038774 	4926 	0.038536
41.43 	0.036519 	4929 	0.036162
41.45 	0.042939 	4914 	0.041866
41.47 	0.041007 	4926 	0.040769
41.49 	0.042314 	4892 	0.041835
41.51 	0.038866 	4940 	0.038392
41.53 	0.036408 	4944 	0.035934
41.55 	0.039514 	4935 	0.039276
41.57 	0.044525 	4941 	0.043696
41.59 	0.042976 	4933 	0.042738
41.61 	0.042197 	4953 	0.041487
41.63 	0.041920 	4938 	0.041327
41.65 	0.041388 	4929 	0.040793
41.67 	0.038664 	4940 	0.038071
41.69 	0.039822 	4947 	0.039348
41.71 	0.037495 	4934 	0.037139
41.73 	0.039708 	4936 	0.039471
41.75 	0.040982 	4929 	0.040625
41.77 	0.040680 	4941 	0.039969
41.79 	0.037419 	4944 	0.036471
41.81 	0.041937 	4936 	0.041462
41.83 	0.036323 	4928 	0.035610
41.85 	0.038469 	4939 	0.037876
41.87 	0.043364 	4935 	0.042652
41.89 	0.040543 	4933 	0.040425
41.91 	0.044976 	4936 	0.044264
41.93 	0.035280 	4932 	0.034686
41.95 	0.040965 	4931 	0.040609
41.97 	0.038665 	4914 	0.038307
41.99 	0.039144 	4905 	0.038785
42.01 	0.043909 	4942 	0.042942
42.03 	0.037052 	4939 	0.036340
42.05 	0.037359 	4952 	0.037240
42.07 	0.038687 	4937 	0.038450
42.09 	0.037995 	4948 	0.037403
42.11 	0.036805 	4945 	0.036213
42.13 	0.042467 	4945 	0.041875
42.15 	0.036655 	4938 	0.036536
42.17 	0.041684 	4918 	0.040969
42.19 	0.037286 	4908 	0.036570
42.21 	0.037747 	4901 	0.037269
42.23 	0.035364 	4892 	0.035124
42.25 	0.039476 	4889 	0.039117
42.27 	0.041034 	4874 	0.040674
42.29 	0.033313 	4863 	0.033192
42.31 	0.036869 	4855 	0.036507
42.33 	0.040339 	4834 	0.039733
42.35 	0.039479 	4838 	0.039237
42.37 	0.040994 	4830 	0.040266
42.39 	0.039759 	4804 	0.039515
42.41 	0.039342 	4804 	0.038733
42.43 	0.035267 	4792 	0.034656
42.45 	0.040620 	4776 	0.039761
42.47 	0.037356 	4765 	0.037233
42.49 	0.036097 	4765 	0.035482
42.51 	0.040059 	4743 	0.039565
42.53 	0.035956 	4728 	0.035460
42.55 	0.038445 	4708 	0.038072
42.57 	0.036575 	4730 	0.036327
42.59 	0.036371 	4729 	0.036000
42.61 	0.039507 	4708 	0.039010
42.63 	0.035252 	4709 	0.035003
42.65 	0.032657 	4685 	0.032407
42.67 	0.034159 	4684 	0.033909
42.69 	0.037869 	4674 	0.037618
42.71 	0.034956 	4663 	0.034705
42.73 	0.032543 	4640 	0.032164
42.75 	0.036820 	4617 	0.036440
42.77 	0.034783 	4600 	0.034401
42.79 	0.036229 	4582 	0.036101
42.81 	0.038360 	4562 	0.037975
42.83 	0.035494 	4536 	0.035494
42.85 	0.035557 	4528 	0.035039
42.87 	0.044232 	4499 	0.043711
42.89 	0.038616 	4480 	0.037941
42.91 	0.040171 	4456 	0.040039
42.93 	0.042060 	4446 	0.041665
42.95 	0.033741 	4416 	0.033210
42.97 	0.034765 	4401 	0.034366
42.99 	0.038769 	4385 	0.038368
43.01 	0.028192 	4363 	0.027520
43.03 	0.037618 	4333 	0.037348
43.05 	0.036069 	4325 	0.035663
43.07 	0.039339 	4296 	0.039203
43.09 	0.035022 	4283 	0.034612
43.11 	0.037838 	4255 	0.037562
43.13 	0.034222 	4237 	0.034084
43.15 	0.036139 	4206 	0.036000
43.17 	0.034937 	4179 	0.034516
43.19 	0.037434 	4194 	0.036596
43.21 	0.035714 	4172 	0.034849
43.23 	0.033221 	4154 	0.032939
43.25 	0.039903 	4135 	0.039478
43.27 	0.040682 	4105 	0.040397
43.29 	0.038780 	4100 	0.038066
43.31 	0.035303 	4079 	0.034728
43.33 	0.038262 	4051 	0.037973
43.35 	0.039931 	4032 	0.039204
43.37 	0.037111 	4015 	0.036211
43.39 	0.035732 	4002 	0.035147
43.41 	0.030715 	3972 	0.030420
43.43 	0.032828 	3960 	0.032237
43.45 	0.041169 	3935 	0.040425
43.47 	0.037235 	3921 	0.037235
43.49 	0.041057 	3897 	0.040606
43.51 	0.036626 	3877 	0.036626
43.53 	0.032099 	3863 	0.032099
43.55 	0.039474 	2964 	0.039078
43.57 	0.033959 	2238 	0.033697
43.59 	0.034937 	1746 	0.033930
43.61 	0.041451 	1351 	0.041017
43.63 	0.035964 	1001 	0.035964
43.65 	0.036390 	687 	0.036390
43.67 	0.025896 	502 	0.025896
43.69 	0.046322 	367 	0.046322
43.71 	0.050209 	239 	0.050209
43.73 	0.025000 	120 	0.025000
43.75 	0.062500 	16 	0.062500