File: Example_Data/25SC_s1_0045.003.dat
#F C:\frames\spec\25SC_s1_0045.003
#C title =s:45 frm:3 25SC_s1
#C wavelength =0.15406

#S 1  fr_average C:\frames\spec\25SC_s1_0045.003 C:\win32app\speccom\mask.axs chi 0 180 0 360 0.02
#C 2 theta =0.000000 to 180 deg
#C   q   =0.000000 to 81.568 nm^-1
#C  chi  =0.000000 to 360 deg
#C collumns:
#C  1 position (2theta or chi in degrees)
#C  2 average intensity (sum of all counts in the region divided with number of pixels)
#C  3 Number of pixels in region)
#C  4 error (sum of sqrt(intensity) for all pixels divided by number)
#N 4
#L TTh  Int  N_pix  Err
32.99 	0.016393 	61 	0.016393
33.01 	0.056128 	873 	0.055457
33.03 	0.063264 	1391 	0.062422
33.05 	0.062038 	1757 	0.061037
33.07 	0.060488 	2050 	0.058488
33.09 	0.058372 	2347 	0.056625
33.11 	0.055060 	2579 	0.053697
33.13 	0.055854 	2793 	0.055434
33.15 	0.065022 	2999 	0.063654
33.17 	0.054983 	3201 	0.054617
33.19 	0.062537 	3342 	0.061310
33.21 	0.054715 	3436 	0.053692
33.23 	0.057621 	3523 	0.057289
33.25 	0.053156 	3612 	0.052507
33.27 	0.047107 	3630 	0.046785
33.29 	0.055647 	3648 	0.054523
33.31 	0.057104 	3660 	0.055797
33.33 	0.055073 	3686 	0.054596
33.35 	0.062805 	3694 	0.061536
33.37 	0.064082 	3714 	0.062505
33.39 	0.071333 	3729 	0.070704
33.41 	0.064171 	3740 	0.063231
33.43 	0.058495 	3761 	0.058028
33.45 	0.063875 	3773 	0.062478
33.47 	0.064771 	3798 	0.064000
33.49 	0.058020 	3809 	0.057098
33.51 	0.063172 	3815 	0.062250
33.53 	0.068211 	3841 	0.066686
33.55 	0.056206 	3843 	0.055444
33.57 	0.063451 	3877 	0.062696
33.59 	0.054124 	3880 	0.052765
33.61 	0.060118 	3909 	0.058919
33.63 	0.057413 	3919 	0.056516
33.65 	0.056474 	3931 	0.056176
33.67 	0.058675 	3954 	0.057490
33.69 	0.055654 	3953 	0.054468
33.71 	0.060629 	3975 	0.060039
33.73 	0.062188 	4004 	0.061310
33.75 	0.057764 	3999 	0.056886
33.77 	0.055652 	4025 	0.054488
33.79 	0.060134 	4041 	0.059264
33.81 	0.059931 	4038 	0.058915
33.83 	0.061728 	4050 	0.060571
33.85 	0.053672 	4099 	0.052528
33.87 	0.054974 	4111 	0.053977
33.89 	0.051929 	4121 	0.051218
33.91 	0.064112 	4149 	0.062982
33.93 	0.051554 	4151 	0.050848
33.95 	0.060512 	4181 	0.059531
33.97 	0.060382 	4190 	0.058704
33.99 	0.065714 	4200 	0.064297
34.01 	0.055542 	4213 	0.054268
34.03 	0.062912 	4244 	0.061670
34.05 	0.059501 	4252 	0.057573
34.07 	0.058575 	4268 	0.057340
34.09 	0.056696 	4286 	0.055603
34.11 	0.061832 	4302 	0.061015
34.13 	0.056871 	4308 	0.056055
34.15 	0.066036 	4331 	0.063984
34.17 	0.064598 	4350 	0.063251
34.19 	0.063503 	4362 	0.061354
34.21 	0.059483 	4371 	0.058679
34.23 	0.059413 	4393 	0.058479
34.25 	0.064033 	4404 	0.062969
34.27 	0.056083 	4422 	0.054891
34.29 	0.062909 	4435 	0.062116
34.31 	0.056079 	4458 	0.055553
34.33 	0.063073 	4471 	0.061894
34.35 	0.058430 	4484 	0.056993
34.37 	0.060343 	4491 	0.059017
34.39 	0.060418 	4502 	0.059116
34.41 	0.064516 	4526 	0.063869
34.43 	0.057061 	4539 	0.056932
34.45 	0.063506 	4535 	0.062581
34.47 	0.051611 	4592 	0.051229
34.49 	0.059169 	4597 	0.058150
34.51 	0.056448 	4606 	0.056067
34.53 	0.055568 	4643 	0.054937
34.55 	0.061598 	4643 	0.060967
34.57 	0.055794 	4660 	0.054663
34.59 	0.058396 	4675 	0.057769
34.61 	0.058761 	4697 	0.057763
34.63 	0.057113 	4710 	0.056242
34.65 	0.060792 	4721 	0.059800
34.67 	0.053786 	4741 	0.053292
34.69 	0.062894 	4754 	0.061642
34.71 	0.057491 	4766 	0.056733
34.73 	0.057238 	4787 	0.056382
34.75 	0.060108 	4808 	0.059255
34.77 	0.056663 	4818 	0.055447
34.79 	0.057629 	4824 	0.056657
34.81 	0.059856 	4845 	0.058888
34.83 	0.054299 	4862 	0.053576
34.85 	0.053194 	4869 	0.052231
34.87 	0.055053 	4868 	0.054331
34.89 	0.054076 	4882 	0.052756
34.91 	0.055100 	4882 	0.054121
34.93 	0.055930 	4899 	0.054734
34.95 	0.060532 	4890 	0.058974
34.97 	0.054672 	4902 	0.053716
34.99 	0.055136 	4897 	0.054418
35.01 	0.061548 	4923 	0.060338
35.03 	0.060287 	4943 	0.059576
35.05 	0.054376 	4947 	0.053429
35.07 	0.059514 	4940 	0.058803
35.09 	0.057541 	4953 	0.056240
35.11 	0.050131 	4947 	0.049303
35.13 	0.062525 	4958 	0.061698
35.15 	0.054284 	4937 	0.053335
35.17 	0.061059 	4946 	0.059757
35.19 	0.054836 	4942 	0.054243
35.21 	0.052781 	4945 	0.051576
35.23 	0.057634 	4945 	0.056449
35.25 	0.063929 	4943 	0.062744
35.27 	0.058812 	4948 	0.058338
35.29 	0.055410 	4945 	0.055054
35.31 	0.053720 	4933 	0.052889
35.33 	0.059073 	4943 	0.058125
35.35 	0.052003 	4942 	0.051035
35.37 	0.051630 	4939 	0.050562
35.39 	0.060465 	4945 	0.059498
35.41 	0.057653 	4926 	0.057059
35.43 	0.058382 	4933 	0.056839
35.45 	0.056107 	4937 	0.055395
35.47 	0.061448 	4931 	0.060498
35.49 	0.060896 	4910 	0.059822
35.51 	0.059683 	4926 	0.058851
35.53 	0.062033 	4949 	0.061323
35.55 	0.059050 	4945 	0.057746
35.57 	0.060207 	4933 	0.059019
35.59 	0.060465 	4945 	0.058925
35.61 	0.058276 	4942 	0.056972
35.63 	0.051993 	4943 	0.051163
35.65 	0.055207 	4945 	0.054003
35.67 	0.057669 	4942 	0.056464
35.69 	0.065912 	4946 	0.064846
35.71 	0.060766 	4937 	0.060172
35.73 	0.058144 	4936 	0.056601
35.75 	0.059623 	4931 	0.058554
35.77 	0.053323 	4951 	0.052731
35.79 	0.060219 	4932 	0.059150
35.81 	0.055544 	4933 	0.054357
35.83 	0.057016 	4946 	0.055950
35.85 	0.052685 	4935 	0.051854
35.87 	0.050985 	4923 	0.050033
35.89 	0.055128 	4934 	0.054277
35.91 	0.058250 	4927 	0.057894
35.93 	0.051147 	4927 	0.050295
35.95 	0.054912 	4917 	0.053939
35.97 	0.058021 	4912 	0.056590
35.99 	0.056489 	4939 	0.055778
36.01 	0.056187 	4930 	0.055474
36.03 	0.051386 	4943 	0.050418
36.05 	0.059252 	4945 	0.058423
36.07 	0.057704 	4939 	0.056992
36.09 	0.055668 	4940 	0.054482
36.11 	0.056807 	4929 	0.055737
36.13 	0.061716 	4942 	0.060649
36.15 	0.056287 	4939 	0.055812
36.17 	0.054213 	4925 	0.053242
36.19 	0.052024 	4940 	0.050957
36.21 	0.057415 	4929 	0.056821
36.23 	0.060182 	4935 	0.059470
36.25 	0.055859 	4941 	0.054654
36.27 	0.059086 	4925 	0.057302
36.29 	0.056784 	4931 	0.055477
36.31 	0.053369 	4928 	0.052774
36.33 	0.052098 	4933 	0.051623
36.35 	0.050923 	4929 	0.050448
36.37 	0.055860 	4923 	0.055265
36.39 	0.053241 	4921 	0.052289
36.41 	0.064951 	4896 	0.063635
36.43 	0.057224 	4928 	0.056273
36.45 	0.056187 	4930 	0.055236
36.47 	0.049838 	4936 	0.048632
36.49 	0.058478 	4942 	0.057748
36.51 	0.058382 	4933 	0.057907
36.53 	0.059478 	4943 	0.059123
36.55 	0.051756 	4927 	0.051161
36.57 	0.063437 	4934 	0.062131
36.59 	0.059526 	4939 	0.057866
36.61 	0.049280 	4931 	0.048567
36.63 	0.052119 	4931 	0.051763
36.65 	0.053528 	4932 	0.053053
36.67 	0.051927 	4930 	0.051333
36.69 	0.053561 	4929 	0.052729
36.71 	0.050803 	4921 	0.050327
36.73 	0.054213 	4925 	0.053024
36.75 	0.051780 	4944 	0.051424
36.77 	0.052653 	4919 	0.051938
36.79 	0.055273 	4921 	0.054202
36.81 	0.056753 	4916 	0.055900
36.83 	0.060020 	4915 	0.058709
36.85 	0.054104 	4898 	0.053267
36.87 	0.055421 	4944 	0.054710
36.89 	0.052482 	4916 	0.051866
36.91 	0.051407 	4941 	0.050695
36.93 	0.050101 	4930 	0.049507
36.95 	0.062031 	4933 	0.060369
36.97 	0.053709 	4934 	0.053353
36.99 	0.065856 	4935 	0.064788
37.01 	0.056558 	4933 	0.056083
37.03 	0.061942 	4924 	0.060237
37.05 	0.050335 	4927 	0.049503
37.07 	0.054914 	4935 	0.054439
37.09 	0.053977 	4928 	0.053126
37.11 	0.050253 	4935 	0.050016
37.13 	0.053006 	4924 	0.052530
37.15 	0.053168 	4909 	0.052452
37.17 	0.059384 	4934 	0.058553
37.19 	0.056041 	4925 	0.055327
37.21 	0.053488 	4917 	0.052535
37.23 	0.056934 	4918 	0.056100
37.25 	0.051924 	4911 	0.050970
37.27 	0.053535 	4894 	0.052936
37.29 	0.052738 	4930 	0.052263
37.31 	0.052685 	4935 	0.052329
37.33 	0.057033 	4927 	0.055606
37.35 	0.050425 	4938 	0.049595
37.37 	0.058047 	4927 	0.057096
37.39 	0.046846 	4931 	0.046134
37.41 	0.056986 	4931 	0.056016
37.43 	0.049676 	4932 	0.048607
37.45 	0.046507 	4924 	0.045793
37.47 	0.051126 	4929 	0.050888
37.49 	0.053423 	4923 	0.052233
37.51 	0.055747 	4933 	0.054678
37.53 	0.054483 	4919 	0.054006
37.55 	0.052535 	4930 	0.051803
37.57 	0.055025 	4925 	0.054787
37.59 	0.052289 	4915 	0.051335
37.61 	0.059732 	4922 	0.058542
37.63 	0.050620 	4919 	0.049906
37.65 	0.050020 	4918 	0.049067
37.67 	0.053426 	4904 	0.052092
37.69 	0.052266 	4898 	0.051190
37.71 	0.057618 	4929 	0.056549
37.73 	0.051329 	4929 	0.050616
37.75 	0.053441 	4940 	0.052710
37.77 	0.050813 	4920 	0.050099
37.79 	0.050710 	4930 	0.049878
37.81 	0.054125 	4933 	0.052938
37.83 	0.058943 	4920 	0.057752
37.85 	0.057903 	4922 	0.057427
37.87 	0.051022 	4939 	0.050904
37.89 	0.052995 	4925 	0.051786
37.91 	0.055172 	4930 	0.054341
37.93 	0.050620 	4919 	0.049786
37.95 	0.053851 	4921 	0.053256
37.97 	0.051938 	4929 	0.051581
37.99 	0.052321 	4912 	0.051347
38.01 	0.050731 	4928 	0.050136
38.03 	0.052149 	4909 	0.051552
38.05 	0.054213 	4925 	0.053737
38.07 	0.057853 	4909 	0.057018
38.09 	0.055146 	4878 	0.053805
38.11 	0.048835 	4935 	0.048123
38.13 	0.056107 	4937 	0.055039
38.15 	0.055510 	4918 	0.054319
38.17 	0.052941 	4930 	0.051733
38.19 	0.053753 	4930 	0.053277
38.21 	0.047735 	4923 	0.047121
38.23 	0.054881 	4938 	0.054050
38.25 	0.053081 	4917 	0.052108
38.27 	0.056592 	4930 	0.055642
38.29 	0.061332 	4924 	0.060737
38.31 	0.065963 	4927 	0.064417
38.33 	0.057271 	4924 	0.055486
38.35 	0.062500 	4928 	0.061311
38.37 	0.055849 	4924 	0.054778
38.39 	0.051945 	4909 	0.051587
38.41 	0.057892 	4923 	0.056940
38.43 	0.057567 	4916 	0.056018
38.45 	0.057747 	4918 	0.056437
38.47 	0.060933 	4907 	0.060336
38.49 	0.057412 	4877 	0.056211
38.51 	0.063869 	4932 	0.062562
38.53 	0.069182 	4929 	0.067994
38.55 	0.066248 	4936 	0.065061
38.57 	0.063376 	4923 	0.061215
38.59 	0.064175 	4924 	0.062986
38.61 	0.054700 	4936 	0.053375
38.63 	0.060317 	4924 	0.059722
38.65 	0.054697 	4918 	0.053982
38.67 	0.063196 	4937 	0.061654
38.69 	0.056887 	4922 	0.055559
38.71 	0.053818 	4924 	0.052747
38.73 	0.054494 	4918 	0.053779
38.75 	0.055409 	4927 	0.053744
38.77 	0.050985 	4923 	0.050390
38.79 	0.049453 	4934 	0.048721
38.81 	0.052117 	4912 	0.051521
38.83 	0.048587 	4919 	0.047515
38.85 	0.049064 	4912 	0.048348
38.87 	0.050703 	4911 	0.049987
38.89 	0.055953 	4897 	0.055355
38.91 	0.046910 	4903 	0.046193
38.93 	0.050830 	4938 	0.050119
38.95 	0.049410 	4918 	0.048219
38.97 	0.052119 	4931 	0.051525
38.99 	0.046790 	4937 	0.046315
39.01 	0.048394 	4918 	0.047302
39.03 	0.051682 	4934 	0.051207
39.05 	0.050355 	4925 	0.049761
39.07 	0.047725 	4924 	0.047131
39.09 	0.047329 	4923 	0.046853
39.11 	0.051105 	4931 	0.050392
39.13 	0.048141 	4923 	0.047189
39.15 	0.046999 	4915 	0.046880
39.17 	0.049423 	4937 	0.048711
39.19 	0.046166 	4917 	0.045571
39.21 	0.046843 	4910 	0.046366
39.23 	0.044467 	4925 	0.043515
39.25 	0.048557 	4922 	0.047605
39.27 	0.047454 	4910 	0.046500
39.29 	0.048970 	4901 	0.048252
39.31 	0.048935 	4884 	0.047616
39.33 	0.051105 	4931 	0.050630
39.35 	0.045593 	4935 	0.044999
39.37 	0.046257 	4929 	0.045781
39.39 	0.047677 	4929 	0.046726
39.41 	0.043399 	4931 	0.042924
39.43 	0.045611 	4933 	0.044780
39.45 	0.050355 	4925 	0.049761
39.47 	0.042860 	4923 	0.042503
39.49 	0.043381 	4933 	0.042669
39.51 	0.046101 	4924 	0.045744
39.53 	0.048141 	4923 	0.047427
39.55 	0.043911 	4919 	0.042721
39.57 	0.046219 	4933 	0.045032
39.59 	0.043974 	4912 	0.043735
39.61 	0.047126 	4923 	0.046650
39.63 	0.044900 	4922 	0.043810
39.65 	0.048518 	4926 	0.047448
39.67 	0.044779 	4913 	0.044183
39.69 	0.050244 	4916 	0.049767
39.71 	0.055975 	4895 	0.055377
39.73 	0.047066 	4908 	0.046589
39.75 	0.049716 	4928 	0.048646
39.77 	0.050253 	4935 	0.049640
39.79 	0.050345 	4926 	0.049751
39.81 	0.046479 	4927 	0.045884
39.83 	0.045399 	4934 	0.044687
39.85 	0.049726 	4927 	0.049013
39.87 	0.046904 	4925 	0.046547
39.89 	0.045602 	4934 	0.045127
39.91 	0.052011 	4922 	0.050702
39.93 	0.052866 	4937 	0.052154
39.95 	0.046185 	4915 	0.045112
39.97 	0.043831 	4928 	0.043237
39.99 	0.052920 	4932 	0.051970
40.01 	0.054697 	4918 	0.053029
40.03 	0.050325 	4928 	0.049730
40.05 	0.051454 	4917 	0.051216
40.07 	0.044891 	4923 	0.044296
40.09 	0.049837 	4916 	0.049241
40.11 	0.045159 	4916 	0.044682
40.13 	0.050654 	4896 	0.049936
40.15 	0.046000 	4913 	0.045285
40.17 	0.050325 	4928 	0.049374
40.19 	0.039968 	4929 	0.039373
40.21 	0.045187 	4935 	0.043981
40.23 	0.044809 	4932 	0.044453
40.25 	0.051220 	4920 	0.050267
40.27 	0.049423 	4937 	0.048454
40.29 	0.047493 	4927 	0.046661
40.31 	0.044543 	4939 	0.044188
40.33 	0.038118 	4932 	0.037525
40.35 	0.045334 	4919 	0.044858
40.37 	0.042808 	4929 	0.042214
40.39 	0.042791 	4931 	0.042434
40.41 	0.046701 	4925 	0.046106
40.43 	0.047135 	4922 	0.046302
40.45 	0.043179 	4933 	0.042585
40.47 	0.041887 	4918 	0.041530
40.49 	0.048721 	4926 	0.048126
40.51 	0.048761 	4922 	0.048047
40.53 	0.045362 	4916 	0.045005
40.55 	0.043195 	4908 	0.042817
40.57 	0.042331 	4890 	0.041852
40.59 	0.040308 	4937 	0.039952
40.61 	0.040932 	4935 	0.040576
40.63 	0.045436 	4930 	0.044842
40.65 	0.042941 	4937 	0.042466
40.67 	0.039943 	4932 	0.039468
40.69 	0.043549 	4937 	0.043430
40.71 	0.050892 	4932 	0.050417
40.73 	0.048112 	4926 	0.047399
40.75 	0.042791 	4931 	0.042197
40.77 	0.048593 	4939 	0.048000
40.79 	0.047929 	4924 	0.047096
40.81 	0.044728 	4941 	0.043760
40.83 	0.049513 	4928 	0.048919
40.85 	0.045491 	4924 	0.045016
40.87 	0.045860 	4928 	0.044791
40.89 	0.045630 	4931 	0.044798
40.91 	0.044688 	4923 	0.043736
40.93 	0.044386 	4934 	0.043317
40.95 	0.041930 	4913 	0.041214
40.97 	0.042851 	4924 	0.042494
40.99 	0.042242 	4924 	0.041528
41.01 	0.044788 	4912 	0.043715
41.03 	0.042202 	4905 	0.041605
41.05 	0.044773 	4936 	0.044417
41.07 	0.040162 	4930 	0.039806
41.09 	0.042519 	4939 	0.042044
41.11 	0.046809 	4935 	0.046334
41.13 	0.048420 	4936 	0.047470
41.15 	0.047561 	4941 	0.046731
41.17 	0.041751 	4934 	0.041257
41.19 	0.048073 	4930 	0.047479
41.21 	0.039093 	4937 	0.038855
41.23 	0.050820 	4939 	0.050346
41.25 	0.042368 	4933 	0.041636
41.27 	0.046644 	4931 	0.045931
41.29 	0.040787 	4928 	0.040431
41.31 	0.038922 	4933 	0.038803
41.33 	0.044967 	4937 	0.044611
41.35 	0.043945 	4938 	0.043233
41.37 	0.041836 	4924 	0.041122
41.39 	0.042165 	4933 	0.041928
41.41 	0.040804 	4926 	0.039971
41.43 	0.045242 	4929 	0.044767
41.45 	0.046805 	4914 	0.046070
41.47 	0.047097 	4926 	0.045908
41.49 	0.046811 	4892 	0.045494
41.51 	0.044939 	4940 	0.044228
41.53 	0.038633 	4944 	0.038277
41.55 	0.043972 	4935 	0.043359
41.57 	0.040073 	4941 	0.039599
41.59 	0.040949 	4933 	0.040355
41.61 	0.041995 	4953 	0.041640
41.63 	0.040907 	4938 	0.040907
41.65 	0.041996 	4929 	0.041739
41.67 	0.039474 	4940 	0.038881
41.69 	0.047301 	4947 	0.047065
41.71 	0.041954 	4934 	0.041459
41.73 	0.049635 	4936 	0.048449
41.75 	0.045242 	4929 	0.044886
41.77 	0.047156 	4941 	0.046801
41.79 	0.038633 	4944 	0.038514
41.81 	0.048825 	4936 	0.047994
41.83 	0.045657 	4928 	0.045182
41.85 	0.041506 	4939 	0.041151
41.87 	0.038703 	4935 	0.037991
41.89 	0.042368 	4933 	0.041517
41.91 	0.047002 	4936 	0.046408
41.93 	0.045823 	4932 	0.045467
41.95 	0.037721 	4931 	0.037602
41.97 	0.039479 	4914 	0.038764
41.99 	0.041182 	4905 	0.040705
42.01 	0.043909 	4942 	0.043435
42.03 	0.040696 	4939 	0.039866
42.05 	0.040792 	4952 	0.039826
42.07 	0.043751 	4937 	0.043395
42.09 	0.037995 	4948 	0.037640
42.11 	0.038827 	4945 	0.038116
42.13 	0.040647 	4945 	0.039443
42.15 	0.037465 	4938 	0.036871
42.17 	0.039447 	4918 	0.039209
42.19 	0.045232 	4908 	0.044516
42.21 	0.041216 	4901 	0.040618
42.23 	0.038021 	4892 	0.037542
42.25 	0.046431 	4889 	0.045832
42.27 	0.038572 	4874 	0.038091
42.29 	0.041538 	4863 	0.041056
42.31 	0.038929 	4855 	0.038688
42.33 	0.043649 	4834 	0.043286
42.35 	0.042580 	4838 	0.041853
42.37 	0.039337 	4830 	0.038731
42.39 	0.044130 	4804 	0.043642
42.41 	0.036220 	4804 	0.035976
42.43 	0.039649 	4792 	0.039527
42.45 	0.039573 	4776 	0.039450
42.47 	0.035887 	4765 	0.035272
42.49 	0.042183 	4765 	0.041691
42.51 	0.041746 	4743 	0.041252
42.53 	0.046531 	4728 	0.045540
42.55 	0.039720 	4708 	0.039346
42.57 	0.040169 	4730 	0.039406
42.59 	0.040389 	4729 	0.040265
42.61 	0.038870 	4708 	0.038870
42.63 	0.040985 	4709 	0.040737
42.65 	0.044824 	4685 	0.044449
42.67 	0.045047 	4684 	0.044547
42.69 	0.044929 	4674 	0.044052
42.71 	0.041604 	4663 	0.041081
42.73 	0.037500 	4640 	0.037121
42.75 	0.045267 	4617 	0.044887
42.77 	0.043043 	4600 	0.042661
42.79 	0.036229 	4582 	0.035824
42.81 	0.038580 	4562 	0.038045
42.83 	0.037698 	4536 	0.036794
42.85 	0.039532 	4528 	0.039273
42.87 	0.040898 	4499 	0.040377
42.89 	0.040402 	4480 	0.039879
42.91 	0.040619 	4456 	0.040356
42.93 	0.039586 	4446 	0.039454
42.95 	0.043252 	4416 	0.042721
42.97 	0.040218 	4401 	0.039686
42.99 	0.044698 	4385 	0.044297
43.01 	0.044465 	4363 	0.044062
43.03 	0.042234 	4333 	0.041423
43.05 	0.040694 	4325 	0.040558
43.07 	0.036546 	4296 	0.036273
43.09 	0.037824 	4283 	0.037277
43.11 	0.042538 	4255 	0.042401
43.13 	0.034930 	4237 	0.034516
43.15 	0.039705 	4206 	0.039566
43.17 	0.034697 	4179 	0.034557
43.19 	0.044588 	4194 	0.043889
43.21 	0.037872 	4172 	0.037591
43.23 	0.038517 	4154 	0.038094
43.25 	0.042322 	4135 	0.041897
43.27 	0.046772 	4105 	0.045773
43.29 	0.039512 	4100 	0.039226
43.31 	0.043638 	4079 	0.042776
43.33 	0.042706 	4051 	0.042272
43.35 	0.037946 	4032 	0.037365
43.37 	0.033126 	4015 	0.032980
43.39 	0.040980 	4002 	0.040394
43.41 	0.040030 	3972 	0.039735
43.43 	0.040909 	3960 	0.040613
43.45 	0.044981 	3935 	0.044534
43.47 	0.046162 	3921 	0.045863
43.49 	0.039774 	3897 	0.039474
43.51 	0.040495 	3877 	0.040042
43.53 	0.042454 	3863 	0.042151
43.55 	0.046221 	2964 	0.046024
43.57 	0.051832 	2238 	0.051570
43.59 	0.040664 	1746 	0.040329
43.61 	0.034789 	1351 	0.034789
43.63 	0.046953 	1001 	0.046953
43.65 	0.036390 	687 	0.036390
43.67 	0.037849 	502 	0.037849
43.69 	0.043597 	367 	0.042001
43.71 	0.020921 	239 	0.020921
43.73 	0.050000 	120 	0.050000
43.75 	0.000000 	16 	0.000000