File: Example_Data/25SC_s1_0009.004.dat
#F C:\frames\spec\25SC_s1_0009.004
#C title =s:9 frm:4 25SC_s1
#C wavelength =0.15406

#S 1  fr_average C:\frames\spec\25SC_s1_0009.004 C:\win32app\speccom\mask.axs chi 0 180 0 360 0.02
#C 2 theta =0.000000 to 180 deg
#C   q   =0.000000 to 81.568 nm^-1
#C  chi  =0.000000 to 360 deg
#C collumns:
#C  1 position (2theta or chi in degrees)
#C  2 average intensity (sum of all counts in the region divided with number of pixels)
#C  3 Number of pixels in region)
#C  4 error (sum of sqrt(intensity) for all pixels divided by number)
#N 4
#L TTh  Int  N_pix  Err
32.99 	0.098361 	61 	0.098361
33.01 	0.056128 	873 	0.055457
33.03 	0.049605 	1391 	0.048341
33.05 	0.055208 	1757 	0.054541
33.07 	0.053171 	2050 	0.052313
33.09 	0.058372 	2347 	0.057624
33.11 	0.048081 	2579 	0.047399
33.13 	0.062299 	2793 	0.061250
33.15 	0.057019 	2999 	0.055847
33.17 	0.058419 	3201 	0.056742
33.19 	0.057151 	3342 	0.056450
33.21 	0.056170 	3436 	0.056170
33.23 	0.065853 	3523 	0.064523
33.25 	0.060908 	3612 	0.059935
33.27 	0.052617 	3630 	0.051972
33.29 	0.058388 	3648 	0.057906
33.31 	0.062842 	3660 	0.062041
33.33 	0.054531 	3686 	0.053895
33.35 	0.060368 	3694 	0.059417
33.37 	0.056812 	3714 	0.055708
33.39 	0.060070 	3729 	0.059441
33.41 	0.057487 	3740 	0.056390
33.43 	0.056102 	3761 	0.054830
33.45 	0.056719 	3773 	0.055943
33.47 	0.059505 	3798 	0.058580
33.49 	0.066422 	3809 	0.064730
33.51 	0.055832 	3815 	0.055372
33.53 	0.061442 	3841 	0.060222
33.55 	0.060630 	3843 	0.059868
33.57 	0.068868 	3877 	0.068112
33.59 	0.053093 	3880 	0.052489
33.61 	0.059606 	3909 	0.058857
33.63 	0.058433 	3919 	0.057686
33.65 	0.060799 	3931 	0.059433
33.67 	0.063227 	3954 	0.062190
33.69 	0.056666 	3953 	0.056221
33.71 	0.056101 	3975 	0.054897
33.73 	0.058192 	4004 	0.056997
33.75 	0.067517 	3999 	0.066345
33.77 	0.062112 	4025 	0.061384
33.79 	0.065083 	4041 	0.063923
33.81 	0.064636 	4038 	0.063185
33.83 	0.050864 	4050 	0.050141
33.85 	0.057819 	4099 	0.056533
33.87 	0.060326 	4111 	0.059329
33.89 	0.057510 	4121 	0.056657
33.91 	0.060497 	4149 	0.059649
33.93 	0.059986 	4151 	0.058292
33.95 	0.059077 	4181 	0.057956
33.97 	0.059666 	4190 	0.059386
33.99 	0.064524 	4200 	0.062688
34.01 	0.064325 	4213 	0.063073
34.03 	0.055372 	4244 	0.054682
34.05 	0.059972 	4252 	0.057745
34.07 	0.061387 	4268 	0.060564
34.09 	0.056930 	4286 	0.055836
34.11 	0.072060 	4302 	0.070426
34.13 	0.057567 	4308 	0.056480
34.15 	0.056107 	4331 	0.055431
34.17 	0.055402 	4350 	0.054729
34.19 	0.057084 	4362 	0.056144
34.21 	0.057195 	4371 	0.056391
34.23 	0.058047 	4393 	0.056692
34.25 	0.064941 	4404 	0.064010
34.27 	0.063320 	4422 	0.062260
34.29 	0.063360 	4435 	0.062435
34.31 	0.062360 	4458 	0.061309
34.33 	0.065086 	4471 	0.062990
34.35 	0.056423 	4484 	0.055378
34.37 	0.052995 	4491 	0.052473
34.39 	0.058641 	4502 	0.057990
34.41 	0.060097 	4526 	0.058932
34.43 	0.066314 	4539 	0.065024
34.45 	0.054245 	4535 	0.053599
34.47 	0.058145 	4592 	0.056997
34.49 	0.062214 	4597 	0.061068
34.51 	0.060139 	4606 	0.058740
34.53 	0.063537 	4643 	0.063032
34.55 	0.057075 	4643 	0.056571
34.57 	0.058798 	4660 	0.057793
34.59 	0.059679 	4675 	0.058802
34.61 	0.062806 	4697 	0.061164
34.63 	0.060085 	4710 	0.058966
34.65 	0.058462 	4721 	0.057221
34.67 	0.064121 	4741 	0.063009
34.69 	0.063105 	4754 	0.062119
34.71 	0.064834 	4766 	0.063974
34.73 	0.058701 	4787 	0.056987
34.75 	0.061772 	4808 	0.060534
34.77 	0.063304 	4818 	0.062453
34.79 	0.055348 	4824 	0.054984
34.81 	0.061094 	4845 	0.060127
34.83 	0.064171 	4862 	0.062966
34.85 	0.056069 	4869 	0.054866
34.87 	0.060189 	4868 	0.059086
34.89 	0.062679 	4882 	0.061599
34.91 	0.058378 	4882 	0.058018
34.93 	0.062666 	4899 	0.061829
34.95 	0.052965 	4890 	0.052486
34.97 	0.065279 	4902 	0.063826
34.99 	0.058812 	4897 	0.057496
35.01 	0.059313 	4923 	0.058362
35.03 	0.061501 	4943 	0.060435
35.05 	0.066909 	4947 	0.065962
35.07 	0.061538 	4940 	0.060570
35.09 	0.059358 	4953 	0.058648
35.11 	0.061047 	4947 	0.059863
35.13 	0.057886 	4958 	0.056941
35.15 	0.060563 	4937 	0.059970
35.17 	0.063688 	4946 	0.062385
35.19 	0.062525 	4942 	0.061340
35.21 	0.062892 	4945 	0.061707
35.23 	0.063498 	4945 	0.061347
35.25 	0.058264 	4943 	0.057415
35.27 	0.064066 	4948 	0.063238
35.29 	0.063701 	4945 	0.062516
35.31 	0.055950 	4933 	0.055356
35.33 	0.061097 	4943 	0.059793
35.35 	0.061514 	4942 	0.061158
35.37 	0.057502 	4939 	0.056553
35.39 	0.058443 	4945 	0.057377
35.41 	0.058668 	4926 	0.057836
35.43 	0.059396 	4933 	0.058208
35.45 	0.060158 	4937 	0.058734
35.47 	0.060231 	4931 	0.059518
35.49 	0.054786 	4910 	0.054190
35.51 	0.059480 	4926 	0.058886
35.53 	0.065266 	4949 	0.063845
35.55 	0.064510 	4945 	0.064036
35.57 	0.061626 	4933 	0.060557
35.59 	0.073003 	4945 	0.071226
35.61 	0.066572 	4942 	0.065505
35.63 	0.060692 	4943 	0.059013
35.65 	0.066127 	4945 	0.065298
35.67 	0.057467 	4942 	0.056518
35.69 	0.051759 	4946 	0.051285
35.71 	0.065627 	4937 	0.064084
35.73 	0.059360 	4936 	0.058410
35.75 	0.061245 	4931 	0.060295
35.77 	0.056958 	4951 	0.056012
35.79 	0.067721 	4932 	0.066415
35.81 	0.066086 	4933 	0.065373
35.83 	0.056005 	4946 	0.055176
35.85 	0.059777 	4935 	0.058590
35.87 	0.061548 	4923 	0.060100
35.89 	0.060600 	4934 	0.059175
35.91 	0.052162 	4927 	0.051448
35.93 	0.061092 	4927 	0.059546
35.95 	0.066097 	4917 	0.064291
35.97 	0.062296 	4912 	0.061342
35.99 	0.065600 	4939 	0.064533
36.01 	0.056998 	4930 	0.056047
36.03 	0.061703 	4943 	0.060736
36.05 	0.066127 	4945 	0.064114
36.07 	0.054667 	4939 	0.053362
36.09 	0.065385 	4940 	0.064080
36.11 	0.058227 	4929 	0.056682
36.13 	0.069000 	4942 	0.067341
36.15 	0.058311 	4939 	0.057837
36.17 	0.063553 	4925 	0.062483
36.19 	0.059514 	4940 	0.058566
36.21 	0.063096 	4929 	0.062145
36.23 	0.060385 	4935 	0.059554
36.25 	0.057478 	4941 	0.056174
36.27 	0.066802 	4925 	0.065732
36.29 	0.059217 	4931 	0.058366
36.31 	0.066356 	4928 	0.064691
36.33 	0.066694 	4933 	0.065150
36.35 	0.052749 	4929 	0.051541
36.37 	0.065814 	4923 	0.065100
36.39 	0.057712 	4921 	0.056760
36.41 	0.060662 	4896 	0.060064
36.43 	0.068791 	4928 	0.067126
36.45 	0.064300 	4930 	0.063231
36.47 	0.059765 	4936 	0.058578
36.49 	0.059490 	4942 	0.058404
36.51 	0.058788 	4933 	0.057937
36.53 	0.053611 	4943 	0.052663
36.55 	0.064948 	4927 	0.063878
36.57 	0.059992 	4934 	0.058686
36.59 	0.058716 	4939 	0.057649
36.61 	0.065707 	4931 	0.064638
36.63 	0.050497 	4931 	0.049665
36.65 	0.050487 	4932 	0.049655
36.67 	0.058012 	4930 	0.056943
36.69 	0.053966 	4929 	0.053253
36.71 	0.049177 	4921 	0.048463
36.73 	0.057868 	4925 	0.056798
36.75 	0.056028 	4944 	0.055317
36.77 	0.060581 	4919 	0.059867
36.79 	0.064621 	4921 	0.063193
36.81 	0.054516 	4916 	0.053086
36.83 	0.055544 	4915 	0.054829
36.85 	0.059820 	4898 	0.059222
36.87 	0.058455 	4944 	0.058336
36.89 	0.052889 	4916 	0.051935
36.91 	0.063752 	4941 	0.062804
36.93 	0.061258 	4930 	0.059793
36.95 	0.057774 	4933 	0.057062
36.97 	0.054722 	4934 	0.054366
36.99 	0.049240 	4935 	0.048884
37.01 	0.058788 	4933 	0.058194
37.03 	0.056052 	4924 	0.054862
37.05 	0.056018 	4927 	0.054809
37.07 	0.053293 	4935 	0.052581
37.09 	0.055195 	4928 	0.053293
37.11 	0.055724 	4935 	0.054993
37.13 	0.061332 	4924 	0.060024
37.15 	0.050519 	4909 	0.049784
37.17 	0.056749 	4934 	0.055918
37.19 	0.059492 	4925 	0.058303
37.21 	0.061013 	4917 	0.060060
37.23 	0.052460 	4918 	0.051746
37.25 	0.056404 	4911 	0.055330
37.27 	0.064160 	4894 	0.063063
37.29 	0.052130 	4930 	0.051298
37.31 	0.054914 	4935 	0.053945
37.33 	0.058453 	4927 	0.057621
37.35 	0.051033 	4938 	0.050084
37.37 	0.056018 	4927 	0.055305
37.39 	0.055567 	4931 	0.054498
37.41 	0.064896 	4931 	0.062995
37.43 	0.060219 	4932 	0.059269
37.45 	0.057880 	4924 	0.056690
37.47 	0.052952 	4929 	0.051982
37.49 	0.051188 	4923 	0.050712
37.51 	0.062639 	4933 	0.061432
37.53 	0.058142 	4919 	0.057308
37.55 	0.056592 	4930 	0.056117
37.57 	0.056244 	4925 	0.054916
37.59 	0.054730 	4915 	0.053161
37.61 	0.055059 	4922 	0.054226
37.63 	0.058142 	4919 	0.057546
37.65 	0.064457 	4918 	0.063028
37.67 	0.054445 	4904 	0.053012
37.69 	0.054104 	4898 	0.053506
37.71 	0.052546 	4929 	0.051595
37.73 	0.059444 	4929 	0.058731
37.75 	0.050607 	4940 	0.049659
37.77 	0.056504 	4920 	0.055790
37.79 	0.056998 	4930 	0.055810
37.81 	0.060612 	4933 	0.060137
37.83 	0.051626 	4920 	0.050793
37.85 	0.051605 	4922 	0.050653
37.87 	0.055679 	4939 	0.053743
37.89 	0.055228 	4925 	0.054614
37.91 	0.054361 	4930 	0.053529
37.93 	0.059565 	4919 	0.059208
37.95 	0.058525 	4921 	0.057572
37.97 	0.058835 	4929 	0.058241
37.99 	0.057410 	4912 	0.056576
38.01 	0.055195 	4928 	0.054125
38.03 	0.059279 	4909 	0.058563
38.05 	0.057868 	4925 	0.057035
38.07 	0.061927 	4909 	0.060972
38.09 	0.059246 	4878 	0.058285
38.11 	0.061601 	4935 	0.060889
38.13 	0.060766 	4937 	0.060172
38.15 	0.057340 	4918 	0.056507
38.17 	0.061055 	4930 	0.060223
38.19 	0.058012 	4930 	0.056468
38.21 	0.060735 	4923 	0.059545
38.23 	0.061968 	4938 	0.061019
38.25 	0.055522 	4917 	0.054569
38.27 	0.067546 	4930 	0.065605
38.29 	0.071487 	4924 	0.070178
38.31 	0.070022 	4927 	0.068596
38.33 	0.068034 	4924 	0.066250
38.35 	0.060268 	4928 	0.058723
38.37 	0.066816 	4924 	0.064912
38.39 	0.065798 	4909 	0.064724
38.41 	0.069267 	4923 	0.067839
38.43 	0.071806 	4916 	0.070714
38.45 	0.065270 	4918 	0.063603
38.47 	0.070715 	4907 	0.069283
38.49 	0.063154 	4877 	0.061952
38.51 	0.062044 	4932 	0.061331
38.53 	0.060864 	4929 	0.059795
38.55 	0.070300 	4936 	0.068638
38.57 	0.059313 	4923 	0.058243
38.59 	0.062957 	4924 	0.061886
38.61 	0.063817 	4936 	0.062986
38.63 	0.060317 	4924 	0.059841
38.65 	0.064050 	4918 	0.062621
38.67 	0.062994 	4937 	0.062045
38.69 	0.058919 	4922 	0.057590
38.71 	0.049553 	4924 	0.049196
38.73 	0.054290 	4918 	0.053933
38.75 	0.058250 	4927 	0.056943
38.77 	0.056470 	4923 	0.055875
38.79 	0.055128 	4934 	0.053940
38.81 	0.056800 	4912 	0.056203
38.83 	0.048994 	4919 	0.048279
38.85 	0.052117 	4912 	0.051402
38.87 	0.052535 	4911 	0.051939
38.89 	0.053094 	4897 	0.052735
38.91 	0.055068 	4903 	0.053874
38.93 	0.053463 	4938 	0.052494
38.95 	0.049817 	4918 	0.048983
38.97 	0.057595 	4931 	0.056407
38.99 	0.059348 	4937 	0.058636
39.01 	0.053477 	4918 	0.052762
39.03 	0.056546 	4934 	0.056190
39.05 	0.056650 	4925 	0.055222
39.07 	0.061738 	4924 	0.060549
39.09 	0.054235 	4923 	0.052926
39.11 	0.054350 	4931 	0.053875
39.13 	0.054641 	4923 	0.053571
39.15 	0.058393 	4915 	0.057678
39.17 	0.053474 	4937 	0.052643
39.19 	0.057962 	4917 	0.056771
39.21 	0.052546 	4910 	0.051830
39.23 	0.047716 	4925 	0.047121
39.25 	0.053637 	4922 	0.053042
39.27 	0.061303 	4910 	0.060230
39.29 	0.051622 	4901 	0.050666
39.31 	0.051392 	4884 	0.050193
39.33 	0.058203 	4931 	0.057728
39.35 	0.056130 	4935 	0.055279
39.37 	0.062487 	4929 	0.061061
39.39 	0.058024 	4929 	0.056835
39.41 	0.053133 	4931 	0.052420
39.43 	0.057977 	4933 	0.057502
39.45 	0.053807 	4925 	0.053331
39.47 	0.056673 	4923 	0.056078
39.49 	0.052909 	4933 	0.052671
39.51 	0.054833 	4924 	0.053882
39.53 	0.056470 	4923 	0.055756
39.55 	0.053669 	4919 	0.053193
39.57 	0.054328 	4933 	0.052784
39.59 	0.052728 	4912 	0.051774
39.61 	0.059110 	4923 	0.058158
39.63 	0.056481 	4922 	0.055767
39.65 	0.060292 	4926 	0.059341
39.67 	0.062487 	4913 	0.061295
39.69 	0.057974 	4916 	0.056782
39.71 	0.056588 	4895 	0.055511
39.73 	0.053178 	4908 	0.052462
39.75 	0.061080 	4928 	0.060010
39.77 	0.052888 	4935 	0.052057
39.79 	0.057653 	4926 	0.055988
39.81 	0.056018 	4927 	0.055423
39.83 	0.053709 	4934 	0.052403
39.85 	0.055409 	4927 	0.054577
39.87 	0.053401 	4925 	0.052687
39.89 	0.059587 	4934 	0.058637
39.91 	0.055262 	4922 	0.054290
39.93 	0.049018 	4937 	0.048424
39.95 	0.051679 	4915 	0.050725
39.97 	0.056615 	4928 	0.056021
39.99 	0.058597 	4932 	0.057647
40.01 	0.062017 	4918 	0.060687
40.03 	0.053774 	4928 	0.052942
40.05 	0.049014 	4917 	0.048299
40.07 	0.055454 	4923 	0.054621
40.09 	0.051058 	4916 	0.050581
40.11 	0.060415 	4916 	0.059581
40.13 	0.051266 	4896 	0.050309
40.15 	0.054142 	4913 	0.053546
40.17 	0.056818 	4928 	0.056224
40.19 	0.048489 	4929 	0.047657
40.21 	0.057953 	4935 	0.057360
40.23 	0.054745 	4932 	0.054032
40.25 	0.045935 	4920 	0.044625
40.27 	0.051043 	4937 	0.050094
40.29 	0.047696 	4927 	0.046607
40.31 	0.063373 	4939 	0.062424
40.33 	0.055758 	4932 	0.055046
40.35 	0.052246 	4919 	0.051770
40.37 	0.048894 	4929 	0.048062
40.39 	0.049888 	4931 	0.049294
40.41 	0.053604 	4925 	0.052653
40.43 	0.049980 	4922 	0.049028
40.45 	0.052504 	4933 	0.051435
40.47 	0.053680 	4918 	0.052847
40.49 	0.053796 	4926 	0.053321
40.51 	0.058310 	4922 	0.057715
40.53 	0.055330 	4916 	0.054972
40.55 	0.053382 	4908 	0.053024
40.57 	0.051329 	4890 	0.050251
40.59 	0.055702 	4937 	0.054753
40.61 	0.054711 	4935 	0.053287
40.63 	0.053144 	4930 	0.052550
40.65 	0.054081 	4937 	0.052776
40.67 	0.051095 	4932 	0.050026
40.69 	0.050030 	4937 	0.049674
40.71 	0.051500 	4932 	0.051025
40.73 	0.055420 	4926 	0.054231
40.75 	0.051511 	4931 	0.050679
40.77 	0.056692 	4939 	0.055861
40.79 	0.056052 	4924 	0.055219
40.81 	0.052621 	4941 	0.052265
40.83 	0.054586 	4928 	0.053635
40.85 	0.053006 	4924 	0.052054
40.87 	0.054180 	4928 	0.053110
40.89 	0.054756 	4931 	0.054162
40.91 	0.051391 	4923 	0.050440
40.93 	0.049655 	4934 	0.048706
40.95 	0.053735 	4913 	0.053139
40.97 	0.049553 	4924 	0.048364
40.99 	0.056052 	4924 	0.054862
41.01 	0.050896 	4912 	0.050538
41.03 	0.053007 	4905 	0.051693
41.05 	0.050648 	4936 	0.050055
41.07 	0.049899 	4930 	0.048829
41.09 	0.051225 	4939 	0.050138
41.11 	0.057751 	4935 	0.057039
41.13 	0.055713 	4936 	0.054764
41.15 	0.046549 	4941 	0.046194
41.17 	0.056344 	4934 	0.055631
41.19 	0.044828 	4930 	0.044115
41.21 	0.051246 	4937 	0.050296
41.23 	0.055274 	4939 	0.053713
41.25 	0.062031 	4933 	0.059894
41.27 	0.053133 	4931 	0.052064
41.29 	0.049716 	4928 	0.048983
41.31 	0.055139 	4933 	0.054051
41.33 	0.048207 	4937 	0.047377
41.35 	0.054678 	4938 	0.054322
41.37 	0.053412 	4924 	0.052579
41.39 	0.051490 	4933 	0.050421
41.41 	0.047909 	4926 	0.046938
41.43 	0.054575 	4929 	0.053505
41.45 	0.044974 	4914 	0.044258
41.47 	0.050345 	4926 	0.049493
41.49 	0.054988 	4892 	0.054389
41.51 	0.053846 	4940 	0.053135
41.53 	0.056837 	4944 	0.055889
41.55 	0.052685 	4935 	0.051379
41.57 	0.051407 	4941 	0.050320
41.59 	0.053720 	4933 	0.052651
41.61 	0.049667 	4953 	0.048602
41.63 	0.053463 	4938 	0.052158
41.65 	0.057010 	4929 	0.055821
41.67 	0.048988 	4940 	0.048395
41.69 	0.048919 	4947 	0.048208
41.71 	0.052088 	4934 	0.051731
41.73 	0.051661 	4936 	0.050831
41.75 	0.052343 	4929 	0.051393
41.77 	0.054442 	4941 	0.053237
41.79 	0.049150 	4944 	0.048203
41.81 	0.047407 	4936 	0.046813
41.83 	0.047484 	4928 	0.046889
41.85 	0.053250 	4939 	0.052064
41.87 	0.049443 	4935 	0.048374
41.89 	0.053517 	4933 	0.052923
41.91 	0.048015 	4936 	0.047659
41.93 	0.044404 	4932 	0.043909
41.95 	0.049483 	4931 	0.048889
41.97 	0.047619 	4914 	0.046785
41.99 	0.052396 	4905 	0.051798
42.01 	0.046540 	4942 	0.046066
42.03 	0.053250 	4939 	0.051826
42.05 	0.054725 	4952 	0.054252
42.07 	0.048815 	4937 	0.048222
42.09 	0.046686 	4948 	0.046567
42.11 	0.043680 	4945 	0.043562
42.13 	0.047725 	4945 	0.047488
42.15 	0.048603 	4938 	0.048365
42.17 	0.050630 	4918 	0.049558
42.19 	0.042584 	4908 	0.042225
42.21 	0.049378 	4901 	0.048302
42.23 	0.054579 	4892 	0.054100
42.25 	0.043772 	4889 	0.043053
42.27 	0.052113 	4874 	0.051272
42.29 	0.048118 	4863 	0.047516
42.31 	0.055201 	4855 	0.054356
42.33 	0.046132 	4834 	0.045889
42.35 	0.043613 	4838 	0.042887
42.37 	0.046584 	4830 	0.045977
42.39 	0.055371 	4804 	0.054273
42.41 	0.042673 	4804 	0.042185
42.43 	0.045492 	4792 	0.044881
42.45 	0.049204 	4776 	0.048591
42.47 	0.056034 	4765 	0.055542
42.49 	0.050997 	4765 	0.050628
42.51 	0.047227 	4743 	0.046466
42.53 	0.054780 	4728 	0.053789
42.55 	0.045030 	4708 	0.044532
42.57 	0.046089 	4730 	0.045470
42.59 	0.046099 	4729 	0.046099
42.61 	0.047791 	4708 	0.046920
42.63 	0.048418 	4709 	0.047547
42.65 	0.050160 	4685 	0.049160
42.67 	0.050811 	4684 	0.050311
42.69 	0.041720 	4674 	0.041094
42.71 	0.050611 	4663 	0.050109
42.73 	0.048060 	4640 	0.047156
42.75 	0.046350 	4617 	0.045082
42.77 	0.050000 	4600 	0.049236
42.79 	0.050415 	4582 	0.050031
42.81 	0.046690 	4562 	0.046048
42.83 	0.052690 	4536 	0.052044
42.85 	0.045716 	4528 	0.045327
42.87 	0.048455 	4499 	0.047804
42.89 	0.046875 	4480 	0.046352
42.91 	0.050045 	4456 	0.049256
42.93 	0.047683 	4446 	0.047156
42.95 	0.047328 	4416 	0.046797
42.97 	0.050443 	4401 	0.049644
42.99 	0.046750 	4385 	0.046216
43.01 	0.051112 	4363 	0.050575
43.03 	0.043388 	4333 	0.043118
43.05 	0.039075 	4325 	0.038669
43.07 	0.044693 	4296 	0.044147
43.09 	0.044828 	4283 	0.043734
43.11 	0.048649 	4255 	0.048236
43.13 	0.051924 	4237 	0.051924
43.15 	0.047551 	4206 	0.046715
43.17 	0.045705 	4179 	0.045004
43.19 	0.052694 	4194 	0.051856
43.21 	0.049856 	4172 	0.048452
43.23 	0.043091 	4154 	0.042809
43.25 	0.051511 	4135 	0.050661
43.27 	0.053350 	4105 	0.053207
43.29 	0.048293 	4100 	0.047150
43.31 	0.045599 	4079 	0.045456
43.33 	0.046408 	4051 	0.045396
43.35 	0.051835 	4032 	0.051399
43.37 	0.048319 	4015 	0.047298
43.39 	0.043228 	4002 	0.042497
43.41 	0.044814 	3972 	0.044076
43.43 	0.048232 	3960 	0.047641
43.45 	0.048030 	3935 	0.047435
43.47 	0.050242 	3921 	0.049645
43.49 	0.049525 	3897 	0.048774
43.51 	0.046428 	3877 	0.045823
43.53 	0.040642 	3863 	0.039884
43.55 	0.042173 	2964 	0.041580
43.57 	0.041108 	2238 	0.040846
43.59 	0.049255 	1746 	0.049255
43.61 	0.051813 	1351 	0.051380
43.63 	0.050949 	1001 	0.049779
43.65 	0.046579 	687 	0.046579
43.67 	0.043825 	502 	0.043825
43.69 	0.054496 	367 	0.054496
43.71 	0.058577 	239 	0.058577
43.73 	0.066667 	120 	0.066667
43.75 	0.062500 	16 	0.062500