File: Example_Data/25SC_s1_0005.000.dat
#F C:\frames\spec\25SC_s1_0005.000
#C title =s:5 frm:0 25SC_s1
#C wavelength =0.15406

#S 1  fr_average C:\frames\spec\25SC_s1_0005.000 C:\win32app\speccom\mask.axs chi 0 180 0 360 0.02
#C 2 theta =0.000000 to 180 deg
#C   q   =0.000000 to 81.568 nm^-1
#C  chi  =0.000000 to 360 deg
#C collumns:
#C  1 position (2theta or chi in degrees)
#C  2 average intensity (sum of all counts in the region divided with number of pixels)
#C  3 Number of pixels in region)
#C  4 error (sum of sqrt(intensity) for all pixels divided by number)
#N 4
#L TTh  Int  N_pix  Err
32.99 	0.049180 	61 	0.049180
33.01 	0.066438 	873 	0.065767
33.03 	0.060388 	1391 	0.059125
33.05 	0.052362 	1757 	0.051695
33.07 	0.065854 	2050 	0.064996
33.09 	0.057946 	2347 	0.057198
33.11 	0.060101 	2579 	0.058965
33.13 	0.059434 	2793 	0.057756
33.15 	0.062021 	2999 	0.060653
33.17 	0.063730 	3201 	0.062632
33.19 	0.049671 	3342 	0.048970
33.21 	0.050058 	3436 	0.049888
33.23 	0.063866 	3523 	0.062203
33.25 	0.061462 	3612 	0.060002
33.27 	0.063085 	3630 	0.061929
33.29 	0.061129 	3648 	0.060166
33.31 	0.065574 	3660 	0.063973
33.33 	0.064840 	3686 	0.063569
33.35 	0.061722 	3694 	0.059819
33.37 	0.066236 	3714 	0.065605
33.39 	0.060606 	3729 	0.060292
33.41 	0.064171 	3740 	0.063075
33.43 	0.067801 	3761 	0.065932
33.45 	0.057514 	3773 	0.056582
33.47 	0.059242 	3798 	0.058137
33.49 	0.061433 	3809 	0.061126
33.51 	0.061075 	3815 	0.060153
33.53 	0.056496 	3841 	0.055123
33.55 	0.069217 	3843 	0.067540
33.57 	0.065257 	3877 	0.064350
33.59 	0.056186 	3880 	0.055431
33.61 	0.055257 	3909 	0.053884
33.63 	0.067364 	3919 	0.066318
33.65 	0.057746 	3931 	0.056256
33.67 	0.066768 	3954 	0.065286
33.69 	0.067544 	3953 	0.066062
33.71 	0.058868 	3975 	0.058426
33.73 	0.062438 	4004 	0.061097
33.75 	0.066017 	3999 	0.063966
33.77 	0.055901 	4025 	0.055464
33.79 	0.055184 	4041 	0.054894
33.81 	0.065379 	4038 	0.064654
33.83 	0.052099 	4050 	0.051665
33.85 	0.058795 	4099 	0.057366
33.87 	0.055704 	4111 	0.054992
33.89 	0.061393 	4121 	0.060540
33.91 	0.057604 	4149 	0.056616
33.93 	0.064081 	4151 	0.062811
33.95 	0.058120 	4181 	0.056836
33.97 	0.056086 	4190 	0.055107
33.99 	0.065476 	4200 	0.064059
34.01 	0.056729 	4213 	0.055339
34.03 	0.064797 	4244 	0.063118
34.05 	0.058561 	4252 	0.058010
34.07 	0.055530 	4268 	0.054843
34.09 	0.055763 	4286 	0.055353
34.11 	0.052301 	4302 	0.051620
34.13 	0.056639 	4308 	0.055823
34.15 	0.056107 	4331 	0.055003
34.17 	0.057471 	4350 	0.056394
34.19 	0.060523 	4362 	0.059180
34.21 	0.061771 	4371 	0.060677
34.23 	0.057819 	4393 	0.057019
34.25 	0.058810 	4404 	0.057879
34.27 	0.056762 	4422 	0.056232
34.29 	0.056595 	4435 	0.055539
34.31 	0.056752 	4458 	0.055285
34.33 	0.059718 	4471 	0.059194
34.35 	0.055531 	4484 	0.054878
34.37 	0.054108 	4491 	0.053326
34.39 	0.059751 	4502 	0.058190
34.41 	0.060097 	4526 	0.059062
34.43 	0.059484 	4539 	0.058323
34.45 	0.061742 	4535 	0.060408
34.47 	0.056838 	4592 	0.056455
34.49 	0.060039 	4597 	0.059020
34.51 	0.052974 	4606 	0.051957
34.53 	0.062890 	4643 	0.061376
34.55 	0.052983 	4643 	0.052352
34.57 	0.058584 	4660 	0.056929
34.59 	0.060963 	4675 	0.060211
34.61 	0.054290 	4697 	0.053147
34.63 	0.059023 	4710 	0.058028
34.65 	0.052108 	4721 	0.051115
34.67 	0.056950 	4741 	0.055818
34.69 	0.059108 	4754 	0.057999
34.71 	0.059169 	4766 	0.058309
34.73 	0.063505 	4787 	0.062873
34.75 	0.055532 	4808 	0.054680
34.77 	0.058946 	4818 	0.057831
34.79 	0.060116 	4824 	0.059387
34.81 	0.057998 	4845 	0.056870
34.83 	0.063348 	4862 	0.062023
34.85 	0.057301 	4869 	0.056579
34.87 	0.061832 	4868 	0.060870
34.89 	0.057763 	4882 	0.056923
34.91 	0.052642 	4882 	0.051922
34.93 	0.058379 	4899 	0.057662
34.95 	0.055624 	4890 	0.055025
34.97 	0.061812 	4902 	0.061214
34.99 	0.059628 	4897 	0.058432
35.01 	0.056673 	4923 	0.055820
35.03 	0.056848 	4943 	0.055663
35.05 	0.057813 	4947 	0.056866
35.07 	0.057085 	4940 	0.056611
35.09 	0.060166 	4953 	0.059318
35.11 	0.063877 	4947 	0.062575
35.13 	0.057685 	4958 	0.056858
35.15 	0.064006 	4937 	0.063275
35.17 	0.057622 	4946 	0.056201
35.19 	0.057467 	4942 	0.056281
35.21 	0.058443 	4945 	0.057851
35.23 	0.056218 	4945 	0.055745
35.25 	0.064940 	4943 	0.063755
35.27 	0.059620 	4948 	0.058673
35.29 	0.058241 	4945 	0.057767
35.31 	0.063045 	4933 	0.061857
35.33 	0.063322 	4943 	0.062492
35.35 	0.053420 	4942 	0.052946
35.37 	0.057906 	4939 	0.056365
35.39 	0.063296 	4945 	0.062585
35.41 	0.060292 	4926 	0.058865
35.43 	0.057166 	4933 	0.056216
35.45 	0.056107 	4937 	0.054802
35.47 	0.059420 	4931 	0.058470
35.49 	0.057026 	4910 	0.055833
35.51 	0.055623 	4926 	0.054910
35.53 	0.063851 	4949 	0.063023
35.55 	0.057027 	4945 	0.055724
35.57 	0.061829 	4933 	0.060760
35.59 	0.056623 	4945 	0.055438
35.61 	0.057264 	4942 	0.056909
35.63 	0.061906 	4943 	0.060958
35.65 	0.055612 	4945 	0.054546
35.67 	0.060704 	4942 	0.059874
35.69 	0.054185 	4946 	0.053356
35.71 	0.062791 	4937 	0.061486
35.73 	0.064425 	4936 	0.063357
35.75 	0.063273 	4931 	0.062085
35.77 	0.058372 	4951 	0.057426
35.79 	0.054947 	4932 	0.053997
35.81 	0.057369 	4933 	0.056656
35.83 	0.062475 	4946 	0.060817
35.85 	0.061398 	4935 	0.060211
35.87 	0.059517 	4923 	0.058545
35.89 	0.058168 	4934 	0.057574
35.91 	0.053785 	4927 	0.052676
35.93 	0.064542 	4927 	0.063215
35.95 	0.061420 	4917 	0.060824
35.97 	0.058836 	4912 	0.057524
35.99 	0.054869 	4939 	0.053921
36.01 	0.064300 	4930 	0.063231
36.03 	0.059276 	4943 	0.058446
36.05 	0.060061 	4945 	0.058975
36.07 	0.064790 	4939 	0.063486
36.09 	0.064980 	4940 	0.064268
36.11 	0.062082 	4929 	0.061487
36.13 	0.061716 	4942 	0.060294
36.15 	0.059931 	4939 	0.058627
36.17 	0.062944 	4925 	0.062112
36.19 	0.056275 	4940 	0.055426
36.21 	0.066748 	4929 	0.065183
36.23 	0.057548 	4935 	0.056104
36.25 	0.063550 	4941 	0.062483
36.27 	0.066599 	4925 	0.065053
36.29 	0.058812 	4931 	0.057366
36.31 	0.055601 	4928 	0.054887
36.33 	0.067505 	4933 	0.065823
36.35 	0.066951 	4929 	0.066000
36.37 	0.068048 	4923 	0.066501
36.39 	0.058728 	4921 	0.056823
36.41 	0.061275 	4896 	0.060317
36.43 	0.069805 	4928 	0.068379
36.45 	0.063895 	4930 	0.062469
36.47 	0.068071 	4936 	0.066766
36.49 	0.063739 	4942 	0.063028
36.51 	0.059193 	4933 	0.057887
36.53 	0.064333 	4943 	0.062911
36.55 	0.067790 	4927 	0.066363
36.57 	0.057560 	4934 	0.057085
36.59 	0.066410 	4939 	0.065461
36.61 	0.069966 	4931 	0.067946
36.63 	0.065301 	4931 	0.063994
36.65 	0.056975 	4932 	0.056619
36.67 	0.056389 	4930 	0.056033
36.69 	0.064719 	4929 	0.063531
36.71 	0.061776 	4921 	0.060705
36.73 	0.059289 	4925 	0.058100
36.75 	0.056432 	4944 	0.055702
36.77 	0.059158 	4919 	0.058444
36.79 	0.056289 	4921 	0.055218
36.81 	0.061432 	4916 	0.060360
36.83 	0.064293 	4915 	0.063101
36.85 	0.068599 	4898 	0.067882
36.87 	0.058050 	4944 	0.056628
36.89 	0.062449 	4916 	0.060851
36.91 	0.059300 	4941 	0.058233
36.93 	0.055375 	4930 	0.054068
36.95 	0.061018 	4933 	0.060780
36.97 	0.058370 	4934 	0.057302
36.99 	0.059980 	4935 	0.058555
37.01 	0.065477 	4933 	0.064527
37.03 	0.064582 	4924 	0.063154
37.05 	0.061701 	4927 	0.060750
37.07 	0.058561 	4935 	0.057018
37.09 	0.063109 	4928 	0.062138
37.11 	0.054914 	4935 	0.053589
37.13 	0.058489 	4924 	0.056824
37.15 	0.061112 	4909 	0.059661
37.17 	0.057965 	4934 	0.057253
37.19 	0.067411 	4925 	0.066103
37.21 	0.057555 	4917 	0.056602
37.23 	0.068117 	4918 	0.066311
37.25 	0.064142 	4911 	0.063187
37.27 	0.063752 	4894 	0.062196
37.29 	0.067140 	4930 	0.066071
37.31 	0.057345 	4935 	0.056158
37.33 	0.067587 	4927 	0.066755
37.35 	0.060956 	4938 	0.059414
37.37 	0.053988 	4927 	0.052918
37.39 	0.066721 	4931 	0.065414
37.41 	0.059420 	4931 	0.058945
37.43 	0.059205 	4932 	0.058374
37.45 	0.059301 	4924 	0.057874
37.47 	0.061067 	4929 	0.059859
37.49 	0.056470 	4923 	0.055518
37.51 	0.058585 	4933 	0.058229
37.53 	0.056719 	4919 	0.055290
37.55 	0.060243 	4930 	0.058818
37.57 	0.052792 	4925 	0.051246
37.59 	0.057172 	4915 	0.055623
37.61 	0.060951 	4922 	0.059285
37.63 	0.056109 	4919 	0.055018
37.65 	0.056120 	4918 	0.054929
37.67 	0.050979 	4904 	0.050362
37.69 	0.064720 	4898 	0.063524
37.71 	0.060864 	4929 	0.059557
37.73 	0.060661 	4929 	0.058998
37.75 	0.054656 	4940 	0.054063
37.77 	0.057927 	4920 	0.056855
37.79 	0.059432 	4930 	0.058838
37.81 	0.056963 	4933 	0.056132
37.83 	0.056301 	4920 	0.055110
37.85 	0.052011 	4922 	0.051297
37.87 	0.060741 	4939 	0.059674
37.89 	0.061929 	4925 	0.060740
37.91 	0.058418 	4930 	0.057348
37.93 	0.060785 	4919 	0.060070
37.95 	0.062386 	4921 	0.061195
37.97 	0.059850 	4929 	0.058780
37.99 	0.054764 	4912 	0.053810
38.01 	0.056818 	4928 	0.055629
38.03 	0.056631 	4909 	0.056034
38.05 	0.060102 	4925 	0.058555
38.07 	0.058871 	4909 	0.058275
38.09 	0.056171 	4878 	0.055330
38.11 	0.055117 	4935 	0.054998
38.13 	0.052258 	4937 	0.051428
38.15 	0.056730 	4918 	0.055777
38.17 	0.058824 	4930 	0.058467
38.19 	0.054361 	4930 	0.053529
38.21 	0.061548 	4923 	0.059743
38.23 	0.055488 	4938 	0.054776
38.25 	0.058572 	4917 	0.057143
38.27 	0.061258 	4930 	0.060307
38.29 	0.063363 	4924 	0.062173
38.31 	0.065354 	4927 	0.064364
38.33 	0.066409 	4924 	0.064724
38.35 	0.064935 	4928 	0.063390
38.37 	0.075142 	4924 	0.074190
38.39 	0.071501 	4909 	0.069930
38.41 	0.069267 	4923 	0.067720
38.43 	0.073841 	4916 	0.071914
38.45 	0.081131 	4918 	0.078867
38.47 	0.077644 	4907 	0.076570
38.49 	0.086119 	4877 	0.083116
38.51 	0.075831 	4932 	0.073654
38.53 	0.083587 	4929 	0.081547
38.55 	0.076985 	4936 	0.075561
38.57 	0.082470 	4923 	0.079952
38.59 	0.085297 	4924 	0.084107
38.61 	0.081442 	4936 	0.079742
38.63 	0.086515 	4924 	0.083759
38.65 	0.092314 	4918 	0.088821
38.67 	0.082439 	4937 	0.080303
38.69 	0.070906 	4922 	0.070311
38.71 	0.082047 	4924 	0.080481
38.73 	0.072184 	4918 	0.070397
38.75 	0.070022 	4927 	0.068596
38.77 	0.075970 	4923 	0.074423
38.79 	0.063640 	4934 	0.062690
38.81 	0.065554 	4912 	0.064123
38.83 	0.062818 	4919 	0.062103
38.85 	0.062093 	4912 	0.060662
38.87 	0.056811 	4911 	0.055599
38.89 	0.051256 	4897 	0.050897
38.91 	0.049969 	4903 	0.048516
38.93 	0.060146 	4938 	0.058841
38.95 	0.049004 	4918 	0.048408
38.97 	0.056581 	4931 	0.055630
38.99 	0.053474 	4937 	0.052525
39.01 	0.046564 	4918 	0.046445
39.03 	0.049655 	4934 	0.049062
39.05 	0.056041 	4925 	0.055208
39.07 	0.049959 	4924 	0.049127
39.09 	0.046719 	4923 	0.046244
39.11 	0.051308 	4931 	0.050120
39.13 	0.046110 	4923 	0.045753
39.15 	0.050254 	4915 	0.049301
39.17 	0.048613 	4937 	0.047663
39.19 	0.047793 	4917 	0.047178
39.21 	0.047862 	4910 	0.046530
39.23 	0.048934 	4925 	0.048458
39.25 	0.050792 	4922 	0.050078
39.27 	0.049898 	4910 	0.049540
39.29 	0.047337 	4901 	0.046620
39.31 	0.050164 	4884 	0.049065
39.33 	0.047049 	4931 	0.046930
39.35 	0.047416 	4935 	0.046229
39.37 	0.041996 	4929 	0.041640
39.39 	0.046460 	4929 	0.045747
39.41 	0.047252 	4931 	0.046539
39.43 	0.046827 	4933 	0.045996
39.45 	0.043452 	4925 	0.042976
39.47 	0.053220 	4923 	0.052149
39.49 	0.045611 	4933 	0.045136
39.51 	0.046507 	4924 	0.045555
39.53 	0.055251 	4923 	0.055013
39.55 	0.043505 	4919 	0.042790
39.57 	0.046219 	4933 	0.045626
39.59 	0.046417 	4912 	0.045701
39.61 	0.040626 	4923 	0.040388
39.63 	0.045307 	4922 	0.044593
39.65 	0.048518 	4926 	0.047923
39.67 	0.043151 	4913 	0.042674
39.69 	0.044955 	4916 	0.044717
39.71 	0.046782 	4895 	0.046184
39.73 	0.049104 	4908 	0.048149
39.75 	0.042614 	4928 	0.042019
39.77 	0.046201 	4935 	0.045251
39.79 	0.048721 	4926 	0.048245
39.81 	0.043637 	4927 	0.043162
39.83 	0.046818 	4934 	0.046343
39.85 	0.049320 	4927 	0.048488
39.87 	0.044467 	4925 	0.043872
39.89 	0.039522 	4934 	0.039166
39.91 	0.048557 	4922 	0.047843
39.93 	0.045372 	4937 	0.045016
39.95 	0.047609 	4915 	0.046894
39.97 	0.042411 	4928 	0.042173
39.99 	0.047242 	4932 	0.046767
40.01 	0.045954 	4918 	0.045239
40.03 	0.042817 	4928 	0.042222
40.05 	0.050234 	4917 	0.049757
40.07 	0.045094 	4923 	0.044381
40.09 	0.048617 	4916 	0.047902
40.11 	0.044345 	4916 	0.044345
40.13 	0.041462 	4896 	0.040864
40.15 	0.044983 	4913 	0.044744
40.17 	0.043222 	4928 	0.042747
40.19 	0.047271 	4929 	0.046558
40.21 	0.041743 	4935 	0.041149
40.23 	0.040552 	4932 	0.039839
40.25 	0.048984 	4920 	0.048507
40.27 	0.048815 	4937 	0.048103
40.29 	0.043637 	4927 	0.043280
40.31 	0.039279 	4939 	0.038330
40.33 	0.046026 	4932 	0.045313
40.35 	0.041675 	4919 	0.041318
40.37 	0.048489 	4929 	0.047300
40.39 	0.045832 	4931 	0.045120
40.41 	0.044467 	4925 	0.044229
40.43 	0.040837 	4922 	0.040242
40.45 	0.046827 	4933 	0.046234
40.47 	0.041887 	4918 	0.041768
40.49 	0.047909 	4926 	0.047196
40.51 	0.043275 	4922 	0.042918
40.53 	0.044345 	4916 	0.044226
40.55 	0.044010 	4908 	0.043532
40.57 	0.039673 	4890 	0.039673
40.59 	0.046182 	4937 	0.045589
40.61 	0.043364 	4935 	0.042295
40.63 	0.043611 	4930 	0.043016
40.65 	0.048005 	4937 	0.047293
40.67 	0.052514 	4932 	0.052158
40.69 	0.040105 	4937 	0.039868
40.71 	0.043796 	4932 	0.043202
40.73 	0.046894 	4926 	0.046181
40.75 	0.042993 	4931 	0.042281
40.77 	0.041506 	4939 	0.041269
40.79 	0.044070 	4924 	0.043475
40.81 	0.043716 	4941 	0.043360
40.83 	0.044440 	4928 	0.044202
40.85 	0.043867 	4924 	0.043391
40.87 	0.043628 	4928 	0.043272
40.89 	0.042182 	4931 	0.042063
40.91 	0.043673 	4923 	0.043078
40.93 	0.043778 	4934 	0.043184
40.95 	0.045390 	4913 	0.044794
40.97 	0.045695 	4924 	0.045219
40.99 	0.048132 	4924 	0.047418
41.01 	0.044381 	4912 	0.043546
41.03 	0.045872 	4905 	0.045394
41.05 	0.042545 	4936 	0.042189
41.07 	0.043002 	4930 	0.042764
41.09 	0.045353 	4939 	0.045235
41.11 	0.040527 	4935 	0.040289
41.13 	0.046799 	4936 	0.046443
41.15 	0.043716 	4941 	0.043242
41.17 	0.048237 	4934 	0.048118
41.19 	0.040771 	4930 	0.040296
41.21 	0.041523 	4937 	0.040930
41.23 	0.048795 	4939 	0.048321
41.25 	0.043787 	4933 	0.043430
41.27 	0.042182 	4931 	0.042063
41.29 	0.043831 	4928 	0.043217
41.31 	0.044395 	4933 	0.043920
41.33 	0.045574 	4937 	0.045100
41.35 	0.038882 	4938 	0.038170
41.37 	0.042648 	4924 	0.042172
41.39 	0.042368 	4933 	0.041655
41.41 	0.037353 	4926 	0.036739
41.43 	0.043011 	4929 	0.042654
41.45 	0.042328 	4914 	0.041494
41.47 	0.042225 	4926 	0.041393
41.49 	0.041292 	4892 	0.040334
41.51 	0.043117 	4940 	0.042525
41.53 	0.047735 	4944 	0.047142
41.55 	0.040932 	4935 	0.040339
41.57 	0.045335 	4941 	0.044624
41.59 	0.041760 	4933 	0.041166
41.61 	0.039370 	4953 	0.039252
41.63 	0.046173 	4938 	0.045579
41.65 	0.037533 	4929 	0.037414
41.67 	0.042510 	4940 	0.042036
41.69 	0.044674 	4947 	0.043825
41.71 	0.041751 	4934 	0.041395
41.73 	0.047812 	4936 	0.047219
41.75 	0.044025 	4929 	0.043550
41.77 	0.040680 	4941 	0.039969
41.79 	0.040453 	4944 	0.039624
41.81 	0.040316 	4936 	0.039723
41.83 	0.035106 	4928 	0.034630
41.85 	0.036445 	4939 	0.035852
41.87 	0.043161 	4935 	0.042330
41.89 	0.039124 	4933 	0.039006
41.91 	0.036872 	4936 	0.036635
41.93 	0.040552 	4932 	0.040552
41.95 	0.046238 	4931 	0.046119
41.97 	0.040904 	4914 	0.040546
41.99 	0.039551 	4905 	0.038954
42.01 	0.043505 	4942 	0.042774
42.03 	0.047378 	4939 	0.046429
42.05 	0.038974 	4952 	0.038856
42.07 	0.040105 	4937 	0.039749
42.09 	0.042037 	4948 	0.041327
42.11 	0.042669 	4945 	0.042058
42.13 	0.042265 	4945 	0.041673
42.15 	0.040907 	4938 	0.040433
42.17 	0.040464 	4918 	0.039868
42.19 	0.035452 	4908 	0.035075
42.21 	0.041012 	4901 	0.040156
42.23 	0.035568 	4892 	0.034850
42.25 	0.035181 	4889 	0.034941
42.27 	0.040624 	4874 	0.040023
42.29 	0.042566 	4863 	0.042205
42.31 	0.043666 	4855 	0.043184
42.33 	0.040753 	4834 	0.040268
42.35 	0.037412 	4838 	0.037412
42.37 	0.044099 	4830 	0.043614
42.39 	0.042048 	4804 	0.041195
42.41 	0.037261 	4804 	0.036895
42.43 	0.043823 	4792 	0.043456
42.45 	0.041876 	4776 	0.041385
42.47 	0.041343 	4765 	0.040851
42.49 	0.037985 	4765 	0.037739
42.51 	0.044908 	4743 	0.044661
42.53 	0.042090 	4728 	0.041842
42.55 	0.039507 	4708 	0.038512
42.57 	0.037844 	4730 	0.037472
42.59 	0.044407 	4729 	0.044035
42.61 	0.039295 	4708 	0.039046
42.63 	0.042047 	4709 	0.041301
42.65 	0.039701 	4685 	0.039576
42.67 	0.039710 	4684 	0.039585
42.69 	0.040436 	4674 	0.039559
42.71 	0.039245 	4663 	0.038868
42.73 	0.043750 	4640 	0.043371
42.75 	0.042885 	4617 	0.042504
42.77 	0.036739 	4600 	0.036357
42.79 	0.038411 	4582 	0.038283
42.81 	0.037045 	4562 	0.036532
42.83 	0.039021 	4536 	0.037859
42.85 	0.040636 	4528 	0.039342
42.87 	0.038675 	4499 	0.038415
42.89 	0.041741 	4480 	0.041087
42.91 	0.039497 	4456 	0.038971
42.93 	0.037562 	4446 	0.037430
42.95 	0.040082 	4416 	0.039949
42.97 	0.038628 	4401 	0.038095
42.99 	0.042645 	4385 	0.042512
43.01 	0.043090 	4363 	0.042821
43.03 	0.039465 	4333 	0.039059
43.05 	0.035607 	4325 	0.035336
43.07 	0.044693 	4296 	0.043875
43.09 	0.040159 	4283 	0.039452
43.11 	0.039718 	4255 	0.039030
43.13 	0.044135 	4237 	0.043858
43.15 	0.046600 	4206 	0.046461
43.17 	0.044748 	4179 	0.044467
43.19 	0.037196 	4194 	0.036777
43.21 	0.043384 	4172 	0.042402
43.23 	0.038036 	4154 	0.037754
43.25 	0.031681 	4135 	0.031256
43.27 	0.043118 	4105 	0.043118
43.29 	0.038049 	4100 	0.038049
43.31 	0.039961 	4079 	0.039243
43.33 	0.034806 	4051 	0.034662
43.35 	0.036210 	4032 	0.035920
43.37 	0.044085 	4015 	0.043355
43.39 	0.036732 	4002 	0.036146
43.41 	0.040785 	3972 	0.040491
43.43 	0.040152 	3960 	0.039560
43.45 	0.035324 	3935 	0.034729
43.47 	0.038001 	3921 	0.038001
43.49 	0.041057 	3897 	0.040757
43.51 	0.037916 	3877 	0.037916
43.53 	0.044525 	3863 	0.044070
43.55 	0.045209 	2964 	0.044814
43.57 	0.035746 	2238 	0.035484
43.59 	0.034937 	1746 	0.034266
43.61 	0.039970 	1351 	0.039103
43.63 	0.034965 	1001 	0.034380
43.65 	0.027656 	687 	0.027656
43.67 	0.041833 	502 	0.041833
43.69 	0.024523 	367 	0.024523
43.71 	0.037657 	239 	0.037657
43.73 	0.008333 	120 	0.008333
43.75 	0.062500 	16 	0.062500