File: Example_Data/25SC_s1_0031.002.dat
#F C:\frames\spec\25SC_s1_0031.002
#C title =s:31 frm:2 25SC_s1
#C wavelength =0.15406

#S 1  fr_average C:\frames\spec\25SC_s1_0031.002 C:\win32app\speccom\mask.axs chi 0 180 0 360 0.02
#C 2 theta =0.000000 to 180 deg
#C   q   =0.000000 to 81.568 nm^-1
#C  chi  =0.000000 to 360 deg
#C collumns:
#C  1 position (2theta or chi in degrees)
#C  2 average intensity (sum of all counts in the region divided with number of pixels)
#C  3 Number of pixels in region)
#C  4 error (sum of sqrt(intensity) for all pixels divided by number)
#N 4
#L TTh  Int  N_pix  Err
32.99 	0.098361 	61 	0.098361
33.01 	0.052692 	873 	0.052692
33.03 	0.053918 	1391 	0.053918
33.05 	0.068298 	1757 	0.067298
33.07 	0.061951 	2050 	0.061094
33.09 	0.048999 	2347 	0.048250
33.11 	0.066305 	2579 	0.063315
33.13 	0.062299 	2793 	0.061250
33.15 	0.067022 	2999 	0.066632
33.17 	0.060918 	3201 	0.059271
33.19 	0.060443 	3342 	0.059742
33.21 	0.052386 	3436 	0.051705
33.23 	0.061311 	3523 	0.059815
33.25 	0.055371 	3612 	0.053911
33.27 	0.057300 	3630 	0.056816
33.29 	0.061404 	3648 	0.060761
33.31 	0.053005 	3660 	0.052205
33.33 	0.053717 	3686 	0.053081
33.35 	0.053600 	3694 	0.052808
33.37 	0.058697 	3714 	0.057882
33.39 	0.060606 	3729 	0.059664
33.41 	0.055080 	3740 	0.053671
33.43 	0.049189 	3761 	0.048410
33.45 	0.060164 	3773 	0.058586
33.47 	0.064771 	3798 	0.063383
33.49 	0.061433 	3809 	0.060357
33.51 	0.054260 	3815 	0.053338
33.53 	0.061182 	3841 	0.059784
33.55 	0.054124 	3843 	0.053210
33.57 	0.053650 	3877 	0.052592
33.59 	0.060309 	3880 	0.059379
33.61 	0.066513 	3909 	0.065314
33.63 	0.057923 	3919 	0.056105
33.65 	0.064615 	3931 	0.063398
33.67 	0.061457 	3954 	0.060420
33.69 	0.056919 	3953 	0.056030
33.71 	0.052830 	3975 	0.052388
33.73 	0.055445 	4004 	0.054713
33.75 	0.060265 	3999 	0.058800
33.77 	0.063354 	4025 	0.062044
33.79 	0.053205 	4041 	0.052480
33.81 	0.065627 	4038 	0.064321
33.83 	0.059259 	4050 	0.058825
33.85 	0.056355 	4099 	0.055212
33.87 	0.065191 	4111 	0.063743
33.89 	0.050716 	4121 	0.050147
33.91 	0.062666 	4149 	0.061254
33.93 	0.058299 	4151 	0.057311
33.95 	0.060990 	4181 	0.060290
33.97 	0.058711 	4190 	0.057710
33.99 	0.060238 	4200 	0.059262
34.01 	0.061002 	4213 	0.060167
34.03 	0.061734 	4244 	0.061320
34.05 	0.049153 	4252 	0.048740
34.07 	0.064199 	4268 	0.063512
34.09 	0.066029 	4286 	0.064936
34.11 	0.056020 	4302 	0.054386
34.13 	0.060817 	4308 	0.059729
34.15 	0.059801 	4331 	0.059125
34.17 	0.060690 	4350 	0.059478
34.19 	0.057084 	4362 	0.056010
34.21 	0.059254 	4371 	0.058316
34.23 	0.057819 	4393 	0.057019
34.25 	0.061989 	4404 	0.060349
34.27 	0.056536 	4422 	0.055189
34.29 	0.047351 	4435 	0.046690
34.31 	0.052041 	4458 	0.051100
34.33 	0.066204 	4471 	0.064632
34.35 	0.056869 	4484 	0.055824
34.37 	0.053886 	4491 	0.052842
34.39 	0.064194 	4502 	0.062762
34.41 	0.064516 	4526 	0.063481
34.43 	0.056400 	4539 	0.055626
34.45 	0.054465 	4535 	0.053819
34.47 	0.056402 	4592 	0.055509
34.49 	0.057211 	4597 	0.056829
34.51 	0.051238 	4606 	0.050729
34.53 	0.053414 	4643 	0.053035
34.55 	0.059660 	4643 	0.058650
34.57 	0.057082 	4660 	0.055950
34.59 	0.056898 	4675 	0.055896
34.61 	0.059400 	4697 	0.057883
34.63 	0.057113 	4710 	0.056242
34.65 	0.059945 	4721 	0.058456
34.67 	0.056528 	4741 	0.056034
34.69 	0.052798 	4754 	0.052674
34.71 	0.058540 	4766 	0.057188
34.73 	0.049091 	4787 	0.047868
34.75 	0.054493 	4808 	0.053883
34.77 	0.056040 	4818 	0.054824
34.79 	0.051202 	4824 	0.050595
34.81 	0.059236 	4845 	0.058027
34.83 	0.058001 	4862 	0.057278
34.85 	0.055864 	4869 	0.055122
34.87 	0.054232 	4868 	0.053630
34.89 	0.053257 	4882 	0.052057
34.91 	0.057763 	4882 	0.057283
34.93 	0.056950 	4899 	0.055874
34.95 	0.056237 	4890 	0.054920
34.97 	0.052428 	4902 	0.051711
34.99 	0.055340 	4897 	0.054622
35.01 	0.059720 	4923 	0.058173
35.03 	0.061501 	4943 	0.059842
35.05 	0.053164 	4947 	0.052335
35.07 	0.054251 	4940 	0.053540
35.09 	0.059762 	4953 	0.058816
35.11 	0.059430 	4947 	0.058483
35.13 	0.060307 	4958 	0.058652
35.15 	0.053879 	4937 	0.053009
35.17 	0.057825 	4946 	0.055880
35.19 	0.053622 	4942 	0.053503
35.21 	0.053589 	4945 	0.052760
35.23 	0.061072 	4945 	0.059967
35.25 	0.053813 	4943 	0.053102
35.27 	0.058003 	4948 	0.057293
35.29 	0.055612 	4945 	0.055375
35.31 	0.060207 	4933 	0.059257
35.33 	0.055634 	4943 	0.054449
35.35 	0.054229 	4942 	0.053399
35.37 	0.060741 	4939 	0.059911
35.39 	0.058645 	4945 	0.057697
35.41 	0.049330 	4926 	0.048973
35.43 	0.050882 	4933 	0.050407
35.45 	0.055094 	4937 	0.054382
35.47 	0.051511 	4931 	0.051154
35.49 	0.056619 	4910 	0.055307
35.51 	0.054811 	4926 	0.054217
35.53 	0.060214 	4949 	0.059741
35.55 	0.061072 	4945 	0.059769
35.57 	0.059599 	4933 	0.058886
35.59 	0.057230 	4945 	0.055926
35.61 	0.058478 	4942 	0.057511
35.63 	0.058062 	4943 	0.057232
35.65 	0.056825 	4945 	0.055621
35.67 	0.053015 	4942 	0.051948
35.69 	0.052163 	4946 	0.051334
35.71 	0.057322 	4937 	0.056492
35.73 	0.057131 	4936 	0.056657
35.75 	0.059217 	4931 	0.057910
35.77 	0.061200 	4951 	0.059524
35.79 	0.051500 	4932 	0.051144
35.81 	0.057571 	4933 	0.056740
35.83 	0.051961 	4946 	0.051251
35.85 	0.055724 	4935 	0.054993
35.87 	0.049970 	4923 	0.049236
35.89 	0.054317 	4934 	0.053367
35.91 	0.051553 	4927 	0.050720
35.93 	0.058656 	4927 	0.057210
35.95 	0.057555 	4917 	0.056960
35.97 	0.056800 	4912 	0.055607
35.99 	0.058311 	4939 	0.056869
36.01 	0.061258 	4930 	0.059832
36.03 	0.058264 	4943 	0.057790
36.05 	0.052174 	4945 	0.051463
36.07 	0.059729 	4939 	0.059017
36.09 	0.058907 	4940 	0.057603
36.11 	0.052749 	4929 	0.052036
36.13 	0.054431 	4942 	0.053720
36.15 	0.048188 	4939 	0.047713
36.17 	0.054619 	4925 	0.054025
36.19 	0.055466 	4940 	0.054754
36.21 	0.054372 	4929 	0.053521
36.23 	0.058156 	4935 	0.056969
36.25 	0.059705 	4941 	0.058282
36.27 	0.054619 	4925 	0.054262
36.29 	0.056581 	4931 	0.055987
36.31 	0.053571 	4928 	0.052739
36.33 	0.056761 	4933 	0.056048
36.35 	0.048489 	4929 	0.048132
36.37 	0.059720 	4923 	0.059244
36.39 	0.054460 	4921 	0.053627
36.41 	0.054943 	4896 	0.053507
36.43 	0.053774 	4928 	0.053061
36.45 	0.052941 	4930 	0.051872
36.47 	0.049433 	4936 	0.048721
36.49 	0.057467 	4942 	0.056755
36.51 	0.055139 	4933 	0.053813
36.53 	0.061501 	4943 	0.060316
36.55 	0.055409 	4927 	0.053982
36.57 	0.054317 	4934 	0.052853
36.59 	0.058311 	4939 	0.056869
36.61 	0.061651 	4931 	0.061037
36.63 	0.057595 	4931 	0.056882
36.65 	0.059408 	4932 	0.058814
36.67 	0.061055 	4930 	0.059985
36.69 	0.060053 	4929 	0.058389
36.71 	0.050803 	4921 	0.050088
36.73 	0.057868 	4925 	0.056798
36.75 	0.051780 	4944 	0.051306
36.77 	0.054076 	4919 	0.052885
36.79 	0.057509 	4921 	0.056080
36.81 	0.055126 	4916 	0.054411
36.83 	0.054527 	4915 	0.053573
36.85 	0.061454 	4898 	0.060258
36.87 	0.053803 	4944 	0.053092
36.89 	0.051871 	4916 	0.051395
36.91 	0.050597 	4941 	0.049748
36.93 	0.057809 	4930 	0.056383
36.95 	0.057369 	4933 	0.056419
36.97 	0.049047 	4934 	0.048098
36.99 	0.054103 	4935 	0.053510
37.01 	0.047233 	4933 	0.046283
37.03 	0.054224 	4924 	0.053510
37.05 	0.050741 	4927 	0.049889
37.07 	0.054306 	4935 	0.053000
37.09 	0.057021 	4928 	0.055832
37.11 	0.061601 	4935 	0.059702
37.13 	0.060520 	4924 	0.059687
37.15 	0.052353 	4909 	0.051637
37.17 	0.052898 	4934 	0.051711
37.19 	0.051371 	4925 	0.050895
37.21 	0.054301 	4917 	0.053229
37.23 	0.054087 	4918 	0.053134
37.25 	0.054164 	4911 	0.053448
37.27 	0.054352 	4894 	0.053634
37.29 	0.054767 	4930 	0.053697
37.31 	0.055522 	4935 	0.054572
37.33 	0.050944 	4927 	0.050468
37.35 	0.055691 	4938 	0.055097
37.37 	0.053176 	4927 	0.051987
37.39 	0.053742 	4931 	0.052791
37.41 	0.052525 	4931 	0.051574
37.43 	0.050487 	4932 	0.050012
37.45 	0.051990 	4924 	0.051395
37.47 	0.047271 	4929 	0.046796
37.49 	0.056673 	4923 	0.055463
37.51 	0.050679 	4933 	0.049967
37.53 	0.049604 	4919 	0.049008
37.55 	0.052535 	4930 	0.051704
37.57 	0.050558 	4925 	0.049845
37.59 	0.053917 	4915 	0.052963
37.61 	0.051605 	4922 	0.050395
37.63 	0.061395 	4919 	0.060442
37.65 	0.055714 	4918 	0.055118
37.67 	0.048532 	4904 	0.047457
37.69 	0.047979 	4898 	0.047142
37.71 	0.045040 	4929 	0.044683
37.73 	0.058430 	4929 	0.057360
37.75 	0.053036 	4940 	0.052444
37.77 	0.047154 	4920 	0.046678
37.79 	0.055172 	4930 	0.054222
37.81 	0.048855 	4933 	0.048023
37.83 	0.051829 	4920 	0.050996
37.85 	0.051605 	4922 	0.050534
37.87 	0.052237 	4939 	0.051150
37.89 	0.058071 	4925 	0.057238
37.91 	0.057809 	4930 	0.056502
37.93 	0.051027 	4919 	0.050074
37.95 	0.051616 	4921 	0.050782
37.97 	0.058430 	4929 	0.057479
37.99 	0.052728 	4912 	0.051655
38.01 	0.052151 	4928 	0.051200
38.03 	0.048482 	4909 	0.047269
38.05 	0.056650 	4925 	0.055817
38.07 	0.048075 	4909 	0.047598
38.09 	0.054326 	4878 	0.054085
38.11 	0.055319 	4935 	0.054607
38.13 	0.054284 	4937 	0.053928
38.15 	0.049004 	4918 	0.048527
38.17 	0.055375 	4930 	0.054900
38.19 	0.056998 	4930 	0.056285
38.21 	0.058501 	4923 	0.057787
38.23 	0.054678 	4938 	0.053729
38.25 	0.049014 	4917 	0.048160
38.27 	0.053955 	4930 	0.053242
38.29 	0.053818 	4924 	0.053104
38.31 	0.052365 	4927 	0.051889
38.33 	0.060723 	4924 	0.059276
38.35 	0.061080 	4928 	0.060010
38.37 	0.060114 	4924 	0.059043
38.39 	0.055408 	4909 	0.054692
38.41 	0.065001 	4923 	0.063335
38.43 	0.064483 	4916 	0.063292
38.45 	0.063440 	4918 	0.061753
38.47 	0.065009 	4907 	0.064770
38.49 	0.069510 	4877 	0.067689
38.51 	0.062247 	4932 	0.061059
38.53 	0.055589 	4929 	0.055233
38.55 	0.065640 	4936 	0.064691
38.57 	0.062970 	4923 	0.061542
38.59 	0.055849 	4924 	0.055611
38.61 	0.067058 	4936 	0.065990
38.63 	0.059504 	4924 	0.057700
38.65 	0.055307 	4918 	0.054711
38.67 	0.054892 	4937 	0.053824
38.69 	0.053434 	4922 	0.052719
38.71 	0.051787 	4924 	0.051311
38.73 	0.056934 	4918 	0.056219
38.75 	0.055815 	4927 	0.054626
38.77 	0.057688 	4923 	0.056617
38.79 	0.050669 	4934 	0.049600
38.81 	0.046824 	4912 	0.046466
38.83 	0.055499 	4919 	0.054665
38.85 	0.050285 	4912 	0.049927
38.87 	0.042150 	4911 	0.041912
38.89 	0.048805 	4897 	0.048447
38.91 	0.046706 	4903 	0.045631
38.93 	0.046578 	4938 	0.045866
38.95 	0.045954 	4918 	0.045120
38.97 	0.052728 	4931 	0.051896
38.99 	0.051853 	4937 	0.051023
39.01 	0.051444 	4918 	0.050848
39.03 	0.047629 	4934 	0.047510
39.05 	0.045482 	4925 	0.044749
39.07 	0.045898 	4924 	0.044569
39.09 	0.054641 	4923 	0.053809
39.11 	0.047049 	4931 	0.046099
39.13 	0.051188 	4923 	0.050712
39.15 	0.041913 	4915 	0.041436
39.17 	0.049018 	4937 	0.048662
39.19 	0.045353 	4917 	0.045115
39.21 	0.046232 	4910 	0.045994
39.23 	0.046701 	4925 	0.046582
39.25 	0.049980 	4922 	0.049266
39.27 	0.046640 	4910 	0.046043
39.29 	0.047541 	4901 	0.047063
39.31 	0.041564 	4884 	0.040965
39.33 	0.050091 	4931 	0.049735
39.35 	0.046201 	4935 	0.045726
39.37 	0.048286 	4929 	0.047691
39.39 	0.036721 	4929 	0.036721
39.41 	0.047455 	4931 	0.046148
39.43 	0.042976 	4933 	0.042620
39.45 	0.043046 	4925 	0.041975
39.47 	0.043266 	4923 	0.042433
39.49 	0.043179 	4933 	0.042822
39.51 	0.045695 	4924 	0.044743
39.53 	0.043673 	4923 	0.043197
39.55 	0.041878 	4919 	0.041283
39.57 	0.042773 	4933 	0.042179
39.59 	0.046621 	4912 	0.045905
39.61 	0.054032 	4923 	0.053794
39.63 	0.045104 	4922 	0.044271
39.65 	0.044661 	4926 	0.043947
39.67 	0.047222 	4913 	0.046387
39.69 	0.047193 	4916 	0.047074
39.71 	0.043922 	4895 	0.043324
39.73 	0.046659 	4908 	0.046181
39.75 	0.039164 	4928 	0.038451
39.77 	0.041945 	4935 	0.041589
39.79 	0.042022 	4926 	0.041784
39.81 	0.044246 	4927 	0.043652
39.83 	0.046210 	4934 	0.045141
39.85 	0.042622 	4927 	0.042266
39.87 	0.047513 	4925 	0.047037
39.89 	0.043778 	4934 	0.043184
39.91 	0.048761 	4922 	0.047908
39.93 	0.038890 	4937 	0.037941
39.95 	0.044151 	4915 	0.043555
39.97 	0.048295 	4928 	0.047701
39.99 	0.043593 	4932 	0.043118
40.01 	0.043514 	4918 	0.042680
40.03 	0.044440 	4928 	0.044083
40.05 	0.042709 	4917 	0.042352
40.07 	0.044891 	4923 	0.044296
40.09 	0.043735 	4916 	0.043377
40.11 	0.042107 	4916 	0.041015
40.13 	0.049632 	4896 	0.049154
40.15 	0.045390 	4913 	0.044794
40.17 	0.046266 	4928 	0.045791
40.19 	0.044837 	4929 	0.044599
40.21 	0.041540 	4935 	0.040828
40.23 	0.039132 	4932 	0.038776
40.25 	0.038415 	4920 	0.037938
40.27 	0.042536 	4937 	0.041824
40.29 	0.042216 	4927 	0.041127
40.31 	0.042721 	4939 	0.042128
40.33 	0.039132 	4932 	0.039013
40.35 	0.039439 	4919 	0.038843
40.37 	0.043214 	4929 	0.042501
40.39 	0.042385 	4931 	0.041910
40.41 	0.043249 	4925 	0.042773
40.43 	0.047745 	4922 	0.047150
40.45 	0.043787 	4933 	0.043549
40.47 	0.045954 	4918 	0.045596
40.49 	0.046285 	4926 	0.045928
40.51 	0.040634 	4922 	0.040039
40.53 	0.047803 	4916 	0.047684
40.55 	0.044825 	4908 	0.044347
40.57 	0.041104 	4890 	0.040985
40.59 	0.046790 	4937 	0.046177
40.61 	0.040527 	4935 	0.039933
40.63 	0.034888 	4930 	0.034176
40.65 	0.042333 	4937 	0.042096
40.67 	0.042579 	4932 	0.042223
40.69 	0.037877 	4937 	0.037521
40.71 	0.038727 	4932 	0.038252
40.73 	0.045270 	4926 	0.044656
40.75 	0.042791 	4931 	0.042434
40.77 	0.041101 	4939 	0.040153
40.79 	0.040617 	4924 	0.040023
40.81 	0.042097 	4941 	0.041722
40.83 	0.044846 	4928 	0.044608
40.85 	0.042242 	4924 	0.041409
40.87 	0.040584 	4928 	0.040228
40.89 	0.044818 	4931 	0.044581
40.91 	0.037579 	4923 	0.037341
40.93 	0.046007 	4934 	0.045651
40.95 	0.037452 	4913 	0.036498
40.97 	0.045288 	4924 	0.044456
40.99 	0.041430 	4924 	0.040716
41.01 	0.043567 	4912 	0.042851
41.03 	0.043833 	4905 	0.043355
41.05 	0.042950 	4936 	0.042594
41.07 	0.040365 	4930 	0.040246
41.09 	0.037255 	4939 	0.036780
41.11 	0.039108 	4935 	0.038634
41.13 	0.042342 	4936 	0.041511
41.15 	0.040882 	4941 	0.040290
41.17 	0.040130 	4934 	0.039655
41.19 	0.041785 	4930 	0.041429
41.21 	0.042333 	4937 	0.041721
41.23 	0.042114 	4939 	0.041877
41.25 	0.038719 	4933 	0.038481
41.27 	0.046035 	4931 	0.045184
41.29 	0.042411 	4928 	0.042054
41.31 	0.037300 	4933 	0.036825
41.33 	0.042333 	4937 	0.041483
41.35 	0.035034 	4938 	0.034441
41.37 	0.037571 	4924 	0.037214
41.39 	0.042773 	4933 	0.042417
41.41 	0.039586 	4926 	0.038991
41.43 	0.043417 	4929 	0.042941
41.45 	0.044974 	4914 	0.044358
41.47 	0.038774 	4926 	0.038536
41.49 	0.043745 	4892 	0.043386
41.51 	0.044332 	4940 	0.043621
41.53 	0.046319 	4944 	0.046200
41.55 	0.046606 	4935 	0.046012
41.57 	0.044121 	4941 	0.043765
41.59 	0.037705 	4933 	0.037468
41.61 	0.034726 	4953 	0.034490
41.63 	0.039287 	4938 	0.039050
41.65 	0.042402 	4929 	0.042046
41.67 	0.041903 	4940 	0.041666
41.69 	0.040631 	4947 	0.040039
41.71 	0.041751 	4934 	0.041039
41.73 	0.042545 	4936 	0.041951
41.75 	0.040982 	4929 	0.040150
41.77 	0.041287 	4941 	0.041169
41.79 	0.035599 	4944 	0.035125
41.81 	0.036872 	4936 	0.036872
41.83 	0.039773 	4928 	0.039535
41.85 	0.034622 	4939 	0.034504
41.87 	0.041337 	4935 	0.040981
41.89 	0.040138 	4933 	0.039663
41.91 	0.036872 	4936 	0.036516
41.93 	0.042579 	4932 	0.041866
41.95 	0.041979 	4931 	0.041504
41.97 	0.036427 	4914 	0.035711
41.99 	0.036493 	4905 	0.036374
42.01 	0.038851 	4942 	0.038377
42.03 	0.041101 	4939 	0.040746
42.05 	0.037561 	4952 	0.036969
42.07 	0.039093 	4937 	0.038974
42.09 	0.042239 	4948 	0.041884
42.11 	0.040243 	4945 	0.040006
42.13 	0.041254 	4945 	0.040760
42.15 	0.040300 	4938 	0.039944
42.17 	0.032534 	4918 	0.032176
42.19 	0.041769 	4908 	0.041530
42.21 	0.035911 	4901 	0.035433
42.23 	0.037817 	4892 	0.037338
42.25 	0.035386 	4889 	0.035026
42.27 	0.038982 	4874 	0.038381
42.29 	0.034752 	4863 	0.034511
42.31 	0.035427 	4855 	0.035186
42.33 	0.041787 	4834 	0.040677
42.35 	0.037619 	4838 	0.037236
42.37 	0.042650 	4830 	0.042286
42.39 	0.036844 	4804 	0.036458
42.41 	0.036220 	4804 	0.035854
42.43 	0.039232 	4792 	0.037990
42.45 	0.038317 	4776 	0.037949
42.47 	0.032109 	4765 	0.031863
42.49 	0.044071 	4765 	0.043580
42.51 	0.036475 	4743 	0.035857
42.53 	0.040821 	4728 	0.040077
42.55 	0.039720 	4708 	0.038849
42.57 	0.032135 	4730 	0.032011
42.59 	0.040601 	4729 	0.039733
42.61 	0.037596 	4708 	0.037098
42.63 	0.045657 	4709 	0.045035
42.65 	0.039061 	4685 	0.038436
42.67 	0.037575 	4684 	0.037325
42.69 	0.038939 	4674 	0.038813
42.71 	0.037101 	4663 	0.036849
42.73 	0.035560 	4640 	0.035560
42.75 	0.038553 	4617 	0.038046
42.77 	0.043913 	4600 	0.043404
42.79 	0.037320 	4582 	0.036809
42.81 	0.040114 	4562 	0.039729
42.83 	0.037257 	4536 	0.037257
42.85 	0.039090 	4528 	0.038831
42.87 	0.036675 	4499 	0.036545
42.89 	0.033929 	4480 	0.033406
42.91 	0.037253 	4456 	0.037253
42.93 	0.036887 	4446 	0.036492
42.95 	0.042572 	4416 	0.042307
42.97 	0.038855 	4401 	0.037901
42.99 	0.038769 	4385 	0.038368
43.01 	0.034838 	4363 	0.034838
43.03 	0.035772 	4333 	0.034961
43.05 	0.038150 	4325 	0.037473
43.07 	0.039106 	4296 	0.038288
43.09 	0.038291 	4283 	0.038154
43.11 	0.040188 	4255 	0.039362
43.13 	0.036110 	4237 	0.035419
43.15 	0.036377 	4206 	0.035820
43.17 	0.038765 	4179 	0.038205
43.19 	0.038627 	4194 	0.038208
43.21 	0.039310 	4172 	0.038888
43.23 	0.038758 	4154 	0.038194
43.25 	0.043531 	4135 	0.042658
43.27 	0.036784 	4105 	0.036214
43.29 	0.035122 	4100 	0.034836
43.31 	0.043638 	4079 	0.043064
43.33 	0.040978 	4051 	0.040399
43.35 	0.039683 	4032 	0.039392
43.37 	0.040598 	4015 	0.040160
43.39 	0.037481 	4002 	0.037042
43.41 	0.036757 	3972 	0.036167
43.43 	0.044192 	3960 	0.043132
43.45 	0.039390 	3935 	0.039092
43.47 	0.039276 	3921 	0.038678
43.49 	0.035155 	3897 	0.034704
43.51 	0.031210 	3877 	0.031059
43.53 	0.037794 	3863 	0.037491
43.55 	0.039136 	2964 	0.038543
43.57 	0.035299 	2238 	0.034776
43.59 	0.033792 	1746 	0.033792
43.61 	0.026647 	1351 	0.026213
43.63 	0.038961 	1001 	0.038961
43.65 	0.024745 	687 	0.024745
43.67 	0.025896 	502 	0.025896
43.69 	0.032698 	367 	0.032698
43.71 	0.041841 	239 	0.041841
43.73 	0.041667 	120 	0.041667
43.75 	0.000000 	16 	0.000000