File: Example_Data/25SC_s1_0039.004.dat
#F C:\frames\spec\25SC_s1_0039.004
#C title =s:39 frm:4 25SC_s1
#C wavelength =0.15406

#S 1  fr_average C:\frames\spec\25SC_s1_0039.004 C:\win32app\speccom\mask.axs chi 0 180 0 360 0.02
#C 2 theta =0.000000 to 180 deg
#C   q   =0.000000 to 81.568 nm^-1
#C  chi  =0.000000 to 360 deg
#C collumns:
#C  1 position (2theta or chi in degrees)
#C  2 average intensity (sum of all counts in the region divided with number of pixels)
#C  3 Number of pixels in region)
#C  4 error (sum of sqrt(intensity) for all pixels divided by number)
#N 4
#L TTh  Int  N_pix  Err
32.99 	0.114754 	61 	0.114754
33.01 	0.046964 	873 	0.046964
33.03 	0.053199 	1391 	0.051936
33.05 	0.056346 	1757 	0.055012
33.07 	0.058049 	2050 	0.057477
33.09 	0.053686 	2347 	0.052687
33.11 	0.060876 	2579 	0.059968
33.13 	0.054422 	2793 	0.053373
33.15 	0.058353 	2999 	0.056790
33.17 	0.059981 	3201 	0.059432
33.19 	0.052663 	3342 	0.051611
33.21 	0.055588 	3436 	0.054395
33.23 	0.059324 	3523 	0.058161
33.25 	0.055648 	3612 	0.054837
33.27 	0.055372 	3630 	0.054726
33.29 	0.061952 	3648 	0.061309
33.31 	0.058743 	3660 	0.058103
33.33 	0.056158 	3686 	0.055205
33.35 	0.060910 	3694 	0.058981
33.37 	0.058428 	3714 	0.057954
33.39 	0.061142 	3729 	0.059100
33.41 	0.058021 	3740 	0.056925
33.43 	0.061420 	3761 	0.060485
33.45 	0.054864 	3773 	0.054087
33.47 	0.067404 	3798 	0.066324
33.49 	0.059333 	3809 	0.058410
33.51 	0.059502 	3815 	0.058888
33.53 	0.057537 	3841 	0.056622
33.55 	0.051522 	3843 	0.050913
33.57 	0.052876 	3877 	0.052423
33.59 	0.057990 	3880 	0.056933
33.61 	0.068304 	3909 	0.066955
33.63 	0.055882 	3919 	0.054985
33.65 	0.060544 	3931 	0.059799
33.67 	0.061710 	3954 	0.060673
33.69 	0.062990 	3953 	0.061484
33.71 	0.058616 	3975 	0.057290
33.73 	0.059940 	4004 	0.059062
33.75 	0.058765 	3999 	0.058618
33.77 	0.057888 	4025 	0.057015
33.79 	0.070280 	4041 	0.068540
33.81 	0.056711 	4038 	0.055696
33.83 	0.056543 	4050 	0.055965
33.85 	0.068309 	4099 	0.067023
33.87 	0.056920 	4111 	0.055900
33.89 	0.066489 	4121 	0.065352
33.91 	0.054953 	4149 	0.054529
33.93 	0.069863 	4151 	0.068310
33.95 	0.060751 	4181 	0.060027
33.97 	0.060143 	4190 	0.059584
33.99 	0.060952 	4200 	0.059697
34.01 	0.053881 	4213 	0.052329
34.03 	0.064562 	4244 	0.063043
34.05 	0.056679 	4252 	0.055577
34.07 	0.058575 	4268 	0.058026
34.09 	0.059263 	4286 	0.057759
34.11 	0.060902 	4302 	0.059654
34.13 	0.053157 	4308 	0.052069
34.15 	0.058185 	4331 	0.057238
34.17 	0.062299 	4350 	0.060952
34.19 	0.052499 	4362 	0.051425
34.21 	0.060169 	4371 	0.058963
34.23 	0.061006 	4393 	0.060073
34.25 	0.053134 	4404 	0.052202
34.27 	0.066033 	4422 	0.065239
34.29 	0.056370 	4435 	0.055181
34.31 	0.056528 	4458 	0.055608
34.33 	0.061507 	4471 	0.060066
34.35 	0.056869 	4484 	0.055693
34.37 	0.057448 	4491 	0.056274
34.39 	0.059085 	4502 	0.058434
34.41 	0.062307 	4526 	0.061012
34.43 	0.063009 	4539 	0.062364
34.45 	0.060860 	4535 	0.059568
34.47 	0.055314 	4592 	0.054676
34.49 	0.055036 	4597 	0.054144
34.51 	0.065567 	4606 	0.064655
34.53 	0.066336 	4643 	0.065201
34.55 	0.057937 	4643 	0.057054
34.57 	0.055579 	4660 	0.054322
34.59 	0.057326 	4675 	0.056198
34.61 	0.063658 	4697 	0.063159
34.63 	0.053503 	4710 	0.052881
34.65 	0.055285 	4721 	0.054664
34.67 	0.056106 	4741 	0.055489
34.69 	0.058898 	4754 	0.057789
34.71 	0.053084 	4766 	0.051487
34.73 	0.058283 	4787 	0.057549
34.75 	0.059484 	4808 	0.058388
34.77 	0.057908 	4818 	0.057178
34.79 	0.059287 	4824 	0.058073
34.81 	0.055315 	4845 	0.054589
34.83 	0.053682 	4862 	0.053079
34.85 	0.059766 	4869 	0.057801
34.87 	0.049507 	4868 	0.049026
34.89 	0.059812 	4882 	0.058612
34.91 	0.054486 	4882 	0.053766
34.93 	0.054501 	4899 	0.053186
34.95 	0.055419 	4890 	0.054341
34.97 	0.057936 	4902 	0.056741
34.99 	0.054932 	4897 	0.054094
35.01 	0.065001 	4923 	0.063811
35.03 	0.058264 	4943 	0.057435
35.05 	0.061654 	4947 	0.060114
35.07 	0.062551 	4940 	0.061009
35.09 	0.052897 	4953 	0.052050
35.11 	0.054376 	4947 	0.053429
35.13 	0.064744 	4958 	0.063326
35.15 	0.061373 	4937 	0.059574
35.17 	0.056409 	4946 	0.055442
35.19 	0.055848 	4942 	0.055018
35.21 	0.063701 	4945 	0.062279
35.23 	0.053792 	4945 	0.053318
35.25 	0.060894 	4943 	0.059828
35.27 	0.058205 	4948 	0.057021
35.29 	0.057432 	4945 	0.056958
35.31 	0.055342 	4933 	0.054629
35.33 	0.055027 	4943 	0.053605
35.35 	0.052206 	4942 	0.051376
35.37 	0.054060 	4939 	0.052518
35.39 	0.059252 	4945 	0.058640
35.41 	0.052781 	4926 	0.052068
35.43 	0.060207 	4933 	0.059732
35.45 	0.058335 	4937 	0.057267
35.47 	0.055567 	4931 	0.054973
35.49 	0.060285 	4910 	0.059450
35.51 	0.057653 	4926 	0.056464
35.53 	0.064862 	4949 	0.064033
35.55 	0.057634 	4945 	0.056805
35.57 	0.056152 	4933 	0.054490
35.59 	0.060465 	4945 	0.059636
35.61 	0.059692 	4942 	0.058863
35.63 	0.054218 	4943 	0.053626
35.65 	0.057230 	4945 	0.056045
35.67 	0.062323 	4942 	0.061612
35.69 	0.058431 	4946 	0.057365
35.71 	0.058132 	4937 	0.057164
35.73 	0.052674 	4936 	0.052200
35.75 	0.053539 	4931 	0.052945
35.77 	0.059382 	4951 	0.057489
35.79 	0.060219 	4932 	0.059031
35.81 	0.059801 	4933 	0.059326
35.83 	0.053983 	4946 	0.052917
35.85 	0.058764 	4935 	0.057933
35.87 	0.056673 	4923 	0.056078
35.89 	0.057154 	4934 	0.056680
35.91 	0.056830 	4927 	0.055592
35.93 	0.059265 	4927 	0.059027
35.95 	0.056132 	4917 	0.055298
35.97 	0.057003 	4912 	0.056645
35.99 	0.058514 	4939 	0.057446
36.01 	0.062272 	4930 	0.061064
36.03 	0.056443 	4943 	0.055614
36.05 	0.057027 	4945 	0.055961
36.07 	0.053047 	4939 	0.052336
36.09 	0.062551 	4940 	0.060515
36.11 	0.051735 	4929 	0.051378
36.13 	0.059692 	4942 	0.058507
36.15 	0.056894 	4939 	0.055708
36.17 	0.054213 	4925 	0.053262
36.19 	0.055870 	4940 	0.055159
36.21 	0.055184 	4929 	0.055065
36.23 	0.061601 	4935 	0.060533
36.25 	0.050799 	4941 	0.050088
36.27 	0.058477 	4925 	0.057149
36.29 	0.054553 	4931 	0.053959
36.31 	0.054180 	4928 	0.053705
36.33 	0.049463 	4933 	0.048869
36.35 	0.059444 	4929 	0.058612
36.37 	0.060938 	4923 	0.059134
36.39 	0.060760 	4921 	0.059808
36.41 	0.056985 	4896 	0.055908
36.43 	0.060268 	4928 	0.058960
36.45 	0.050304 	4930 	0.048878
36.47 	0.056118 	4936 	0.054694
36.49 	0.056253 	4942 	0.055541
36.51 	0.051895 	4933 	0.051539
36.53 	0.058871 	4943 	0.058042
36.55 	0.058859 	4927 	0.058265
36.57 	0.053101 	4934 	0.052626
36.59 	0.058109 	4939 	0.057279
36.61 	0.050091 	4931 	0.048784
36.63 	0.059420 	4931 	0.057975
36.65 	0.061638 	4932 	0.060451
36.67 	0.060041 	4930 	0.059070
36.69 	0.061270 	4929 	0.059963
36.71 	0.053038 	4921 	0.052066
36.73 	0.057462 	4925 	0.056015
36.75 	0.053196 	4944 	0.052011
36.77 	0.052653 	4919 	0.052058
36.79 	0.051209 	4921 	0.050733
36.81 	0.056143 	4916 	0.055667
36.83 	0.062665 	4915 	0.061216
36.85 	0.053695 	4898 	0.052978
36.87 	0.053398 	4944 	0.052806
36.89 	0.050041 	4916 	0.049326
36.91 	0.051002 	4941 	0.050053
36.93 	0.058824 	4930 	0.057616
36.95 	0.053314 	4933 	0.052107
36.97 	0.051074 	4934 	0.050580
36.99 	0.056940 	4935 	0.056347
37.01 	0.049666 	4933 	0.048834
37.03 	0.052396 	4924 	0.051326
37.05 	0.057642 	4927 	0.056690
37.07 	0.053293 	4935 	0.052106
37.09 	0.052354 	4928 	0.051284
37.11 	0.049443 	4935 	0.048256
37.13 	0.054630 	4924 	0.053917
37.15 	0.055205 	4909 	0.054350
37.17 	0.050872 	4934 	0.049209
37.19 	0.056244 	4925 	0.055391
37.21 	0.056539 	4917 	0.055228
37.23 	0.053477 	4918 	0.052524
37.25 	0.055589 	4911 	0.054755
37.27 	0.055987 	4894 	0.055508
37.29 	0.060041 	4930 	0.059090
37.31 	0.055724 	4935 	0.054894
37.33 	0.053785 	4927 	0.052715
37.35 	0.056501 	4938 	0.055789
37.37 	0.051147 	4927 	0.050433
37.39 	0.057798 	4931 	0.056966
37.41 	0.049686 	4931 	0.048616
37.43 	0.051703 	4932 	0.050753
37.45 	0.057880 	4924 	0.057047
37.47 	0.056401 	4929 	0.055312
37.49 	0.051391 	4923 	0.050559
37.51 	0.057369 	4933 	0.056181
37.53 	0.056719 	4919 	0.055290
37.55 	0.052535 	4930 	0.051447
37.57 	0.051777 	4925 	0.050825
37.59 	0.052492 	4915 	0.051658
37.61 	0.060138 	4922 	0.058710
37.63 	0.057735 	4919 	0.056783
37.65 	0.048800 	4918 	0.048324
37.67 	0.050571 	4904 	0.050332
37.69 	0.056554 	4898 	0.055597
37.71 	0.053358 	4929 	0.052407
37.73 	0.054575 	4929 	0.053862
37.75 	0.050000 	4940 	0.049407
37.77 	0.058943 	4920 	0.058348
37.79 	0.048276 	4930 	0.047325
37.81 	0.057977 	4933 	0.056671
37.83 	0.055081 	4920 	0.054486
37.85 	0.062170 	4922 	0.061099
37.87 	0.056692 	4939 	0.056217
37.89 	0.060508 	4925 	0.059437
37.91 	0.053550 	4930 	0.052718
37.93 	0.049197 	4919 	0.048006
37.95 	0.057102 	4921 	0.056388
37.97 	0.053358 	4929 	0.053001
37.99 	0.057207 	4912 	0.056253
38.01 	0.057427 	4928 	0.056476
38.03 	0.053168 	4909 	0.052094
38.05 	0.055838 	4925 	0.054886
38.07 	0.053779 	4909 	0.053043
38.09 	0.056376 	4878 	0.055295
38.11 	0.047011 	4935 	0.046299
38.13 	0.056917 	4937 	0.055968
38.15 	0.056324 	4918 	0.055371
38.17 	0.056998 	4930 	0.055671
38.19 	0.058215 	4930 	0.057264
38.21 	0.052001 	4923 	0.050910
38.23 	0.063791 	4938 	0.063060
38.25 	0.059793 	4917 	0.059078
38.27 	0.056795 	4930 	0.055963
38.29 	0.063769 	4924 	0.062461
38.31 	0.061904 	4927 	0.060834
38.33 	0.069050 	4924 	0.068098
38.35 	0.064935 	4928 	0.063271
38.37 	0.068643 	4924 	0.067573
38.39 	0.065186 	4909 	0.064232
38.41 	0.069064 	4923 	0.067636
38.43 	0.068959 	4916 	0.067648
38.45 	0.066287 	4918 	0.065334
38.47 	0.061341 	4907 	0.060128
38.49 	0.068690 	4877 	0.067729
38.51 	0.070560 	4932 	0.069590
38.53 	0.063299 	4929 	0.061754
38.55 	0.070705 	4936 	0.069261
38.57 	0.059720 	4923 	0.058649
38.59 	0.061535 	4924 	0.060822
38.61 	0.065235 	4936 	0.064404
38.63 	0.062551 	4924 	0.061123
38.65 	0.068117 	4918 	0.066569
38.67 	0.056309 	4937 	0.055716
38.69 	0.059529 	4922 	0.058676
38.71 	0.066409 	4924 	0.065200
38.73 	0.061204 	4918 	0.059973
38.75 	0.056221 	4927 	0.055389
38.77 	0.056673 	4923 	0.056078
38.79 	0.061816 	4934 	0.060253
38.81 	0.057207 	4912 	0.056134
38.83 	0.053873 	4919 	0.053277
38.85 	0.050489 	4912 	0.049992
38.87 	0.049481 	4911 	0.049004
38.89 	0.056974 	4897 	0.056256
38.91 	0.052621 	4903 	0.052262
38.93 	0.055083 	4938 	0.054253
38.95 	0.050630 	4918 	0.050392
38.97 	0.055567 	4931 	0.054379
38.99 	0.059145 	4937 	0.057583
39.01 	0.056120 	4918 	0.055763
39.03 	0.054925 	4934 	0.053500
39.05 	0.050964 	4925 	0.049656
39.07 	0.057067 	4924 	0.056354
39.09 	0.049157 	4923 	0.048780
39.11 	0.056581 	4931 	0.055868
39.13 	0.052204 	4923 	0.051728
39.15 	0.055544 	4915 	0.054829
39.17 	0.054284 	4937 	0.053453
39.19 	0.049217 	4917 	0.048483
39.21 	0.053971 	4910 	0.052401
39.23 	0.054619 	4925 	0.053787
39.25 	0.049980 	4922 	0.049623
39.27 	0.053157 	4910 	0.052302
39.29 	0.056111 	4901 	0.054796
39.31 	0.048526 	4884 	0.047566
39.33 	0.063882 	4931 	0.062337
39.35 	0.056130 	4935 	0.055655
39.37 	0.050720 	4929 	0.049888
39.39 	0.051126 	4929 	0.050413
39.41 	0.052322 	4931 	0.051471
39.43 	0.056963 	4933 	0.056132
39.45 	0.049543 	4925 	0.048810
39.47 	0.053016 	4923 	0.051946
39.49 	0.052706 	4933 	0.052113
39.51 	0.057474 	4924 	0.056264
39.53 	0.053626 	4923 	0.052793
39.55 	0.056516 	4919 	0.055563
39.57 	0.058585 	4933 	0.057378
39.59 	0.054153 	4912 	0.052961
39.61 	0.054641 	4923 	0.053571
39.63 	0.051605 	4922 	0.050177
39.65 	0.058059 	4926 	0.057108
39.67 	0.061470 	4913 	0.060396
39.69 	0.056143 	4916 	0.054832
39.71 	0.052503 	4895 	0.051904
39.73 	0.061532 	4908 	0.060458
39.75 	0.057427 	4928 	0.056357
39.77 	0.057751 	4935 	0.056188
39.79 	0.051563 	4926 	0.050969
39.81 	0.060077 	4927 	0.058888
39.83 	0.052696 	4934 	0.051983
39.85 	0.056830 	4927 	0.055879
39.87 	0.059289 	4925 	0.058695
39.89 	0.048642 	4934 	0.047811
39.91 	0.045713 	4922 	0.044999
39.93 	0.056512 	4937 	0.055919
39.95 	0.061445 	4915 	0.060253
39.97 	0.050933 	4928 	0.049507
39.99 	0.053325 	4932 	0.053206
40.01 	0.052460 	4918 	0.051269
40.03 	0.052354 	4928 	0.051878
40.05 	0.061216 	4917 	0.060263
40.07 	0.056267 	4923 	0.055434
40.09 	0.063263 	4916 	0.062429
40.11 	0.056957 	4916 	0.056123
40.13 	0.053922 	4896 	0.052845
40.15 	0.057195 	4913 	0.056122
40.17 	0.050731 	4928 	0.049304
40.19 	0.052140 	4929 	0.050952
40.21 	0.050659 	4935 	0.050065
40.23 	0.053528 	4932 	0.052558
40.25 	0.053049 	4920 	0.051720
40.27 	0.049018 	4937 	0.048187
40.29 	0.055815 	4927 	0.054626
40.31 	0.052035 	4939 	0.051442
40.33 	0.050081 	4932 	0.049606
40.35 	0.051840 	4919 	0.051006
40.37 	0.047474 	4929 	0.046761
40.39 	0.048063 	4931 	0.047707
40.41 	0.052386 	4925 	0.051672
40.43 	0.050792 	4922 	0.050316
40.45 	0.050071 	4933 	0.049121
40.47 	0.045954 	4918 	0.045120
40.49 	0.047909 	4926 	0.046958
40.51 	0.052824 	4922 	0.052229
40.53 	0.058177 	4916 	0.057582
40.55 	0.051752 	4908 	0.051275
40.57 	0.054192 	4890 	0.053593
40.59 	0.050233 	4937 	0.049284
40.61 	0.052280 	4935 	0.051330
40.63 	0.052130 	4930 	0.051655
40.65 	0.048207 	4937 	0.047851
40.67 	0.059205 	4932 	0.058255
40.69 	0.052866 	4937 	0.051917
40.71 	0.052109 	4932 	0.051515
40.73 	0.049736 	4926 	0.049142
40.75 	0.058812 	4931 	0.057861
40.77 	0.051427 	4939 	0.050360
40.79 	0.046913 	4924 	0.045961
40.81 	0.049990 	4941 	0.049140
40.83 	0.051136 	4928 	0.050661
40.85 	0.053006 	4924 	0.052054
40.87 	0.050528 	4928 	0.049814
40.89 	0.044818 	4931 	0.044106
40.91 	0.055454 	4923 	0.054264
40.93 	0.050061 	4934 	0.049111
40.95 	0.050275 	4913 	0.049440
40.97 	0.049350 	4924 	0.048636
40.99 	0.052193 	4924 	0.051717
41.01 	0.051303 	4912 	0.050707
41.03 	0.055046 	4905 	0.054329
41.05 	0.048015 	4936 	0.047303
41.07 	0.048682 	4930 	0.048206
41.09 	0.050820 	4939 	0.049871
41.11 	0.045390 	4935 	0.044797
41.13 	0.049230 	4936 	0.048755
41.15 	0.048573 	4941 	0.047743
41.17 	0.048439 	4934 	0.047846
41.19 	0.044625 	4930 	0.044149
41.21 	0.049220 	4937 	0.048983
41.23 	0.050213 	4939 	0.049382
41.25 	0.049666 	4933 	0.049191
41.27 	0.051511 	4931 	0.050798
41.29 	0.047484 	4928 	0.046652
41.31 	0.052706 	4933 	0.052113
41.33 	0.051651 	4937 	0.050583
41.35 	0.048400 	4938 	0.047333
41.37 	0.048741 	4924 	0.048384
41.39 	0.053112 	4933 	0.051924
41.41 	0.051157 	4926 	0.049948
41.43 	0.046257 	4929 	0.046019
41.45 	0.050061 	4914 	0.049465
41.47 	0.050954 	4926 	0.050478
41.49 	0.052739 	4892 	0.052021
41.51 	0.051822 	4940 	0.050873
41.53 	0.046723 	4944 	0.046249
41.55 	0.053495 	4935 	0.052783
41.57 	0.048168 	4941 	0.047338
41.59 	0.048247 	4933 	0.047653
41.61 	0.048859 	4953 	0.048150
41.63 	0.051843 	4938 	0.051250
41.65 	0.048894 	4929 	0.048043
41.67 	0.050000 	4940 	0.048657
41.69 	0.051951 	4947 	0.051122
41.71 	0.046007 	4934 	0.045651
41.73 	0.045381 	4936 	0.044787
41.75 	0.047474 	4929 	0.046880
41.77 	0.047359 	4941 	0.046885
41.79 	0.048746 	4944 	0.048154
41.81 	0.049433 	4936 	0.048839
41.83 	0.048093 	4928 	0.046884
41.85 	0.048998 	4939 	0.048286
41.87 	0.048024 	4935 	0.047431
41.89 	0.046625 	4933 	0.045655
41.91 	0.049433 	4936 	0.048721
41.93 	0.046634 	4932 	0.046040
41.95 	0.042588 	4931 	0.042231
41.97 	0.046398 	4914 	0.045802
41.99 	0.054230 	4905 	0.053275
42.01 	0.048968 	4942 	0.048020
42.03 	0.044948 	4939 	0.044593
42.05 	0.046244 	4952 	0.045652
42.07 	0.044967 	4937 	0.044136
42.09 	0.049111 	4948 	0.048263
42.11 	0.041456 	4945 	0.040982
42.13 	0.043074 	4945 	0.042600
42.15 	0.051033 	4938 	0.050321
42.17 	0.051240 	4918 	0.050049
42.19 	0.047677 	4908 	0.047200
42.21 	0.048357 	4901 	0.047760
42.23 	0.046402 	4892 	0.045804
42.25 	0.046431 	4889 	0.045832
42.27 	0.048215 	4874 	0.047854
42.29 	0.045445 	4863 	0.045204
42.31 	0.052111 	4855 	0.051146
42.33 	0.047787 	4834 	0.047302
42.35 	0.042786 	4838 	0.042665
42.37 	0.045342 	4830 	0.044735
42.39 	0.049750 	4804 	0.049141
42.41 	0.049750 	4804 	0.049262
42.43 	0.046119 	4792 	0.045507
42.45 	0.047739 	4776 	0.047371
42.47 	0.044491 	4765 	0.043753
42.49 	0.049948 	4765 	0.049579
42.51 	0.046384 	4743 	0.045520
42.53 	0.040186 	4728 	0.039814
42.55 	0.043755 	4708 	0.043382
42.57 	0.045666 	4730 	0.044923
42.59 	0.045887 	4729 	0.045268
42.61 	0.049915 	4708 	0.049417
42.63 	0.045445 	4709 	0.044823
42.65 	0.049093 	4685 	0.048343
42.67 	0.046328 	4684 	0.045327
42.69 	0.045571 	4674 	0.045321
42.71 	0.047609 	4663 	0.046981
42.73 	0.047414 	4640 	0.046909
42.75 	0.051332 	4617 	0.050444
42.77 	0.042391 	4600 	0.042009
42.79 	0.048450 	4582 	0.047683
42.81 	0.052828 	4562 	0.052442
42.83 	0.042769 	4536 	0.041607
42.85 	0.044390 	4528 	0.043614
42.87 	0.043343 	4499 	0.042562
42.89 	0.049330 	4480 	0.048807
42.91 	0.041966 	4456 	0.041309
42.93 	0.046784 	4446 	0.046652
42.95 	0.042799 	4416 	0.041451
42.97 	0.044763 	4401 	0.044496
42.99 	0.041733 	4385 	0.041332
43.01 	0.049736 	4363 	0.049199
43.03 	0.046157 	4333 	0.045346
43.05 	0.048786 	4325 	0.047973
43.07 	0.048184 	4296 	0.048184
43.09 	0.048097 	4283 	0.048097
43.11 	0.052879 	4255 	0.051893
43.13 	0.049091 	4237 	0.048538
43.15 	0.047789 	4206 	0.047232
43.17 	0.040919 	4179 	0.040078
43.19 	0.047449 	4194 	0.046890
43.21 	0.043384 	4172 	0.042963
43.23 	0.049350 	4154 	0.048786
43.25 	0.044982 	4135 	0.044557
43.27 	0.043118 	4105 	0.042975
43.29 	0.049024 	4100 	0.048167
43.31 	0.044619 	4079 	0.043901
43.33 	0.042459 	4051 	0.041591
43.35 	0.039187 	4032 	0.039041
43.37 	0.044334 	4015 	0.043021
43.39 	0.047226 	4002 	0.046641
43.41 	0.046073 	3972 	0.045335
43.43 	0.037879 	3960 	0.037731
43.45 	0.052097 	3935 	0.051203
43.47 	0.040551 	3921 	0.040401
43.49 	0.044650 	3897 	0.043748
43.51 	0.043848 	3877 	0.043546
43.53 	0.044784 	3863 	0.044481
43.55 	0.048920 	2964 	0.047932
43.57 	0.043342 	2238 	0.043081
43.59 	0.044101 	1746 	0.043765
43.61 	0.053294 	1351 	0.051993
43.63 	0.036963 	1001 	0.035207
43.65 	0.045124 	687 	0.044271
43.67 	0.039841 	502 	0.038674
43.69 	0.029973 	367 	0.029973
43.71 	0.058577 	239 	0.058577
43.73 	0.041667 	120 	0.036785
43.75 	0.125000 	16 	0.125000