File: Example_Data/25SC_s1_0003.002.dat
#F C:\frames\spec\25SC_s1_0003.002
#C title =s:3 frm:2 25SC_s1
#C wavelength =0.15406

#S 1  fr_average C:\frames\spec\25SC_s1_0003.002 C:\win32app\speccom\mask.axs chi 0 180 0 360 0.02
#C 2 theta =0.000000 to 180 deg
#C   q   =0.000000 to 81.568 nm^-1
#C  chi  =0.000000 to 360 deg
#C collumns:
#C  1 position (2theta or chi in degrees)
#C  2 average intensity (sum of all counts in the region divided with number of pixels)
#C  3 Number of pixels in region)
#C  4 error (sum of sqrt(intensity) for all pixels divided by number)
#N 4
#L TTh  Int  N_pix  Err
32.99 	0.049180 	61 	0.049180
33.01 	0.063001 	873 	0.061659
33.03 	0.066139 	1391 	0.066139
33.05 	0.060330 	1757 	0.057996
33.07 	0.055122 	2050 	0.054265
33.09 	0.052833 	2347 	0.052334
33.11 	0.067080 	2579 	0.065945
33.13 	0.063373 	2793 	0.061695
33.15 	0.063354 	2999 	0.061760
33.17 	0.050922 	3201 	0.049458
33.19 	0.055655 	3342 	0.055305
33.21 	0.059371 	3436 	0.058519
33.23 	0.064718 	3523 	0.063554
33.25 	0.063953 	3612 	0.063467
33.27 	0.053444 	3630 	0.052637
33.29 	0.059211 	3648 	0.058729
33.31 	0.059836 	3660 	0.059356
33.33 	0.054531 	3686 	0.054213
33.35 	0.062805 	3694 	0.062329
33.37 	0.064620 	3714 	0.063043
33.39 	0.056047 	3729 	0.055890
33.41 	0.056684 	3740 	0.055275
33.43 	0.063813 	3761 	0.062411
33.45 	0.063345 	3773 	0.062413
33.47 	0.061875 	3798 	0.061103
33.49 	0.062221 	3809 	0.061298
33.51 	0.065007 	3815 	0.064239
33.53 	0.057016 	3841 	0.055466
33.55 	0.057247 	3843 	0.055723
33.57 	0.064483 	3877 	0.063123
33.59 	0.064948 	3880 	0.063892
33.61 	0.059350 	3909 	0.058151
33.63 	0.062261 	3919 	0.062111
33.65 	0.060544 	3931 	0.059650
33.67 	0.060698 	3954 	0.059365
33.69 	0.061219 	3953 	0.059737
33.71 	0.062138 	3975 	0.060959
33.73 	0.053447 	4004 	0.052276
33.75 	0.061515 	3999 	0.059392
33.77 	0.062112 	4025 	0.060511
33.79 	0.053947 	4041 	0.052932
33.81 	0.060178 	4038 	0.059308
33.83 	0.051111 	4050 	0.050533
33.85 	0.060747 	4099 	0.059889
33.87 	0.057893 	4111 	0.056896
33.89 	0.056297 	4121 	0.055871
33.91 	0.052302 	4149 	0.051455
33.93 	0.059745 	4151 	0.058616
33.95 	0.064099 	4181 	0.062956
33.97 	0.058711 	4190 	0.056894
33.99 	0.051905 	4200 	0.051207
34.01 	0.061476 	4213 	0.059669
34.03 	0.062441 	4244 	0.061613
34.05 	0.055503 	4252 	0.054401
34.07 	0.059278 	4268 	0.057906
34.09 	0.055063 	4286 	0.054790
34.11 	0.062064 	4302 	0.061792
34.13 	0.061281 	4308 	0.060579
34.15 	0.058647 	4331 	0.057520
34.17 	0.056552 	4350 	0.055452
34.19 	0.061210 	4362 	0.060539
34.21 	0.064745 	4371 	0.062981
34.23 	0.057592 	4393 	0.056370
34.25 	0.057221 	4404 	0.055891
34.27 	0.055179 	4422 	0.053986
34.29 	0.057046 	4435 	0.055857
34.31 	0.060117 	4458 	0.059065
34.33 	0.056587 	4471 	0.055670
34.35 	0.052186 	4484 	0.051140
34.37 	0.058562 	4491 	0.057518
34.39 	0.060418 	4502 	0.059247
34.41 	0.059434 	4526 	0.058270
34.43 	0.060806 	4539 	0.059516
34.45 	0.065711 	4535 	0.064549
34.47 	0.055096 	4592 	0.054075
34.49 	0.054383 	4597 	0.052854
34.51 	0.058836 	4606 	0.058328
34.53 	0.063321 	4643 	0.062564
34.55 	0.057506 	4643 	0.056118
34.57 	0.059227 	4660 	0.057970
34.59 	0.054759 	4675 	0.053757
34.61 	0.057696 	4697 	0.056823
34.63 	0.062420 	4710 	0.061425
34.65 	0.058250 	4721 	0.057258
34.67 	0.058637 	4741 	0.057896
34.69 	0.064367 	4754 	0.063381
34.71 	0.062526 	4766 	0.061297
34.73 	0.060999 	4787 	0.059897
34.75 	0.056156 	4808 	0.055182
34.77 	0.064757 	4818 	0.063420
34.79 	0.055970 	4824 	0.054027
34.81 	0.054283 	4845 	0.053436
34.83 	0.055327 	4862 	0.055086
34.85 	0.054015 	4869 	0.053414
34.87 	0.054232 	4868 	0.053149
34.89 	0.058173 	4882 	0.056953
34.91 	0.064523 	4882 	0.063923
34.93 	0.066952 	4899 	0.066096
34.95 	0.060736 	4890 	0.059418
34.97 	0.059568 	4902 	0.058492
34.99 	0.055544 	4897 	0.054826
35.01 	0.055860 	4923 	0.055027
35.03 	0.054825 	4943 	0.054232
35.05 	0.059430 	4947 	0.058956
35.07 	0.062348 	4940 	0.061637
35.09 	0.062992 	4953 	0.061809
35.11 	0.054376 	4947 	0.053311
35.13 	0.054457 	4958 	0.053630
35.15 	0.058740 	4937 	0.057435
35.17 	0.063081 	4946 	0.061305
35.19 	0.059288 	4942 	0.058221
35.21 	0.059050 	4945 	0.057628
35.23 	0.065925 	4945 	0.064148
35.25 	0.062917 	4943 	0.061140
35.27 	0.069321 	4948 	0.067782
35.29 	0.060263 	4945 	0.058841
35.31 	0.060409 	4933 	0.059222
35.33 	0.065143 	4943 	0.064076
35.35 	0.066572 	4942 	0.065505
35.37 	0.059931 	4939 	0.058864
35.39 	0.060061 	4945 	0.059468
35.41 	0.060698 	4926 	0.059985
35.43 	0.054936 	4933 	0.053511
35.45 	0.061778 	4937 	0.060473
35.47 	0.057189 	4931 	0.056120
35.49 	0.059063 	4910 	0.057989
35.51 	0.062322 	4926 	0.060895
35.53 	0.063851 	4949 	0.062904
35.55 	0.059656 	4945 	0.058472
35.57 	0.059396 	4933 	0.058327
35.59 	0.055814 	4945 	0.054136
35.61 	0.063739 	4942 	0.062198
35.63 	0.062715 	4943 	0.061767
35.65 	0.063296 	4945 	0.062230
35.67 	0.059692 	4942 	0.058270
35.69 	0.055398 	4946 	0.054806
35.71 	0.060158 	4937 	0.059209
35.73 	0.061588 	4936 	0.060738
35.75 	0.054553 	4931 	0.053484
35.77 	0.061200 	4951 	0.060135
35.79 	0.062044 	4932 	0.061094
35.81 	0.058180 	4933 	0.057111
35.83 	0.056814 	4946 	0.056103
35.85 	0.061601 	4935 	0.060770
35.87 	0.057485 	4923 	0.056890
35.89 	0.060397 	4934 	0.059922
35.91 	0.060280 	4927 	0.058734
35.93 	0.057033 	4927 	0.056676
35.95 	0.057149 	4917 	0.055957
35.97 	0.060261 	4912 	0.059187
35.99 	0.057906 	4939 	0.056246
36.01 	0.058418 	4930 	0.057824
36.03 	0.059680 	4943 	0.058851
36.05 	0.058241 	4945 	0.057530
36.07 	0.057704 	4939 	0.056518
36.09 	0.054251 	4940 	0.053184
36.11 	0.057010 	4929 	0.056059
36.13 	0.065965 	4942 	0.064424
36.15 	0.061753 	4939 	0.061516
36.17 	0.060305 	4925 	0.059591
36.19 	0.066194 	4940 	0.064771
36.21 	0.059444 	4929 	0.058493
36.23 	0.062209 	4935 	0.061022
36.25 	0.058895 	4941 	0.057947
36.27 	0.061320 	4925 	0.059655
36.29 	0.059826 	4931 	0.058856
36.31 	0.064326 	4928 	0.062781
36.33 	0.059193 	4933 	0.058006
36.35 	0.061879 	4929 	0.061284
36.37 	0.055048 	4923 	0.054691
36.39 	0.062386 	4921 	0.061314
36.41 	0.065155 	4896 	0.063241
36.43 	0.064123 	4928 	0.062935
36.45 	0.065517 	4930 	0.064329
36.47 	0.056929 	4936 	0.055722
36.49 	0.055645 	4942 	0.054816
36.51 	0.066491 	4933 	0.064591
36.53 	0.062917 	4943 	0.062562
36.55 	0.056424 	4927 	0.054601
36.57 	0.059384 	4934 	0.058315
36.59 	0.055679 	4939 	0.054612
36.61 	0.064693 	4931 	0.063624
36.63 	0.066315 	4931 	0.064771
36.65 	0.059611 	4932 	0.058542
36.67 	0.057404 	4930 	0.056928
36.69 	0.060053 	4929 	0.059221
36.71 	0.067263 	4921 	0.065477
36.73 	0.064162 	4925 	0.062934
36.75 	0.059871 	4944 	0.058567
36.77 	0.055906 	4919 	0.054596
36.79 	0.048567 	4921 	0.047853
36.81 	0.062042 	4916 	0.061189
36.83 	0.057172 	4915 	0.056218
36.85 	0.056145 	4898 	0.055308
36.87 	0.060073 	4944 	0.059125
36.89 	0.061432 	4916 	0.059526
36.91 	0.057883 	4941 	0.056816
36.93 	0.058012 	4930 	0.056824
36.95 	0.057369 	4933 	0.056775
36.97 	0.055330 	4934 	0.054124
36.99 	0.056332 	4935 	0.055501
37.01 	0.063450 	4933 	0.062263
37.03 	0.059708 	4924 	0.058875
37.05 	0.060483 	4927 	0.059532
37.07 	0.056535 	4935 	0.055328
37.09 	0.065950 	4928 	0.064404
37.11 	0.059574 	4935 	0.058249
37.13 	0.056661 	4924 	0.056304
37.15 	0.058464 	4909 	0.057867
37.17 	0.055533 	4934 	0.054346
37.19 	0.060305 	4925 	0.059452
37.21 	0.056945 	4917 	0.056111
37.23 	0.056324 	4918 	0.055371
37.25 	0.053146 	4911 	0.052192
37.27 	0.047814 	4894 	0.046976
37.29 	0.048884 	4930 	0.048171
37.31 	0.056940 	4935 	0.056584
37.33 	0.059265 	4927 	0.058671
37.35 	0.055488 	4938 	0.054302
37.37 	0.059062 	4927 	0.058349
37.39 	0.058406 	4931 	0.057456
37.41 	0.056986 	4931 	0.056274
37.43 	0.058191 	4932 	0.057241
37.45 	0.056052 	4924 	0.054962
37.47 	0.049909 	4929 	0.049077
37.49 	0.055251 	4923 	0.054418
37.51 	0.054125 	4933 	0.053294
37.53 	0.053263 	4919 	0.052548
37.55 	0.058215 	4930 	0.056651
37.57 	0.053604 	4925 	0.052890
37.59 	0.053713 	4915 	0.053475
37.61 	0.051808 	4922 	0.050479
37.63 	0.050010 	4919 	0.049177
37.65 	0.055104 	4918 	0.054032
37.67 	0.051183 	4904 	0.050347
37.69 	0.058800 	4898 	0.057723
37.71 	0.050923 	4929 	0.050448
37.73 	0.053358 	4929 	0.052526
37.75 	0.054453 	4940 	0.053386
37.77 	0.049187 	4920 	0.048215
37.79 	0.055172 	4930 	0.054697
37.81 	0.056152 	4933 	0.055559
37.83 	0.056301 	4920 	0.055586
37.85 	0.058919 	4922 	0.058086
37.87 	0.053857 	4939 	0.052908
37.89 	0.055025 	4925 	0.053579
37.91 	0.051927 	4930 	0.050976
37.93 	0.054686 	4919 	0.053614
37.95 	0.053851 	4921 	0.052899
37.97 	0.048489 	4929 	0.048132
37.99 	0.052932 	4912 	0.052455
38.01 	0.056818 	4928 	0.055511
38.03 	0.056834 	4909 	0.055283
38.05 	0.053604 	4925 	0.052890
38.07 	0.053982 	4909 	0.053386
38.09 	0.055351 	4878 	0.054750
38.11 	0.054306 	4935 	0.053594
38.13 	0.052664 	4937 	0.051339
38.15 	0.053477 	4918 	0.052128
38.17 	0.055578 	4930 	0.054984
38.19 	0.051116 	4930 	0.050403
38.21 	0.058298 	4923 	0.057703
38.23 	0.056298 	4938 	0.055586
38.25 	0.054301 	4917 	0.053467
38.27 	0.058621 	4930 	0.057769
38.29 	0.061738 	4924 	0.060648
38.31 	0.058453 	4927 	0.056888
38.33 	0.062348 	4924 	0.061396
38.35 	0.062094 	4928 	0.060549
38.37 	0.066206 	4924 	0.065354
38.39 	0.069872 	4909 	0.068559
38.41 	0.065814 	4923 	0.064743
38.43 	0.057974 	4916 	0.056663
38.45 	0.066694 	4918 	0.065384
38.47 	0.067047 	4907 	0.065853
38.49 	0.061103 	4877 	0.059522
38.51 	0.072182 	4932 	0.071469
38.53 	0.070603 	4929 	0.069176
38.55 	0.065843 	4936 	0.065131
38.57 	0.068657 	4923 	0.067110
38.59 	0.061535 	4924 	0.060703
38.61 	0.065640 	4936 	0.064691
38.63 	0.062348 	4924 	0.060544
38.65 	0.065474 	4918 	0.064164
38.67 	0.054284 	4937 	0.053216
38.69 	0.060544 	4922 	0.059116
38.71 	0.056255 	4924 	0.055303
38.73 	0.059170 	4918 	0.058337
38.75 	0.062716 	4927 	0.062002
38.77 	0.056267 	4923 	0.055196
38.79 	0.053506 	4934 	0.051963
38.81 	0.055578 	4912 	0.055101
38.83 	0.053060 	4919 	0.052821
38.85 	0.052932 	4912 	0.051719
38.87 	0.054571 	4911 	0.053617
38.89 	0.047989 	4897 	0.046773
38.91 	0.054456 	4903 	0.053859
38.93 	0.053260 	4938 	0.052549
38.95 	0.049614 	4918 	0.048661
38.97 	0.051714 	4931 	0.050526
38.99 	0.046182 	4937 	0.045470
39.01 	0.055714 	4918 	0.054999
39.03 	0.047021 	4934 	0.046190
39.05 	0.047919 	4925 	0.047305
39.07 	0.043461 	4924 	0.042985
39.09 	0.047735 	4923 	0.046883
39.11 	0.049483 	4931 	0.048889
39.13 	0.044688 	4923 	0.043974
39.15 	0.051068 	4915 	0.050591
39.17 	0.053271 	4937 	0.053034
39.19 	0.044336 	4917 	0.043740
39.21 	0.042566 	4910 	0.041731
39.23 	0.045482 	4925 	0.044650
39.25 	0.044900 	4922 	0.044543
39.27 	0.048473 	4910 	0.048115
39.29 	0.043665 	4901 	0.042469
39.31 	0.040336 	4884 	0.039496
39.33 	0.044413 	4931 	0.044057
39.35 	0.049037 	4935 	0.048207
39.37 	0.045445 	4929 	0.044851
39.39 	0.047068 	4929 	0.045880
39.41 	0.046644 	4931 	0.046168
39.43 	0.045408 	4933 	0.044914
39.45 	0.045888 	4925 	0.045393
39.47 	0.043266 	4923 	0.042433
39.49 	0.055950 	4933 	0.055237
39.51 	0.048741 	4924 	0.048146
39.53 	0.044282 	4923 	0.043925
39.55 	0.047164 	4919 	0.046688
39.57 	0.048652 	4933 	0.047821
39.59 	0.043974 	4912 	0.043139
39.61 	0.046516 	4923 	0.046040
39.63 	0.046323 	4922 	0.046085
39.65 	0.049127 	4926 	0.048770
39.67 	0.048443 	4913 	0.047608
39.69 	0.048007 	4916 	0.047411
39.71 	0.050460 	4895 	0.050220
39.73 	0.049511 	4908 	0.048417
39.75 	0.043425 	4928 	0.042693
39.77 	0.047214 	4935 	0.046264
39.79 	0.046691 	4926 	0.046215
39.81 	0.047696 	4927 	0.047201
39.83 	0.045805 	4934 	0.045448
39.85 	0.051756 	4927 	0.051042
39.87 	0.051371 	4925 	0.050657
39.89 	0.050263 	4934 	0.049789
39.91 	0.046932 	4922 	0.046575
39.93 	0.045574 	4937 	0.044981
39.95 	0.044354 	4915 	0.043401
39.97 	0.044440 	4928 	0.043608
39.99 	0.046837 	4932 	0.046243
40.01 	0.049410 	4918 	0.048696
40.03 	0.046672 	4928 	0.045721
40.05 	0.041489 	4917 	0.040893
40.07 	0.045298 	4923 	0.044227
40.09 	0.042107 	4916 	0.041988
40.11 	0.046786 	4916 	0.046309
40.13 	0.043913 	4896 	0.043554
40.15 	0.046611 	4913 	0.045657
40.17 	0.049716 	4928 	0.049122
40.19 	0.048691 	4929 	0.047503
40.21 	0.046201 	4935 	0.045726
40.23 	0.045215 	4932 	0.044740
40.25 	0.044309 	4920 	0.043833
40.27 	0.040308 	4937 	0.039952
40.29 	0.046479 	4927 	0.045032
40.31 	0.045758 	4939 	0.045047
40.33 	0.045215 	4932 	0.044502
40.35 	0.046554 	4919 	0.045959
40.37 	0.040373 	4929 	0.040136
40.39 	0.046846 	4931 	0.046371
40.41 	0.047716 	4925 	0.047121
40.43 	0.044291 	4922 	0.043438
40.45 	0.045611 	4933 	0.044542
40.47 	0.042090 	4918 	0.041852
40.49 	0.048518 	4926 	0.047686
40.51 	0.044697 	4922 	0.043983
40.53 	0.044142 	4916 	0.043665
40.55 	0.049307 	4908 	0.048352
40.57 	0.049693 	4890 	0.049094
40.59 	0.040105 	4937 	0.039749
40.61 	0.045795 	4935 	0.045083
40.63 	0.051116 	4930 	0.050046
40.65 	0.049220 	4937 	0.048271
40.67 	0.044404 	4932 	0.043810
40.69 	0.043549 	4937 	0.042955
40.71 	0.041565 	4932 	0.041209
40.73 	0.042631 	4926 	0.041680
40.75 	0.045021 	4931 	0.044051
40.77 	0.047783 	4939 	0.047071
40.79 	0.045085 	4924 	0.044728
40.81 	0.042097 	4941 	0.041741
40.83 	0.040787 	4928 	0.039955
40.85 	0.049147 	4924 	0.048671
40.87 	0.046469 	4928 	0.045994
40.89 	0.047455 	4931 	0.046485
40.91 	0.049563 	4923 	0.049563
40.93 	0.041346 	4934 	0.040752
40.95 	0.051292 	4913 	0.050935
40.97 	0.046101 	4924 	0.045506
40.99 	0.043664 	4924 	0.043069
41.01 	0.054357 	4912 	0.053264
41.03 	0.046279 	4905 	0.045802
41.05 	0.043760 	4936 	0.043285
41.07 	0.040365 	4930 	0.040246
41.09 	0.039077 	4939 	0.038840
41.11 	0.044782 	4935 	0.044426
41.13 	0.046799 	4936 	0.045612
41.15 	0.046549 	4941 	0.045719
41.17 	0.045805 	4934 	0.045211
41.19 	0.046045 	4930 	0.045807
41.21 	0.042941 	4937 	0.042585
41.23 	0.038874 	4939 	0.038400
41.25 	0.045003 	4933 	0.044291
41.27 	0.044007 	4931 	0.043532
41.29 	0.043222 	4928 	0.042747
41.31 	0.040341 	4933 	0.040103
41.33 	0.049423 	4937 	0.048691
41.35 	0.042527 	4938 	0.041816
41.37 	0.046710 	4924 	0.046234
41.39 	0.041151 	4933 	0.040320
41.41 	0.045067 	4926 	0.044591
41.43 	0.042199 	4929 	0.041486
41.45 	0.039276 	4914 	0.038799
41.47 	0.035932 	4926 	0.035694
41.49 	0.042927 	4892 	0.042568
41.51 	0.046154 	4940 	0.045798
41.53 	0.044094 	4944 	0.043857
41.55 	0.037690 	4935 	0.037215
41.57 	0.036430 	4941 	0.035719
41.59 	0.042773 	4933 	0.042061
41.61 	0.046033 	4953 	0.045087
41.63 	0.043742 	4938 	0.043505
41.65 	0.043011 	4929 	0.042298
41.67 	0.038664 	4940 	0.038308
41.69 	0.043865 	4947 	0.043510
41.71 	0.043575 	4934 	0.042744
41.73 	0.038695 	4936 	0.038339
41.75 	0.041185 	4929 	0.040947
41.77 	0.044728 	4941 	0.044609
41.79 	0.045510 	4944 	0.044799
41.81 	0.048622 	4936 	0.048148
41.83 	0.042208 	4928 	0.041613
41.85 	0.040494 	4939 	0.040257
41.87 	0.036272 	4935 	0.035559
41.89 	0.041760 	4933 	0.040810
41.91 	0.045178 	4936 	0.044466
41.93 	0.045620 	4932 	0.045027
41.95 	0.036098 	4931 	0.035861
41.97 	0.040293 	4914 	0.039578
41.99 	0.038532 	4905 	0.038293
42.01 	0.041886 	4942 	0.041412
42.03 	0.040696 	4939 	0.040203
42.05 	0.048869 	4952 	0.047686
42.07 	0.044359 	4937 	0.043528
42.09 	0.045675 	4948 	0.045083
42.11 	0.036603 	4945 	0.036484
42.13 	0.044692 	4945 	0.043981
42.15 	0.039692 	4938 	0.039336
42.17 	0.037414 	4918 	0.037294
42.19 	0.042584 	4908 	0.042345
42.21 	0.040196 	4901 	0.040076
42.23 	0.042927 	4892 	0.042209
42.25 	0.043772 	4889 	0.043292
42.27 	0.042675 	4874 	0.042074
42.29 	0.042772 	4863 	0.042531
42.31 	0.040783 	4855 	0.040300
42.33 	0.039305 	4834 	0.038699
42.35 	0.037205 	4838 	0.036600
42.37 	0.043478 	4830 	0.042629
42.39 	0.042256 	4804 	0.041891
42.41 	0.040383 	4804 	0.040139
42.43 	0.039649 	4792 	0.039283
42.45 	0.045017 	4776 	0.044771
42.47 	0.037356 	4765 	0.036495
42.49 	0.044911 	4765 	0.044419
42.51 	0.044276 	4743 	0.043905
42.53 	0.041032 	4728 	0.040372
42.55 	0.038870 	4708 	0.038103
42.57 	0.041015 	4730 	0.041015
42.59 	0.038697 	4729 	0.038326
42.61 	0.042906 	4708 	0.042159
42.63 	0.044171 	4709 	0.043549
42.65 	0.040982 	4685 	0.040482
42.67 	0.038642 	4684 	0.037892
42.69 	0.038939 	4674 	0.038041
42.71 	0.039674 	4663 	0.039172
42.73 	0.040517 	4640 	0.040391
42.75 	0.038553 	4617 	0.038426
42.77 	0.033696 	4600 	0.033293
42.79 	0.039939 	4582 	0.039428
42.81 	0.038360 	4562 	0.037847
42.83 	0.039683 	4536 	0.039295
42.85 	0.043728 	4528 	0.043210
42.87 	0.037564 	4499 	0.037173
42.89 	0.039063 	4480 	0.038801
42.91 	0.046454 	4456 	0.045928
42.93 	0.042735 	4446 	0.042472
42.95 	0.041440 	4416 	0.040777
42.97 	0.042490 	4401 	0.042357
42.99 	0.045382 	4385 	0.045115
43.01 	0.037589 	4363 	0.037320
43.03 	0.044311 	4333 	0.043906
43.05 	0.038613 	4325 	0.038206
43.07 	0.041899 	4296 	0.041899
43.09 	0.042494 	4283 	0.041810
43.11 	0.042773 	4255 	0.042360
43.13 	0.040831 	4237 	0.040117
43.15 	0.039943 	4206 	0.039664
43.17 	0.034937 	4179 	0.034796
43.19 	0.034573 	4194 	0.034573
43.21 	0.036433 	4172 	0.035872
43.23 	0.039480 	4154 	0.038916
43.25 	0.044498 	4135 	0.044215
43.27 	0.036541 	4105 	0.036113
43.29 	0.045122 	4100 	0.044122
43.31 	0.039961 	4079 	0.039817
43.33 	0.032338 	4051 	0.032048
43.35 	0.039187 	4032 	0.039041
43.37 	0.039352 	4015 	0.039061
43.39 	0.039730 	4002 	0.038998
43.41 	0.041037 	3972 	0.040595
43.43 	0.037374 	3960 	0.037226
43.45 	0.038374 	3935 	0.037778
43.47 	0.043866 	3921 	0.043269
43.49 	0.038235 	3897 	0.037934
43.51 	0.037142 	3877 	0.035933
43.53 	0.037277 	3863 	0.036973
43.55 	0.038799 	2964 	0.038404
43.57 	0.035299 	2238 	0.034252
43.59 	0.039519 	1746 	0.039519
43.61 	0.045892 	1351 	0.045458
43.63 	0.034965 	1001 	0.034965
43.65 	0.023290 	687 	0.023290
43.67 	0.031873 	502 	0.031873
43.69 	0.043597 	367 	0.043597
43.71 	0.041841 	239 	0.039390
43.73 	0.066667 	120 	0.066667
43.75 	0.062500 	16 	0.062500