File: Example_Data/25SC_s1_0031.004.dat
#F C:\frames\spec\25SC_s1_0031.004
#C title =s:31 frm:4 25SC_s1
#C wavelength =0.15406

#S 1  fr_average C:\frames\spec\25SC_s1_0031.004 C:\win32app\speccom\mask.axs chi 0 180 0 360 0.02
#C 2 theta =0.000000 to 180 deg
#C   q   =0.000000 to 81.568 nm^-1
#C  chi  =0.000000 to 360 deg
#C collumns:
#C  1 position (2theta or chi in degrees)
#C  2 average intensity (sum of all counts in the region divided with number of pixels)
#C  3 Number of pixels in region)
#C  4 error (sum of sqrt(intensity) for all pixels divided by number)
#N 4
#L TTh  Int  N_pix  Err
32.99 	0.049180 	61 	0.049180
33.01 	0.073310 	873 	0.071968
33.03 	0.050324 	1391 	0.048991
33.05 	0.067160 	1757 	0.064826
33.07 	0.063902 	2050 	0.063331
33.09 	0.054112 	2347 	0.053113
33.11 	0.060876 	2579 	0.059968
33.13 	0.061583 	2793 	0.059905
33.15 	0.054018 	2999 	0.053237
33.17 	0.059356 	3201 	0.057709
33.19 	0.059246 	3342 	0.058194
33.21 	0.053842 	3436 	0.052819
33.23 	0.051661 	3523 	0.050663
33.25 	0.057032 	3612 	0.056221
33.27 	0.052342 	3630 	0.051535
33.29 	0.055647 	3648 	0.055005
33.31 	0.056284 	3660 	0.055644
33.33 	0.053988 	3686 	0.053008
33.35 	0.064970 	3694 	0.064177
33.37 	0.055466 	3714 	0.054677
33.39 	0.060606 	3729 	0.059324
33.41 	0.060963 	3740 	0.060336
33.43 	0.055570 	3761 	0.055077
33.45 	0.075802 	3773 	0.074560
33.47 	0.055819 	3798 	0.054405
33.49 	0.053032 	3809 	0.052263
33.51 	0.059502 	3815 	0.059502
33.53 	0.058318 	3841 	0.056920
33.55 	0.057507 	3843 	0.057050
33.57 	0.066804 	3877 	0.065444
33.59 	0.062371 	3880 	0.060861
33.61 	0.058327 	3909 	0.057877
33.63 	0.060985 	3919 	0.059939
33.65 	0.060290 	3931 	0.059247
33.67 	0.065250 	3954 	0.064213
33.69 	0.059954 	3953 	0.059214
33.71 	0.052327 	3975 	0.051738
33.73 	0.059940 	4004 	0.059501
33.75 	0.060015 	3999 	0.058966
33.77 	0.054907 	4025 	0.054470
33.79 	0.059391 	4041 	0.058521
33.81 	0.061912 	4038 	0.061186
33.83 	0.059259 	4050 	0.058391
33.85 	0.067090 	4099 	0.066089
33.87 	0.055704 	4111 	0.054849
33.89 	0.053385 	4121 	0.052674
33.91 	0.057845 	4149 	0.056834
33.93 	0.053963 	4151 	0.053116
33.95 	0.057642 	4181 	0.057081
33.97 	0.063962 	4190 	0.062564
33.99 	0.062619 	4200 	0.061201
34.01 	0.063850 	4213 	0.062877
34.03 	0.062912 	4244 	0.061670
34.05 	0.055738 	4252 	0.055325
34.07 	0.060450 	4268 	0.059467
34.09 	0.059729 	4286 	0.058909
34.11 	0.057648 	4302 	0.056558
34.13 	0.057799 	4308 	0.056440
34.15 	0.061418 	4331 	0.060336
34.17 	0.058161 	4350 	0.056814
34.19 	0.062357 	4362 	0.061551
34.21 	0.054221 	4371 	0.053417
34.23 	0.056453 	4393 	0.055387
34.25 	0.057221 	4404 	0.056024
34.27 	0.062867 	4422 	0.062073
34.29 	0.063360 	4435 	0.062039
34.31 	0.054284 	4458 	0.053102
34.33 	0.061060 	4471 	0.060252
34.35 	0.053524 	4484 	0.052609
34.37 	0.059007 	4491 	0.056920
34.39 	0.056197 	4502 	0.055417
34.41 	0.058772 	4526 	0.058513
34.43 	0.059925 	4539 	0.058505
34.45 	0.058655 	4535 	0.057622
34.47 	0.056620 	4592 	0.055089
34.49 	0.063302 	4597 	0.061900
34.51 	0.061224 	4606 	0.059148
34.53 	0.065475 	4643 	0.064466
34.55 	0.060737 	4643 	0.059727
34.57 	0.060086 	4660 	0.058829
34.59 	0.056471 	4675 	0.055176
34.61 	0.056206 	4697 	0.054834
34.63 	0.058174 	4710 	0.057677
34.65 	0.056344 	4721 	0.055848
34.67 	0.063489 	4741 	0.062624
34.69 	0.057005 	4754 	0.055999
34.71 	0.055602 	4766 	0.054742
34.73 	0.059327 	4787 	0.058593
34.75 	0.060108 	4808 	0.059499
34.77 	0.057700 	4818 	0.057336
34.79 	0.056385 	4824 	0.055413
34.81 	0.055315 	4845 	0.055073
34.83 	0.057589 	4862 	0.056264
34.85 	0.055042 	4869 	0.054080
34.87 	0.057724 	4868 	0.057243
34.89 	0.059812 	4882 	0.058972
34.91 	0.062270 	4882 	0.060470
34.93 	0.050214 	4899 	0.049856
34.95 	0.052556 	4890 	0.051598
34.97 	0.058752 	4902 	0.057318
34.99 	0.056157 	4897 	0.054721
35.01 	0.060735 	4923 	0.059307
35.03 	0.053004 	4943 	0.052412
35.05 	0.061249 	4947 	0.060065
35.07 	0.052024 	4940 	0.050957
35.09 	0.053301 	4953 	0.052591
35.11 	0.058217 	4947 	0.057388
35.13 	0.055466 	4958 	0.054757
35.15 	0.052461 	4937 	0.051630
35.17 	0.064497 	4946 	0.062720
35.19 	0.060097 	4942 	0.058793
35.21 	0.061678 	4945 	0.060257
35.23 	0.065723 	4945 	0.064420
35.25 	0.054623 	4943 	0.053319
35.27 	0.059620 	4948 	0.059028
35.29 	0.052983 	4945 	0.052391
35.31 	0.064667 	4933 	0.063717
35.33 	0.054016 	4943 	0.053186
35.35 	0.059490 	4942 	0.058186
35.37 	0.059324 	4939 	0.058256
35.39 	0.061678 	4945 	0.060593
35.41 	0.063743 	4926 	0.062792
35.43 	0.057166 	4933 	0.056335
35.45 	0.062589 	4937 	0.061402
35.47 	0.058203 	4931 	0.057015
35.49 	0.056415 	4910 	0.055322
35.51 	0.060495 	4926 	0.060020
35.53 	0.052132 	4949 	0.051422
35.55 	0.049343 	4945 	0.048632
35.57 	0.058382 	4933 	0.057195
35.59 	0.065925 	4945 	0.064741
35.61 	0.054027 	4942 	0.053078
35.63 	0.056848 	4943 	0.056256
35.65 	0.059050 	4945 	0.057628
35.67 	0.062525 	4942 	0.060728
35.69 	0.057622 	4946 	0.055490
35.71 	0.058740 	4937 	0.058384
35.73 	0.057131 	4936 	0.056657
35.75 	0.054958 	4931 	0.054602
35.77 	0.054534 	4951 	0.054298
35.79 	0.058800 	4932 	0.057968
35.81 	0.051895 	4933 	0.051064
35.83 	0.065912 	4946 	0.064727
35.85 	0.054509 	4935 	0.053678
35.87 	0.057282 	4923 	0.056211
35.89 	0.053709 	4934 	0.052997
35.91 	0.058859 	4927 	0.058027
35.93 	0.055612 	4927 	0.055017
35.95 	0.060199 	4917 	0.059346
35.97 	0.060464 	4912 	0.059152
35.99 	0.057097 	4939 	0.056385
36.01 	0.054158 	4930 	0.053089
36.03 	0.062715 	4943 	0.061056
36.05 	0.055207 	4945 	0.053904
36.07 	0.059729 	4939 	0.058424
36.09 	0.059514 	4940 	0.058190
36.11 	0.050314 	4929 	0.049087
36.13 	0.057871 	4942 	0.056923
36.15 	0.059324 	4939 	0.058375
36.17 	0.055431 	4925 	0.054837
36.19 	0.057085 	4940 	0.056136
36.21 	0.056807 	4929 	0.056094
36.23 	0.059980 	4935 	0.058555
36.25 	0.058693 	4941 	0.057744
36.27 	0.058071 	4925 	0.057120
36.29 	0.051916 	4931 	0.051204
36.31 	0.054180 	4928 	0.053229
36.33 	0.060409 	4933 	0.058747
36.35 	0.053155 	4929 	0.052561
36.37 	0.059720 	4923 	0.059125
36.39 	0.061776 	4921 	0.060566
36.41 	0.051062 	4896 	0.050584
36.43 	0.059050 	4928 	0.058456
36.45 	0.059635 	4930 	0.058803
36.47 	0.058347 	4936 	0.057279
36.49 	0.050789 	4942 	0.050315
36.51 	0.053112 	4933 	0.052043
36.53 	0.058669 	4943 	0.057227
36.55 	0.053176 	4927 	0.052463
36.57 	0.054114 	4934 	0.053046
36.59 	0.054060 	4939 	0.053467
36.61 	0.052930 	4931 	0.051624
36.63 	0.050497 	4931 	0.050022
36.65 	0.056164 	4932 	0.054620
36.67 	0.053955 	4930 	0.052866
36.69 	0.053561 	4929 	0.052610
36.71 	0.055273 	4921 	0.054420
36.73 	0.050964 	4925 	0.050489
36.75 	0.055218 	4944 	0.054745
36.77 	0.054483 	4919 	0.054125
36.79 	0.055477 	4921 	0.054524
36.81 	0.060618 	4916 	0.059407
36.83 	0.055748 	4915 	0.054913
36.85 	0.054512 	4898 	0.053038
36.87 	0.052387 	4944 	0.051676
36.89 	0.054516 	4916 	0.053682
36.91 	0.055859 	4941 	0.054911
36.93 	0.054767 	4930 	0.054054
36.95 	0.051287 	4933 	0.050694
36.97 	0.055938 	4934 	0.054632
36.99 	0.053090 	4935 	0.051310
37.01 	0.054531 	4933 	0.053937
37.03 	0.058692 	4924 	0.057126
37.05 	0.049117 	4927 	0.048285
37.07 	0.060385 	4935 	0.058605
37.09 	0.050933 	4928 	0.050220
37.11 	0.056332 	4935 	0.055739
37.13 	0.060317 	4924 	0.059365
37.15 	0.061723 	4909 	0.061007
37.17 	0.051480 	4934 	0.050767
37.19 	0.050761 	4925 	0.050286
37.21 	0.057149 	4917 	0.056434
37.23 	0.059577 	4918 	0.058743
37.25 	0.055589 	4911 	0.054397
37.27 	0.056600 	4894 	0.056361
37.29 	0.056795 	4930 	0.056201
37.31 	0.052888 	4935 	0.052413
37.33 	0.057236 	4927 	0.056047
37.35 	0.053058 	4938 	0.052228
37.37 	0.059265 	4927 	0.058671
37.39 	0.049888 	4931 	0.049176
37.41 	0.056986 	4931 	0.055423
37.43 	0.050284 	4932 	0.049809
37.45 	0.056052 	4924 	0.054862
37.47 	0.051532 	4929 	0.050819
37.49 	0.057688 	4923 	0.056499
37.51 	0.054936 	4933 	0.054342
37.53 	0.054686 	4919 	0.053733
37.55 	0.050710 	4930 	0.050235
37.57 	0.058477 	4925 	0.057744
37.59 	0.049440 	4915 	0.048845
37.61 	0.057903 	4922 	0.057070
37.63 	0.059972 	4919 	0.058781
37.65 	0.050834 	4918 	0.050119
37.67 	0.048940 	4904 	0.048342
37.69 	0.051450 	4898 	0.050612
37.71 	0.054981 	4929 	0.054268
37.73 	0.054372 	4929 	0.053184
37.75 	0.050607 	4940 	0.049896
37.77 	0.045325 	4920 	0.044849
37.79 	0.054361 	4930 	0.053648
37.81 	0.051085 	4933 	0.050253
37.83 	0.045935 	4920 	0.045459
37.85 	0.058310 	4922 	0.057358
37.87 	0.051427 	4939 	0.050953
37.89 	0.053198 	4925 	0.052484
37.91 	0.055375 	4930 	0.054544
37.93 	0.052043 	4919 	0.051448
37.95 	0.053851 	4921 	0.053256
37.97 	0.047677 	4929 	0.046588
37.99 	0.056393 	4912 	0.055319
38.01 	0.055398 	4928 	0.054685
38.03 	0.052353 	4909 	0.051637
38.05 	0.058274 	4925 	0.056946
38.07 	0.059075 	4909 	0.057882
38.09 	0.052071 	4878 	0.051350
38.11 	0.060182 	4935 	0.058877
38.13 	0.056917 	4937 	0.055256
38.15 	0.061204 	4918 	0.059993
38.17 	0.056187 	4930 	0.055830
38.19 	0.065112 	4930 	0.064042
38.21 	0.063782 	4923 	0.062354
38.23 	0.064399 	4938 	0.062975
38.25 	0.059996 	4917 	0.059043
38.27 	0.056795 	4930 	0.056082
38.29 	0.059098 	4924 	0.058503
38.31 	0.063122 	4927 	0.061438
38.33 	0.061738 	4924 	0.061144
38.35 	0.061688 	4928 	0.060381
38.37 	0.059504 	4924 	0.058672
38.39 	0.078427 	4909 	0.076876
38.41 	0.064595 	4923 	0.063524
38.43 	0.058381 	4916 	0.057428
38.45 	0.069134 	4918 	0.067943
38.47 	0.063786 	4907 	0.062354
38.49 	0.067665 	4877 	0.066223
38.51 	0.060827 	4932 	0.059521
38.53 	0.064313 	4929 	0.062491
38.55 	0.063209 	4936 	0.061884
38.57 	0.063376 	4923 	0.062048
38.59 	0.054630 	4924 	0.053798
38.61 	0.060170 	4936 	0.058845
38.63 	0.058692 	4924 	0.057740
38.65 	0.061204 	4918 	0.060251
38.67 	0.060361 	4937 	0.059530
38.69 	0.065827 	4922 	0.065470
38.71 	0.053818 	4924 	0.053223
38.73 	0.050630 	4918 	0.050273
38.75 	0.059874 	4927 	0.058923
38.77 	0.051798 	4923 	0.051084
38.79 	0.060600 	4934 	0.059294
38.81 	0.062296 	4912 	0.061104
38.83 	0.056516 	4919 	0.055563
38.85 	0.054764 	4912 	0.054406
38.87 	0.053553 	4911 	0.053434
38.89 	0.056974 	4897 	0.055897
38.91 	0.059351 	4903 	0.058396
38.93 	0.047995 	4938 	0.047402
38.95 	0.054900 	4918 	0.053947
38.97 	0.049077 	4931 	0.048226
38.99 	0.052664 	4937 	0.052070
39.01 	0.058154 	4918 	0.057320
39.03 	0.054925 	4934 	0.053975
39.05 	0.049746 	4925 	0.049033
39.07 	0.053615 	4924 	0.053258
39.09 	0.049360 	4923 	0.048765
39.11 	0.050700 	4931 	0.049749
39.13 	0.056267 	4923 	0.055196
39.15 	0.052696 	4915 	0.051981
39.17 	0.059348 	4937 	0.058399
39.19 	0.050641 	4917 	0.050522
39.21 	0.046029 	4910 	0.045909
39.23 	0.052589 	4925 	0.051975
39.25 	0.056481 	4922 	0.055767
39.27 	0.055193 	4910 	0.054000
39.29 	0.052846 	4901 	0.051532
39.31 	0.051802 	4884 	0.050962
39.33 	0.050700 	4931 	0.049868
39.35 	0.054306 	4935 	0.053594
39.37 	0.054778 	4929 	0.053946
39.39 	0.053763 	4929 	0.053288
39.41 	0.057595 	4931 	0.056763
39.43 	0.059801 	4933 	0.058970
39.45 	0.062741 	4925 	0.061433
39.47 	0.055657 	4923 	0.054824
39.49 	0.047841 	4933 	0.047010
39.51 	0.055240 	4924 	0.054407
39.53 	0.053829 	4923 	0.052758
39.55 	0.051840 	4919 	0.051006
39.57 	0.056355 	4933 	0.055405
39.59 	0.055171 	4912 	0.054694
39.61 	0.053220 	4923 	0.052506
39.63 	0.058513 	4922 	0.056847
39.65 	0.052984 	4926 	0.052627
39.67 	0.054346 	4913 	0.053134
39.69 	0.059194 	4916 	0.058241
39.71 	0.053728 	4895 	0.052991
39.73 	0.052363 	4908 	0.051389
39.75 	0.053166 	4928 	0.052334
39.77 	0.055117 	4935 	0.054029
39.79 	0.050345 	4926 	0.049493
39.81 	0.051959 	4927 	0.051126
39.83 	0.054520 	4934 	0.053689
39.85 	0.055612 	4927 	0.054661
39.87 	0.050558 	4925 	0.049845
39.89 	0.059587 	4934 	0.057430
39.91 	0.057294 	4922 	0.056223
39.93 	0.053676 	4937 	0.052964
39.95 	0.050254 	4915 	0.048824
39.97 	0.051948 	4928 	0.051116
39.99 	0.049676 	4932 	0.049200
40.01 	0.058154 	4918 	0.057558
40.03 	0.051542 	4928 	0.051423
40.05 	0.059589 	4917 	0.058636
40.07 	0.056470 	4923 	0.055141
40.09 	0.050041 	4916 	0.049207
40.11 	0.056347 	4916 	0.055989
40.13 	0.050449 	4896 	0.049712
40.15 	0.050275 	4913 	0.049679
40.17 	0.053977 	4928 	0.053502
40.19 	0.054778 	4929 	0.053589
40.21 	0.050456 	4935 	0.049744
40.23 	0.055556 	4932 	0.054348
40.25 	0.054675 	4920 	0.053841
40.27 	0.048005 	4937 	0.047768
40.29 	0.055409 	4927 	0.054339
40.31 	0.049808 	4939 	0.049452
40.33 	0.056367 	4932 	0.055654
40.35 	0.057939 	4919 	0.057105
40.37 	0.050923 	4929 	0.049972
40.39 	0.055364 	4931 	0.054532
40.41 	0.053198 	4925 	0.052246
40.43 	0.056684 	4922 	0.055494
40.45 	0.055342 	4933 	0.054392
40.47 	0.049410 	4918 	0.049172
40.49 	0.053999 	4926 	0.052810
40.51 	0.051199 	4922 	0.050723
40.53 	0.049227 	4916 	0.048631
40.55 	0.058272 	4908 	0.056482
40.57 	0.053579 	4890 	0.052740
40.59 	0.056309 	4937 	0.055954
40.61 	0.047011 	4935 	0.046655
40.63 	0.050101 	4930 	0.048913
40.65 	0.052056 	4937 	0.051324
40.67 	0.051095 	4932 	0.050145
40.69 	0.052664 	4937 	0.052308
40.71 	0.055758 	4932 	0.054808
40.73 	0.052375 	4926 	0.051781
40.75 	0.054756 	4931 	0.053686
40.77 	0.053452 	4939 	0.052385
40.79 	0.047319 	4924 	0.046962
40.81 	0.053228 	4941 	0.052754
40.83 	0.048701 	4928 	0.047988
40.85 	0.049147 	4924 	0.047957
40.87 	0.056209 	4928 	0.055258
40.89 	0.050497 	4931 	0.050140
40.91 	0.046516 	4923 	0.045802
40.93 	0.055533 	4934 	0.055058
40.95 	0.049664 	4913 	0.049306
40.97 	0.052193 	4924 	0.051361
40.99 	0.049350 	4924 	0.048874
41.01 	0.052321 	4912 	0.051605
41.03 	0.051376 	4905 	0.050779
41.05 	0.047812 	4936 	0.046863
41.07 	0.051116 	4930 	0.050522
41.09 	0.047783 	4939 	0.046933
41.11 	0.052077 	4935 	0.051246
41.13 	0.053890 	4936 	0.053059
41.15 	0.054240 	4941 	0.052916
41.17 	0.047831 	4934 	0.047713
41.19 	0.051521 	4930 	0.050690
41.21 	0.051246 	4937 	0.050059
41.23 	0.050618 	4939 	0.049906
41.25 	0.050882 	4933 	0.049457
41.27 	0.052728 	4931 	0.052252
41.29 	0.043831 	4928 	0.043118
41.31 	0.056558 	4933 	0.055252
41.33 	0.051448 	4937 	0.050499
41.35 	0.050020 	4938 	0.049783
41.37 	0.047929 	4924 	0.047453
41.39 	0.052909 	4933 	0.052078
41.41 	0.045676 	4926 	0.044606
41.43 	0.050517 	4929 	0.049923
41.45 	0.045584 	4914 	0.045226
41.47 	0.042022 	4926 	0.041546
41.49 	0.050082 	4892 	0.049483
41.51 	0.045749 	4940 	0.045038
41.53 	0.055421 	4944 	0.055065
41.55 	0.050861 	4935 	0.050268
41.57 	0.047359 	4941 	0.045917
41.59 	0.053923 	4933 	0.053329
41.61 	0.047648 	4953 	0.047175
41.63 	0.047388 	4938 	0.046913
41.65 	0.047677 	4929 	0.046826
41.67 	0.046761 	4940 	0.046149
41.69 	0.049929 	4947 	0.049100
41.71 	0.047831 	4934 	0.047594
41.73 	0.047002 	4936 	0.046151
41.75 	0.049097 	4929 	0.048127
41.77 	0.046145 	4941 	0.045789
41.79 	0.049960 	4944 	0.049604
41.81 	0.044368 	4936 	0.042825
41.83 	0.050122 	4928 	0.049527
41.85 	0.043936 	4939 	0.043580
41.87 	0.051469 	4935 	0.050757
41.89 	0.048247 	4933 	0.047772
41.91 	0.050041 	4936 	0.049328
41.93 	0.051298 	4932 	0.050466
41.95 	0.051308 	4931 	0.050595
41.97 	0.047823 	4914 	0.046472
41.99 	0.048522 	4905 	0.047925
42.01 	0.048563 	4942 	0.047852
42.03 	0.050820 	4939 	0.049515
42.05 	0.049273 	4952 	0.048327
42.07 	0.048410 	4937 	0.048054
42.09 	0.045877 	4948 	0.045167
42.11 	0.044489 	4945 	0.044016
42.13 	0.045905 	4945 	0.044839
42.15 	0.049818 	4938 	0.048987
42.17 	0.040667 	4918 	0.040190
42.19 	0.044214 	4908 	0.043975
42.21 	0.044481 	4901 	0.043764
42.23 	0.049877 	4892 	0.049398
42.25 	0.045408 	4889 	0.044929
42.27 	0.045548 	4874 	0.045187
42.29 	0.045856 	4863 	0.045375
42.31 	0.043254 	4855 	0.041907
42.33 	0.053165 	4834 	0.052680
42.35 	0.046714 	4838 	0.046350
42.37 	0.045135 	4830 	0.044164
42.39 	0.051624 	4804 	0.050628
42.41 	0.042048 	4804 	0.041439
42.43 	0.045492 	4792 	0.045248
42.45 	0.049623 	4776 	0.048765
42.47 	0.049108 	4765 	0.048125
42.49 	0.051626 	4765 	0.050889
42.51 	0.046806 	4743 	0.046435
42.53 	0.037014 	4728 	0.036374
42.55 	0.045455 	4708 	0.044708
42.57 	0.044820 	4730 	0.044077
42.59 	0.045041 	4729 	0.044298
42.61 	0.045030 	4708 	0.044283
42.63 	0.050117 	4709 	0.048977
42.65 	0.045251 	4685 	0.045001
42.67 	0.043766 	4684 	0.043141
42.69 	0.045143 	4674 	0.044141
42.71 	0.048896 	4663 	0.048519
42.73 	0.047414 	4640 	0.046257
42.75 	0.049383 	4617 	0.048368
42.77 	0.042174 	4600 	0.041792
42.79 	0.045177 	4582 	0.044644
42.81 	0.049759 	4562 	0.049117
42.83 	0.049824 	4536 	0.048791
42.85 	0.046820 	4528 	0.045893
42.87 	0.046232 	4499 	0.045581
42.89 	0.046652 	4480 	0.045998
42.91 	0.047801 	4456 	0.047143
42.93 	0.049933 	4446 	0.048878
42.95 	0.043252 	4416 	0.043119
42.97 	0.045671 	4401 	0.044873
42.99 	0.049031 	4385 	0.048363
43.01 	0.047215 	4363 	0.046812
43.03 	0.044773 	4333 	0.044232
43.05 	0.046474 	4325 	0.045797
43.07 	0.048417 	4296 	0.048008
43.09 	0.043194 	4283 	0.042647
43.11 	0.049354 	4255 	0.048665
43.13 	0.045315 	4237 	0.044347
43.15 	0.044698 	4206 	0.044420
43.17 	0.041397 	4179 	0.040697
43.19 	0.041249 	4194 	0.040551
43.21 	0.046740 	4172 	0.046319
43.23 	0.049591 	4154 	0.049591
43.25 	0.041838 	4135 	0.041555
43.27 	0.047747 	4105 	0.046462
43.29 	0.055854 	4100 	0.054996
43.31 	0.043883 	4079 	0.043165
43.33 	0.046655 	4051 	0.046221
43.35 	0.043899 	4032 	0.043318
43.37 	0.045828 	4015 	0.045366
43.39 	0.048976 	4002 	0.048536
43.41 	0.042800 	3972 	0.042652
43.43 	0.046465 	3960 	0.045873
43.45 	0.045997 	3935 	0.045402
43.47 	0.044376 	3921 	0.044227
43.49 	0.047472 	3897 	0.046721
43.51 	0.042301 	3877 	0.041999
43.53 	0.046596 	3863 	0.045838
43.55 	0.046896 	2964 	0.046698
43.57 	0.049151 	2238 	0.048628
43.59 	0.037801 	1746 	0.037465
43.61 	0.050333 	1351 	0.050333
43.63 	0.038961 	1001 	0.038961
43.65 	0.046579 	687 	0.046579
43.67 	0.045817 	502 	0.045817
43.69 	0.035422 	367 	0.035422
43.71 	0.037657 	239 	0.037657
43.73 	0.041667 	120 	0.041667
43.75 	0.062500 	16 	0.062500