File: Example_Data/25SC_s1_0003.003.dat
#F C:\frames\spec\25SC_s1_0003.003
#C title =s:3 frm:3 25SC_s1
#C wavelength =0.15406

#S 1  fr_average C:\frames\spec\25SC_s1_0003.003 C:\win32app\speccom\mask.axs chi 0 180 0 360 0.02
#C 2 theta =0.000000 to 180 deg
#C   q   =0.000000 to 81.568 nm^-1
#C  chi  =0.000000 to 360 deg
#C collumns:
#C  1 position (2theta or chi in degrees)
#C  2 average intensity (sum of all counts in the region divided with number of pixels)
#C  3 Number of pixels in region)
#C  4 error (sum of sqrt(intensity) for all pixels divided by number)
#N 4
#L TTh  Int  N_pix  Err
32.99 	0.032787 	61 	0.032787
33.01 	0.071019 	873 	0.069677
33.03 	0.065421 	1391 	0.064999
33.05 	0.067160 	1757 	0.066827
33.07 	0.074634 	2050 	0.073491
33.09 	0.053259 	2347 	0.052012
33.11 	0.064366 	2579 	0.063912
33.13 	0.057644 	2793 	0.056595
33.15 	0.066355 	2999 	0.065379
33.17 	0.061856 	3201 	0.060575
33.19 	0.061341 	3342 	0.059938
33.21 	0.069558 	3436 	0.067682
33.23 	0.059324 	3523 	0.058327
33.25 	0.062292 	3612 	0.060995
33.27 	0.062810 	3630 	0.060712
33.29 	0.059485 	3648 	0.058521
33.31 	0.057923 	3660 	0.057123
33.33 	0.056158 	3686 	0.055364
33.35 	0.055495 	3694 	0.054227
33.37 	0.064890 	3714 	0.063470
33.39 	0.064360 	3729 	0.062947
33.41 	0.050000 	3740 	0.048434
33.43 	0.059825 	3761 	0.058734
33.45 	0.053008 	3773 	0.052542
33.47 	0.062401 	3798 	0.060859
33.49 	0.061959 	3809 	0.060882
33.51 	0.062123 	3815 	0.060588
33.53 	0.064046 	3841 	0.062673
33.55 	0.066094 	3843 	0.064875
33.57 	0.063451 	3877 	0.062369
33.59 	0.054639 	3880 	0.053280
33.61 	0.059606 	3909 	0.058557
33.63 	0.064812 	3919 	0.063467
33.65 	0.058509 	3931 	0.056721
33.67 	0.065250 	3954 	0.063448
33.69 	0.059449 	3953 	0.057522
33.71 	0.063899 	3975 	0.062720
33.73 	0.058691 	4004 	0.057814
33.75 	0.052013 	3999 	0.050841
33.77 	0.058385 	4025 	0.057366
33.79 	0.057906 	4041 	0.057037
33.81 	0.061912 	4038 	0.061041
33.83 	0.061481 	4050 	0.060614
33.85 	0.064406 	4099 	0.062405
33.87 	0.061299 	4111 	0.059589
33.89 	0.060908 	4121 	0.059628
33.91 	0.059291 	4149 	0.058585
33.93 	0.061431 	4151 	0.060020
33.95 	0.061229 	4181 	0.060669
33.97 	0.061337 	4190 	0.060777
33.99 	0.064524 	4200 	0.062990
34.01 	0.059577 	4213 	0.058326
34.03 	0.067389 	4244 	0.066423
34.05 	0.062088 	4252 	0.060986
34.07 	0.062324 	4268 	0.060792
34.09 	0.058796 	4286 	0.058113
34.11 	0.059275 	4302 	0.058185
34.13 	0.060585 	4308 	0.058795
34.15 	0.060263 	4331 	0.058911
34.17 	0.058621 	4350 	0.057409
34.19 	0.060752 	4362 	0.059118
34.21 	0.056738 	4371 	0.056336
34.23 	0.058502 	4393 	0.057702
34.25 	0.064033 	4404 	0.063235
34.27 	0.060154 	4422 	0.058299
34.29 	0.055017 	4435 	0.054489
34.31 	0.057873 	4458 	0.057085
34.33 	0.057258 	4471 	0.056210
34.35 	0.057984 	4484 	0.055632
34.37 	0.058784 	4491 	0.057871
34.39 	0.059751 	4502 	0.058580
34.41 	0.055015 	4526 	0.053980
34.43 	0.053316 	4539 	0.051896
34.45 	0.065270 	4535 	0.064495
34.47 	0.060105 	4592 	0.059212
34.49 	0.057864 	4597 	0.056590
34.51 	0.059053 	4606 	0.057909
34.53 	0.064613 	4643 	0.062847
34.55 	0.058152 	4643 	0.056764
34.57 	0.070172 	4660 	0.068915
34.59 	0.055401 	4675 	0.054378
34.61 	0.063445 	4697 	0.062447
34.63 	0.059023 	4710 	0.058153
34.65 	0.062487 	4721 	0.061494
34.67 	0.060958 	4741 	0.059969
34.69 	0.062894 	4754 	0.061539
34.71 	0.060848 	4766 	0.060110
34.73 	0.061834 	4787 	0.061100
34.75 	0.050541 	4808 	0.049079
34.77 	0.065172 	4818 	0.064200
34.79 	0.060323 	4824 	0.059473
34.81 	0.059030 	4845 	0.057821
34.83 	0.061703 	4862 	0.060619
34.85 	0.058739 	4869 	0.057776
34.87 	0.065119 	4868 	0.063535
34.89 	0.056329 	4882 	0.054890
34.91 	0.059607 	4882 	0.058887
34.93 	0.057563 	4899 	0.056606
34.95 	0.064008 	4890 	0.063170
34.97 	0.062220 	4902 	0.061503
34.99 	0.063100 	4897 	0.062143
35.01 	0.065407 	4923 	0.063979
35.03 	0.057657 	4943 	0.056828
35.05 	0.059834 	4947 	0.058413
35.07 	0.060121 	4940 	0.059410
35.09 	0.063598 	4953 	0.061568
35.11 	0.060441 	4947 	0.059612
35.13 	0.061718 	4958 	0.060891
35.15 	0.060361 	4937 	0.059649
35.17 	0.061464 	4946 	0.060043
35.19 	0.054634 	4942 	0.053923
35.21 	0.057836 	4945 	0.057125
35.23 	0.065116 	4945 	0.063813
35.25 	0.061097 	4943 	0.059911
35.27 	0.064470 	4948 	0.063168
35.29 	0.059050 	4945 	0.058339
35.31 	0.058990 	4933 	0.058040
35.33 	0.057253 	4943 	0.056660
35.35 	0.059895 	4942 	0.058947
35.37 	0.063778 	4939 	0.062948
35.39 	0.062083 	4945 	0.061017
35.41 	0.060698 	4926 	0.059152
35.43 	0.062031 	4933 	0.060725
35.45 	0.057930 	4937 	0.056506
35.47 	0.062665 	4931 	0.061358
35.49 	0.063951 	4910 	0.062519
35.51 	0.057044 	4926 	0.056331
35.53 	0.062033 	4949 	0.060948
35.55 	0.064914 	4945 	0.064322
35.57 	0.057166 	4933 	0.056335
35.59 	0.061274 	4945 	0.060326
35.61 	0.060502 	4942 	0.058961
35.63 	0.061703 	4943 	0.060281
35.65 	0.061678 	4945 	0.060001
35.67 	0.065358 	4942 	0.063936
35.69 	0.060857 	4946 	0.060028
35.71 	0.058538 	4937 	0.057232
35.73 	0.058347 	4936 	0.057497
35.75 	0.060231 	4931 	0.059281
35.77 	0.055342 	4951 	0.053785
35.79 	0.064680 	4932 	0.063492
35.81 	0.061626 	4933 	0.060913
35.83 	0.055803 	4946 	0.054974
35.85 	0.060182 	4935 	0.058976
35.87 	0.061954 	4923 	0.060745
35.89 	0.060397 	4934 	0.059091
35.91 	0.056627 	4927 	0.055775
35.93 	0.061904 	4927 	0.060458
35.95 	0.057352 	4917 	0.056518
35.97 	0.060871 	4912 	0.059917
35.99 	0.058919 	4939 	0.057832
36.01 	0.060041 	4930 	0.058971
36.03 	0.056241 	4943 	0.055056
36.05 	0.065319 	4945 	0.064371
36.07 	0.058514 	4939 	0.057446
36.09 	0.059514 	4940 	0.057973
36.11 	0.058633 	4929 	0.057682
36.13 	0.056455 	4942 	0.055270
36.15 	0.060741 	4939 	0.059199
36.17 	0.061929 	4925 	0.061096
36.19 	0.059312 	4940 	0.057375
36.21 	0.058633 	4929 	0.057068
36.23 	0.055724 	4935 	0.055368
36.25 	0.058490 	4941 	0.057305
36.27 	0.065178 	4925 	0.063850
36.29 	0.061854 	4931 	0.060666
36.31 	0.058847 	4928 	0.058253
36.33 	0.055950 	4933 	0.054762
36.35 	0.070197 	4929 	0.068632
36.37 	0.058095 	4923 	0.057143
36.39 	0.067669 	4921 	0.066003
36.41 	0.060253 	4896 	0.058698
36.43 	0.064123 	4928 	0.062578
36.45 	0.063895 	4930 	0.062350
36.47 	0.057536 	4936 	0.056350
36.49 	0.058478 	4942 	0.057293
36.51 	0.060815 	4933 	0.059984
36.53 	0.061703 	4943 	0.060163
36.55 	0.060889 	4927 	0.060057
36.57 	0.060195 	4934 	0.059107
36.59 	0.061551 	4939 	0.060602
36.61 	0.060231 	4931 	0.059162
36.63 	0.059217 	4931 	0.057297
36.65 	0.061030 	4932 	0.060080
36.67 	0.057606 	4930 	0.056280
36.69 	0.066139 	4929 	0.064931
36.71 	0.057102 	4921 	0.056269
36.73 	0.056853 	4925 	0.055782
36.75 	0.061489 	4944 	0.060778
36.77 	0.059362 	4919 	0.057794
36.79 	0.060557 	4921 	0.059128
36.81 	0.062042 	4916 	0.061208
36.83 	0.059207 	4915 	0.058015
36.85 	0.060433 	4898 	0.058998
36.87 	0.057443 	4944 	0.056022
36.89 	0.063059 	4916 	0.061272
36.91 	0.054240 	4941 	0.053410
36.93 	0.061055 	4930 	0.059985
36.95 	0.065680 	4933 	0.064611
36.97 	0.054925 	4934 	0.054331
36.99 	0.057953 	4935 	0.057004
37.01 	0.057369 	4933 	0.056063
37.03 	0.056661 	4924 	0.055947
37.05 	0.058453 	4927 	0.057621
37.07 	0.062411 	4935 	0.061462
37.09 	0.055804 	4928 	0.054853
37.11 	0.058359 	4935 	0.057765
37.13 	0.064785 	4924 	0.063952
37.15 	0.060501 	4909 	0.059546
37.17 	0.050061 	4934 	0.049111
37.19 	0.052183 	4925 	0.051231
37.21 	0.051658 	4917 	0.051062
37.23 	0.060797 	4918 	0.059368
37.25 	0.060069 	4911 	0.059115
37.27 	0.056804 	4894 	0.055847
37.29 	0.059635 	4930 	0.058922
37.31 	0.050861 	4935 	0.050030
37.33 	0.054394 	4927 	0.053800
37.35 	0.061158 	4938 	0.060447
37.37 	0.055003 	4927 	0.054646
37.39 	0.051511 	4931 	0.051036
37.41 	0.052119 	4931 	0.051288
37.43 	0.059813 	4932 	0.059220
37.45 	0.054630 	4924 	0.054036
37.47 	0.060256 	4929 	0.059067
37.49 	0.058095 	4923 	0.056667
37.51 	0.054733 	4933 	0.053645
37.53 	0.060988 	4919 	0.060154
37.55 	0.051927 	4930 	0.050858
37.57 	0.052589 	4925 	0.051875
37.59 	0.050865 	4915 	0.050388
37.61 	0.052824 	4922 	0.051852
37.63 	0.051840 	4919 	0.050887
37.65 	0.052460 	4918 	0.051269
37.67 	0.056688 	4904 	0.055613
37.69 	0.059412 	4898 	0.058694
37.71 	0.057415 	4929 	0.056346
37.73 	0.059444 	4929 	0.058969
37.75 	0.057692 	4940 	0.056862
37.77 	0.049797 	4920 	0.048844
37.79 	0.052535 	4930 	0.052179
37.81 	0.053112 	4933 	0.052518
37.83 	0.056504 	4920 	0.055552
37.85 	0.054856 	4922 	0.053428
37.87 	0.051427 	4939 	0.050716
37.89 	0.049543 	4925 	0.048354
37.91 	0.049696 	4930 	0.049339
37.93 	0.055906 	4919 	0.054338
37.95 	0.058728 	4921 	0.057538
37.97 	0.054169 	4929 	0.053456
37.99 	0.051099 	4912 	0.050622
38.01 	0.049716 	4928 	0.049122
38.03 	0.057038 	4909 	0.055845
38.05 	0.051371 	4925 	0.050538
38.07 	0.052353 	4909 	0.051637
38.09 	0.054941 	4878 	0.053980
38.11 	0.054914 	4935 	0.054439
38.13 	0.056309 	4937 	0.055360
38.15 	0.052054 	4918 	0.051696
38.17 	0.051927 	4930 	0.051095
38.19 	0.056795 	4930 	0.056201
38.21 	0.057282 	4923 	0.056449
38.23 	0.054881 	4938 	0.054050
38.25 	0.054912 	4917 	0.054197
38.27 	0.055984 	4930 	0.054776
38.29 	0.055443 	4924 	0.054491
38.31 	0.057642 	4927 	0.057047
38.33 	0.056255 	4924 	0.054709
38.35 	0.058036 	4928 	0.057184
38.37 	0.061332 	4924 	0.059905
38.39 	0.067631 	4909 	0.066796
38.41 	0.064595 	4923 	0.063643
38.43 	0.060212 	4916 	0.059497
38.45 	0.063440 	4918 	0.062726
38.47 	0.063379 	4907 	0.061807
38.49 	0.059258 	4877 	0.058417
38.51 	0.061841 	4932 	0.061010
38.53 	0.063096 	4929 	0.061789
38.55 	0.067261 	4936 	0.066173
38.57 	0.061345 	4923 	0.060393
38.59 	0.059708 	4924 	0.058518
38.61 	0.060575 	4936 	0.059626
38.63 	0.061942 	4924 	0.060752
38.65 	0.064864 	4918 	0.063554
38.67 	0.058740 	4937 	0.057297
38.69 	0.062373 	4922 	0.061421
38.71 	0.058286 	4924 	0.057334
38.73 	0.054494 	4918 	0.053402
38.75 	0.055612 	4927 	0.054899
38.77 	0.055251 	4923 	0.054537
38.79 	0.055533 	4934 	0.054702
38.81 	0.048249 	4912 	0.047653
38.83 	0.051637 	4919 	0.051041
38.85 	0.046824 	4912 	0.045970
38.87 	0.056608 	4911 	0.055773
38.89 	0.051052 	4897 	0.050334
38.91 	0.053233 	4903 	0.052157
38.93 	0.047793 	4938 	0.046943
38.95 	0.052867 	4918 	0.052271
38.97 	0.051511 	4931 	0.050679
38.99 	0.050435 	4937 	0.050080
39.01 	0.052460 	4918 	0.051627
39.03 	0.046007 	4934 	0.045532
39.05 	0.052183 	4925 	0.051707
39.07 	0.051381 	4924 	0.050191
39.09 	0.045704 	4923 	0.045585
39.11 	0.049888 	4931 	0.049057
39.13 	0.054438 	4923 	0.053486
39.15 	0.050661 	4915 	0.049469
39.17 	0.053271 	4937 	0.052915
39.19 	0.045149 	4917 	0.044554
39.21 	0.051120 	4910 	0.050166
39.23 	0.051980 	4925 	0.050790
39.25 	0.045104 	4922 	0.044628
39.27 	0.052138 	4910 	0.050807
39.29 	0.052030 	4901 	0.051672
39.31 	0.044840 	4884 	0.044480
39.33 	0.048672 	4931 	0.048553
39.35 	0.049240 	4935 	0.048884
39.37 	0.051532 	4929 	0.050819
39.39 	0.051532 	4929 	0.051056
39.41 	0.049280 	4931 	0.048805
39.43 	0.050882 	4933 	0.050169
39.45 	0.044670 	4925 	0.043837
39.47 	0.042048 	4923 	0.041453
39.49 	0.046827 	4933 	0.046352
39.51 	0.052396 	4924 	0.051564
39.53 	0.052813 	4923 	0.052218
39.55 	0.056109 	4919 	0.055633
39.57 	0.051693 	4933 	0.051317
39.59 	0.044992 	4912 	0.044396
39.61 	0.051188 	4923 	0.050236
39.63 	0.053230 	4922 	0.052040
39.65 	0.046082 	4926 	0.045725
39.67 	0.061470 	4913 	0.060516
39.69 	0.052075 	4916 	0.051598
39.71 	0.047804 	4895 	0.047565
39.73 	0.044417 	4908 	0.043940
39.75 	0.045049 	4928 	0.043979
39.77 	0.043161 	4935 	0.042924
39.79 	0.047097 	4926 	0.046007
39.81 	0.046276 	4927 	0.045443
39.83 	0.053101 	4934 	0.052626
39.85 	0.054800 	4927 	0.054087
39.87 	0.052386 	4925 	0.051315
39.89 	0.055128 	4934 	0.054653
39.91 	0.046729 	4922 	0.046491
39.93 	0.051853 	4937 	0.051379
39.95 	0.049237 	4915 	0.048760
39.97 	0.047890 	4928 	0.047176
39.99 	0.050081 	4932 	0.049487
40.01 	0.046767 	4918 	0.045814
40.03 	0.049919 	4928 	0.048849
40.05 	0.048200 	4917 	0.047128
40.07 	0.048751 	4923 	0.048275
40.09 	0.051261 	4916 	0.050427
40.11 	0.052889 	4916 	0.052035
40.13 	0.053922 	4896 	0.053443
40.15 	0.048443 	4913 	0.047966
40.17 	0.049513 	4928 	0.048542
40.19 	0.043619 	4929 	0.043382
40.21 	0.043972 	4935 	0.043141
40.23 	0.049473 	4932 	0.049117
40.25 	0.047561 	4920 	0.046966
40.27 	0.046587 	4937 	0.045875
40.29 	0.044246 	4927 	0.043770
40.31 	0.050010 	4939 	0.049536
40.33 	0.042782 	4932 	0.042426
40.35 	0.050010 	4919 	0.049534
40.37 	0.044025 	4929 	0.043906
40.39 	0.045832 	4931 	0.045239
40.41 	0.045279 	4925 	0.044566
40.43 	0.047948 	4922 	0.047234
40.45 	0.051490 	4933 	0.050659
40.47 	0.050630 	4918 	0.049797
40.49 	0.046894 	4926 	0.046418
40.51 	0.044088 	4922 	0.043136
40.53 	0.047803 	4916 	0.047088
40.55 	0.047881 	4908 	0.046787
40.57 	0.043558 	4890 	0.043319
40.59 	0.047195 	4937 	0.046720
40.61 	0.044174 	4935 	0.043818
40.63 	0.042394 	4930 	0.041780
40.65 	0.050435 	4937 	0.049961
40.67 	0.052109 	4932 	0.051634
40.69 	0.043346 	4937 	0.042990
40.71 	0.049676 	4932 	0.049082
40.73 	0.046285 	4926 	0.045572
40.75 	0.045630 	4931 	0.045036
40.77 	0.040696 	4939 	0.039866
40.79 	0.051178 	4924 	0.050821
40.81 	0.053026 	4941 	0.051959
40.83 	0.048701 	4928 	0.047988
40.85 	0.045695 	4924 	0.044723
40.87 	0.044846 	4928 	0.043776
40.89 	0.047049 	4931 	0.046436
40.91 	0.047938 	4923 	0.047581
40.93 	0.048034 	4934 	0.047440
40.95 	0.045593 	4913 	0.045116
40.97 	0.047522 	4924 	0.047165
40.99 	0.045085 	4924 	0.044490
41.01 	0.043160 	4912 	0.042921
41.03 	0.048930 	4905 	0.048810
41.05 	0.048825 	4936 	0.047994
41.07 	0.046856 	4930 	0.046618
41.09 	0.047176 	4939 	0.046345
41.11 	0.041945 	4935 	0.041470
41.13 	0.041734 	4936 	0.041259
41.15 	0.038251 	4941 	0.037777
41.17 	0.044791 	4934 	0.044554
41.19 	0.043408 	4930 	0.043051
41.21 	0.046384 	4937 	0.046028
41.23 	0.047580 	4939 	0.046987
41.25 	0.043787 	4933 	0.042837
41.27 	0.045832 	4931 	0.044724
41.29 	0.047281 	4928 	0.046568
41.31 	0.042773 	4933 	0.042417
41.33 	0.038687 	4937 	0.038450
41.35 	0.048603 	4938 	0.047891
41.37 	0.046710 	4924 	0.045758
41.39 	0.046017 	4933 	0.045660
41.41 	0.045270 	4926 	0.044794
41.43 	0.044837 	4929 	0.044718
41.45 	0.042939 	4914 	0.042462
41.47 	0.050142 	4926 	0.049409
41.49 	0.044154 	4892 	0.043555
41.51 	0.049190 	4940 	0.048479
41.53 	0.044094 	4944 	0.043620
41.55 	0.044782 	4935 	0.044307
41.57 	0.047156 	4941 	0.046919
41.59 	0.050274 	4933 	0.049799
41.61 	0.047446 	4953 	0.046855
41.63 	0.043135 	4938 	0.042898
41.65 	0.051938 	4929 	0.051462
41.67 	0.044332 	4940 	0.043265
41.69 	0.046897 	4947 	0.046305
41.71 	0.044183 	4934 	0.043708
41.73 	0.041329 	4936 	0.040973
41.75 	0.048691 	4929 	0.047860
41.77 	0.045537 	4941 	0.044115
41.79 	0.052184 	4944 	0.051711
41.81 	0.037885 	4936 	0.037648
41.83 	0.040787 	4928 	0.040193
41.85 	0.048390 	4939 	0.047679
41.87 	0.041135 	4935 	0.040660
41.89 	0.045408 	4933 	0.044696
41.91 	0.042950 	4936 	0.042594
41.93 	0.041971 	4932 	0.041614
41.95 	0.044818 	4931 	0.044225
41.97 	0.048637 	4914 	0.048160
41.99 	0.040163 	4905 	0.039805
42.01 	0.036423 	4942 	0.036304
42.03 	0.048795 	4939 	0.048321
42.05 	0.037763 	4952 	0.037289
42.07 	0.042131 	4937 	0.041894
42.09 	0.047090 	4948 	0.046616
42.11 	0.042669 	4945 	0.042314
42.13 	0.041254 	4945 	0.041017
42.15 	0.046780 	4938 	0.045950
42.17 	0.049614 	4918 	0.049256
42.19 	0.042584 	4908 	0.042345
42.21 	0.049786 	4901 	0.048949
42.23 	0.042927 	4892 	0.042209
42.25 	0.045408 	4889 	0.045049
42.27 	0.042265 	4874 	0.041544
42.29 	0.045240 	4863 	0.044999
42.31 	0.040783 	4855 	0.040300
42.33 	0.046959 	4834 	0.045868
42.35 	0.047540 	4838 	0.046693
42.37 	0.046377 	4830 	0.045770
42.39 	0.048501 	4804 	0.047770
42.41 	0.040175 	4804 	0.039565
42.43 	0.043406 	4792 	0.042917
42.45 	0.044598 	4776 	0.044107
42.47 	0.041133 	4765 	0.041133
42.49 	0.044281 	4765 	0.043544
42.51 	0.038162 	4743 	0.037914
42.53 	0.039975 	4728 	0.039727
42.55 	0.042693 	4708 	0.042071
42.57 	0.041015 	4730 	0.040767
42.59 	0.039966 	4729 	0.039595
42.61 	0.045242 	4708 	0.044744
42.63 	0.040773 	4709 	0.040027
42.65 	0.046318 	4685 	0.045693
42.67 	0.043766 	4684 	0.042724
42.69 	0.040436 	4674 	0.039684
42.71 	0.041604 	4663 	0.041227
42.73 	0.043966 	4640 	0.043061
42.75 	0.045917 	4617 	0.044628
42.77 	0.043478 	4600 	0.042969
42.79 	0.042340 	4582 	0.041700
42.81 	0.045813 	4562 	0.045300
42.83 	0.042549 	4536 	0.042032
42.85 	0.041299 	4528 	0.040522
42.87 	0.041565 	4499 	0.040914
42.89 	0.044420 	4480 	0.043766
42.91 	0.041517 	4456 	0.041254
42.93 	0.042060 	4446 	0.041138
42.95 	0.044158 	4416 	0.043760
42.97 	0.042263 	4401 	0.042130
42.99 	0.039225 	4385 	0.038423
43.01 	0.037130 	4363 	0.036996
43.03 	0.043388 	4333 	0.042847
43.05 	0.042775 	4325 	0.042233
43.07 	0.048650 	4296 	0.048104
43.09 	0.037590 	4283 	0.037317
43.11 	0.041363 	4255 	0.041225
43.13 	0.044135 	4237 	0.043444
43.15 	0.040656 	4206 	0.039937
43.17 	0.044987 	4179 	0.044006
43.19 	0.036242 	4194 	0.035684
43.21 	0.041227 	4172 	0.040666
43.23 	0.047183 	4154 	0.046196
43.25 	0.046917 	4135 	0.045878
43.27 	0.045311 	4105 	0.044026
43.29 	0.043902 	4100 	0.043188
43.31 	0.040206 	4079 	0.040062
43.33 	0.041224 	4051 	0.040935
43.35 	0.041667 	4032 	0.040940
43.37 	0.041843 	4015 	0.041405
43.39 	0.040980 	4002 	0.040540
43.41 	0.042296 	3972 	0.041411
43.43 	0.039646 	3960 	0.039055
43.45 	0.041677 	3935 	0.041082
43.47 	0.041826 	3921 	0.041677
43.49 	0.033359 	3897 	0.033058
43.51 	0.035852 	3877 	0.035248
43.53 	0.043231 	3863 	0.042624
43.55 	0.036775 	2964 	0.036775
43.57 	0.041555 	2238 	0.041555
43.59 	0.046392 	1746 	0.045721
43.61 	0.036269 	1351 	0.034969
43.63 	0.031968 	1001 	0.031383
43.65 	0.045124 	687 	0.045124
43.67 	0.031873 	502 	0.031873
43.69 	0.021798 	367 	0.021798
43.71 	0.033473 	239 	0.033473
43.73 	0.058333 	120 	0.058333
43.75 	0.000000 	16 	0.000000