File: Example_Data/25SC_s1_0042.003.dat
#F C:\frames\spec\25SC_s1_0042.003
#C title =s:42 frm:3 25SC_s1
#C wavelength =0.15406

#S 1  fr_average C:\frames\spec\25SC_s1_0042.003 C:\win32app\speccom\mask.axs chi 0 180 0 360 0.02
#C 2 theta =0.000000 to 180 deg
#C   q   =0.000000 to 81.568 nm^-1
#C  chi  =0.000000 to 360 deg
#C collumns:
#C  1 position (2theta or chi in degrees)
#C  2 average intensity (sum of all counts in the region divided with number of pixels)
#C  3 Number of pixels in region)
#C  4 error (sum of sqrt(intensity) for all pixels divided by number)
#N 4
#L TTh  Int  N_pix  Err
32.99 	0.016393 	61 	0.016393
33.01 	0.051546 	873 	0.051546
33.03 	0.072610 	1391 	0.071767
33.05 	0.067160 	1757 	0.066493
33.07 	0.057073 	2050 	0.055930
33.09 	0.056668 	2347 	0.055629
33.11 	0.061652 	2579 	0.060516
33.13 	0.059076 	2793 	0.058237
33.15 	0.060353 	2999 	0.060158
33.17 	0.061231 	3201 	0.059950
33.19 	0.062537 	3342 	0.061310
33.21 	0.063446 	3436 	0.062054
33.23 	0.057054 	3523 	0.056389
33.25 	0.057863 	3612 	0.056727
33.27 	0.061157 	3630 	0.060027
33.29 	0.057840 	3648 	0.057198
33.31 	0.058197 	3660 	0.057557
33.33 	0.067553 	3686 	0.066440
33.35 	0.059015 	3694 	0.057429
33.37 	0.053043 	3714 	0.051781
33.39 	0.055243 	3729 	0.054457
33.41 	0.055615 	3740 	0.054049
33.43 	0.057166 	3761 	0.056231
33.45 	0.059104 	3773 	0.057707
33.47 	0.065561 	3798 	0.064327
33.49 	0.059071 	3809 	0.057840
33.51 	0.064220 	3815 	0.063145
33.53 	0.058318 	3841 	0.057251
33.55 	0.059068 	3843 	0.057849
33.57 	0.061646 	3877 	0.059984
33.59 	0.060309 	3880 	0.059554
33.61 	0.057048 	3909 	0.055699
33.63 	0.052820 	3919 	0.052072
33.65 	0.051895 	3931 	0.050852
33.67 	0.055134 	3954 	0.053924
33.69 	0.054136 	3953 	0.053247
33.71 	0.052327 	3975 	0.051443
33.73 	0.055195 	4004 	0.054317
33.75 	0.066767 	3999 	0.065302
33.77 	0.052174 	4025 	0.051301
33.79 	0.053452 	4041 	0.052582
33.81 	0.060674 	4038 	0.059658
33.83 	0.061975 	4050 	0.061107
33.85 	0.063674 	4099 	0.062793
33.87 	0.059596 	4111 	0.059169
33.89 	0.056540 	4121 	0.055687
33.91 	0.059291 	4149 	0.058562
33.93 	0.062876 	4151 	0.061747
33.95 	0.058120 	4181 	0.057700
33.97 	0.059427 	4190 	0.058728
33.99 	0.060238 	4200 	0.059401
34.01 	0.052694 	4213 	0.051999
34.03 	0.063148 	4244 	0.061906
34.05 	0.058090 	4252 	0.057401
34.07 	0.059278 	4268 	0.058318
34.09 	0.059263 	4286 	0.057896
34.11 	0.063691 	4302 	0.062466
34.13 	0.054318 	4308 	0.053774
34.15 	0.057492 	4331 	0.056005
34.17 	0.055862 	4350 	0.054785
34.19 	0.057772 	4362 	0.056944
34.21 	0.052848 	4371 	0.052044
34.23 	0.049169 	4393 	0.048636
34.25 	0.056994 	4404 	0.055531
34.27 	0.057666 	4422 	0.056077
34.29 	0.058174 	4435 	0.056853
34.31 	0.067070 	4458 	0.065998
34.33 	0.059495 	4471 	0.058577
34.35 	0.057315 	4484 	0.056270
34.37 	0.060343 	4491 	0.059821
34.39 	0.053976 	4502 	0.053065
34.41 	0.062086 	4526 	0.060791
34.43 	0.059044 	4539 	0.058786
34.45 	0.059096 	4535 	0.058450
34.47 	0.063371 	4592 	0.062351
34.49 	0.054818 	4597 	0.053672
34.51 	0.053626 	4606 	0.052735
34.53 	0.063537 	4643 	0.062653
34.55 	0.055568 	4643 	0.054558
34.57 	0.059871 	4660 	0.058363
34.59 	0.060963 	4675 	0.060085
34.61 	0.057271 	4697 	0.056273
34.63 	0.052866 	4710 	0.051996
34.65 	0.055709 	4721 	0.055584
34.67 	0.055684 	4741 	0.054820
34.69 	0.054480 	4754 	0.053125
34.71 	0.053084 	4766 	0.052224
34.73 	0.055776 	4787 	0.055022
34.75 	0.057196 	4808 	0.056465
34.77 	0.061229 	4818 	0.059891
34.79 	0.060531 	4824 	0.059296
34.81 	0.054902 	4845 	0.054177
34.83 	0.057384 	4862 	0.056058
34.85 	0.061820 	4869 	0.060376
34.87 	0.048685 	4868 	0.047963
34.89 	0.058173 	4882 	0.057693
34.91 	0.058173 	4882 	0.057573
34.93 	0.052256 	4899 	0.051179
34.95 	0.065031 	4890 	0.063953
34.97 	0.062016 	4902 	0.061060
34.99 	0.056769 	4897 	0.056171
35.01 	0.059720 	4923 	0.059125
35.03 	0.064940 	4943 	0.063755
35.05 	0.055589 	4947 	0.054997
35.07 	0.055061 	4940 	0.054586
35.09 	0.055926 	4953 	0.054960
35.11 	0.054174 	4947 	0.053701
35.13 	0.051432 	4958 	0.050487
35.15 	0.058538 	4937 	0.057944
35.17 	0.056207 	4946 	0.054667
35.19 	0.055038 	4942 	0.053735
35.21 	0.056421 	4945 	0.055473
35.23 	0.057027 	4945 	0.055961
35.25 	0.059883 	4943 	0.058816
35.27 	0.057801 	4948 	0.057091
35.29 	0.061476 	4945 	0.060292
35.31 	0.060004 	4933 	0.059054
35.33 	0.062108 	4943 	0.060923
35.35 	0.055443 	4942 	0.054613
35.37 	0.054869 	4939 	0.054158
35.39 	0.062083 	4945 	0.061116
35.41 	0.051157 	4926 	0.050800
35.43 	0.058382 	4933 	0.056344
35.45 	0.054284 	4937 	0.053097
35.47 	0.057189 	4931 	0.056120
35.49 	0.063340 	4910 	0.061908
35.51 	0.054811 	4926 	0.054217
35.53 	0.055163 	4949 	0.053979
35.55 	0.058038 	4945 	0.057683
35.57 	0.050274 	4933 	0.049680
35.59 	0.063296 	4945 	0.062704
35.61 	0.058681 	4942 	0.057851
35.63 	0.055230 	4943 	0.054400
35.65 	0.056016 	4945 	0.055305
35.67 	0.054634 	4942 	0.053310
35.69 	0.056814 	4946 	0.055274
35.71 	0.055904 	4937 	0.054461
35.73 	0.060373 	4936 	0.059661
35.75 	0.059826 	4931 	0.058400
35.77 	0.062816 	4951 	0.062106
35.79 	0.059002 	4932 	0.058527
35.81 	0.055950 	4933 	0.055237
35.83 	0.057825 	4946 	0.056759
35.85 	0.056738 	4935 	0.055788
35.87 	0.053016 	4923 	0.052540
35.89 	0.058573 	4934 	0.057623
35.91 	0.055409 	4927 	0.054339
35.93 	0.050741 	4927 	0.049790
35.95 	0.054912 	4917 	0.054078
35.97 	0.055578 	4912 	0.054386
35.99 	0.051630 	4939 	0.050918
36.01 	0.057606 	4930 	0.056280
36.03 	0.060894 	4943 	0.059472
36.05 	0.058847 	4945 	0.058137
36.07 	0.057906 	4939 	0.056958
36.09 	0.062551 	4940 	0.061009
36.11 	0.062284 	4929 	0.061571
36.13 	0.065763 	4942 	0.064696
36.15 	0.047378 	4939 	0.046311
36.17 	0.057259 	4925 	0.055951
36.19 	0.053036 	4940 	0.052444
36.21 	0.062284 	4929 	0.061453
36.23 	0.059980 	4935 	0.058892
36.25 	0.056062 	4941 	0.055193
36.27 	0.048325 	4925 	0.047017
36.29 	0.054958 	4931 	0.054008
36.31 	0.057021 	4928 	0.056189
36.33 	0.053517 	4933 	0.053042
36.35 	0.051532 	4929 	0.050700
36.37 	0.059923 	4923 	0.058971
36.39 	0.055883 	4921 	0.054554
36.41 	0.059232 	4896 	0.058395
36.43 	0.057630 	4928 	0.056679
36.45 	0.052738 	4930 	0.052263
36.47 	0.051661 	4936 	0.050949
36.49 	0.057467 	4942 	0.057230
36.51 	0.052301 	4933 	0.051826
36.53 	0.053611 	4943 	0.052663
36.55 	0.052973 	4927 	0.052022
36.57 	0.057154 	4934 	0.056798
36.59 	0.060539 	4939 	0.059333
36.61 	0.059420 	4931 	0.058232
36.63 	0.050294 	4931 	0.049819
36.65 	0.051500 	4932 	0.050788
36.67 	0.045842 	4930 	0.044891
36.69 	0.058024 	4929 	0.056479
36.71 	0.054664 	4921 	0.053473
36.73 	0.048528 	4925 	0.048052
36.75 	0.052791 	4944 	0.051962
36.77 	0.050823 	4919 	0.049990
36.79 	0.059134 	4921 	0.058777
36.81 	0.055533 	4916 	0.054222
36.83 	0.047609 	4915 	0.046537
36.85 	0.046958 	4898 	0.046101
36.87 	0.052994 	4944 	0.052283
36.89 	0.048210 	4916 	0.047495
36.91 	0.059097 	4941 	0.058267
36.93 	0.053347 	4930 	0.052872
36.95 	0.051895 	4933 	0.050945
36.97 	0.051277 	4934 	0.050327
36.99 	0.057953 	4935 	0.056766
37.01 	0.052098 	4933 	0.051148
37.03 	0.057677 	4924 	0.056606
37.05 	0.056221 	4927 	0.054675
37.07 	0.051874 	4935 	0.051281
37.09 	0.045657 	4928 	0.045182
37.11 	0.056940 	4935 	0.055991
37.13 	0.052803 	4924 	0.051494
37.15 	0.051334 	4909 	0.050499
37.17 	0.049250 	4934 	0.048775
37.19 	0.057056 	4925 	0.055866
37.21 	0.055318 	4917 	0.054723
37.23 	0.050020 	4918 	0.049425
37.25 	0.053960 	4911 	0.053245
37.27 	0.050061 	4894 	0.049343
37.29 	0.053550 	4930 	0.052243
37.31 	0.048835 	4935 	0.048241
37.33 	0.052770 	4927 	0.052057
37.35 	0.049615 	4938 	0.048548
37.37 	0.048102 	4927 	0.047270
37.39 	0.046441 	4931 	0.045847
37.41 	0.050091 	4931 	0.049735
37.43 	0.050689 	4932 	0.049977
37.45 	0.052803 	4924 	0.052684
37.47 	0.051938 	4929 	0.050749
37.49 	0.049970 	4923 	0.049256
37.51 	0.056152 	4933 	0.055677
37.53 	0.052856 	4919 	0.052380
37.55 	0.050710 	4930 	0.049621
37.57 	0.048325 	4925 	0.047235
37.59 	0.050051 	4915 	0.049574
37.61 	0.051808 	4922 	0.050618
37.63 	0.051027 	4919 	0.050669
37.65 	0.045140 	4918 	0.044783
37.67 	0.055873 	4904 	0.054439
37.69 	0.051654 	4898 	0.050458
37.71 	0.051126 	4929 	0.050413
37.73 	0.048286 	4929 	0.047454
37.75 	0.042510 	4940 	0.042154
37.77 	0.055488 	4920 	0.054892
37.79 	0.053753 	4930 	0.052327
37.81 	0.048855 	4933 	0.048498
37.83 	0.051829 	4920 	0.050877
37.85 	0.054246 	4922 	0.053532
37.87 	0.045556 	4939 	0.044844
37.89 	0.047513 	4925 	0.046799
37.91 	0.053753 	4930 	0.053515
37.93 	0.054483 	4919 	0.054125
37.95 	0.057102 	4921 	0.056249
37.97 	0.052546 	4929 	0.051595
37.99 	0.052321 	4912 	0.051248
38.01 	0.052760 	4928 	0.051670
38.03 	0.055001 	4909 	0.053927
38.05 	0.052792 	4925 	0.052078
38.07 	0.053779 	4909 	0.052943
38.09 	0.051866 	4878 	0.051025
38.11 	0.051469 	4935 	0.050757
38.13 	0.057727 	4937 	0.057371
38.15 	0.057137 	4918 	0.056541
38.17 	0.050304 	4930 	0.049354
38.19 	0.048479 	4930 	0.047647
38.21 	0.056063 	4923 	0.055587
38.23 	0.056501 	4938 	0.055314
38.25 	0.054708 	4917 	0.053735
38.27 	0.056795 	4930 	0.056320
38.29 	0.053818 	4924 	0.052866
38.31 	0.057033 	4927 	0.055844
38.33 	0.054427 	4924 	0.053694
38.35 	0.055195 	4928 	0.054125
38.37 	0.058286 	4924 	0.057453
38.39 	0.058464 	4909 	0.057629
38.41 	0.064595 	4923 	0.063385
38.43 	0.062042 	4916 	0.061665
38.45 	0.057340 	4918 	0.056626
38.47 	0.062564 	4907 	0.061609
38.49 	0.057207 	4877 	0.056246
38.51 	0.062652 	4932 	0.061346
38.53 	0.057212 	4929 	0.056381
38.55 	0.056726 	4936 	0.055895
38.57 	0.056470 	4923 	0.055379
38.59 	0.053615 	4924 	0.053020
38.61 	0.058955 	4936 	0.058361
38.63 	0.058083 	4924 	0.056655
38.65 	0.059577 	4918 	0.058724
38.67 	0.052258 	4937 	0.051784
38.69 	0.051199 	4922 	0.050247
38.71 	0.057880 	4924 	0.056433
38.73 	0.055510 	4918 	0.055153
38.75 	0.060889 	4927 	0.059819
38.77 	0.051188 	4923 	0.050950
38.79 	0.051682 	4934 	0.050732
38.81 	0.049878 	4912 	0.049162
38.83 	0.051027 	4919 	0.050312
38.85 	0.047435 	4912 	0.046719
38.87 	0.053553 	4911 	0.052957
38.89 	0.050031 	4897 	0.049313
38.91 	0.047318 	4903 	0.046840
38.93 	0.043945 	4938 	0.042996
38.95 	0.050224 	4918 	0.049985
38.97 	0.051714 	4931 	0.051001
38.99 	0.048005 	4937 	0.047293
39.01 	0.046970 	4918 	0.046375
39.03 	0.047629 	4934 	0.047273
39.05 	0.050964 	4925 	0.049874
39.07 	0.049350 	4924 	0.048398
39.09 	0.051391 	4923 	0.051153
39.11 	0.049888 	4931 	0.048700
39.13 	0.050985 	4923 	0.049914
39.15 	0.051475 	4915 	0.050879
39.17 	0.045777 	4937 	0.045302
39.19 	0.047183 	4917 	0.046349
39.21 	0.047047 	4910 	0.046331
39.23 	0.048122 	4925 	0.047646
39.25 	0.046526 	4922 	0.045574
39.27 	0.048880 	4910 	0.048283
39.29 	0.046317 	4901 	0.045959
39.31 	0.041769 	4884 	0.041049
39.33 	0.048063 	4931 	0.047113
39.35 	0.043161 	4935 	0.042686
39.37 	0.052140 	4929 	0.051665
39.39 	0.052546 	4929 	0.052308
39.41 	0.045832 	4931 	0.044763
39.43 	0.048044 	4933 	0.047331
39.45 	0.044264 	4925 	0.044264
39.47 	0.046516 	4923 	0.046278
39.49 	0.040746 	4933 	0.040014
39.51 	0.051178 	4924 	0.050464
39.53 	0.044282 	4923 	0.043687
39.55 	0.045131 	4919 	0.044774
39.57 	0.053314 	4933 	0.052958
39.59 	0.049267 	4912 	0.048313
39.61 	0.046923 	4923 	0.045971
39.63 	0.048557 	4922 	0.047724
39.65 	0.048924 	4926 	0.048211
39.67 	0.048239 	4913 	0.047762
39.69 	0.043938 	4916 	0.043223
39.71 	0.042492 	4895 	0.042014
39.73 	0.045640 	4908 	0.045043
39.75 	0.047484 	4928 	0.047008
39.77 	0.044377 	4935 	0.043309
39.79 	0.048518 	4926 	0.047567
39.81 	0.047493 	4927 	0.046523
39.83 	0.048845 	4934 	0.048232
39.85 	0.044855 	4927 	0.043904
39.87 	0.052589 	4925 	0.052113
39.89 	0.046818 	4934 	0.046343
39.91 	0.045104 	4922 	0.044866
39.93 	0.046992 	4937 	0.046162
39.95 	0.047406 	4915 	0.046452
39.97 	0.043019 	4928 	0.042544
39.99 	0.049270 	4932 	0.048201
40.01 	0.042090 	4918 	0.041852
40.03 	0.044846 	4928 	0.043756
40.05 	0.051658 	4917 	0.051181
40.07 	0.037782 	4923 	0.037167
40.09 	0.048413 	4916 	0.047579
40.11 	0.047193 	4916 	0.046597
40.13 	0.046364 	4896 	0.045407
40.15 	0.048646 	4913 	0.047693
40.17 	0.049716 	4928 	0.049478
40.19 	0.041793 	4929 	0.040962
40.21 	0.045998 	4935 	0.044930
40.23 	0.042985 	4932 	0.042391
40.25 	0.048984 	4920 	0.048269
40.27 	0.044561 	4937 	0.044324
40.29 	0.040999 	4927 	0.040523
40.31 	0.049403 	4939 	0.048691
40.33 	0.042376 	4932 	0.042020
40.35 	0.050417 	4919 	0.049583
40.37 	0.050720 	4929 	0.050364
40.39 	0.045427 	4931 	0.044714
40.41 	0.045279 	4925 	0.045041
40.43 	0.041650 	4922 	0.040698
40.45 	0.049057 	4933 	0.048820
40.47 	0.044937 	4918 	0.044103
40.49 	0.044458 	4926 	0.043249
40.51 	0.041853 	4922 	0.041853
40.53 	0.046583 	4916 	0.045748
40.55 	0.045029 	4908 	0.044670
40.57 	0.046012 	4890 	0.045773
40.59 	0.045169 	4937 	0.044339
40.61 	0.046403 	4935 	0.045691
40.63 	0.047059 	4930 	0.046108
40.65 	0.047600 	4937 	0.047244
40.67 	0.041768 	4932 	0.040818
40.69 	0.041726 	4937 	0.041251
40.71 	0.050892 	4932 	0.050180
40.73 	0.050142 	4926 	0.049310
40.75 	0.042791 	4931 	0.042315
40.77 	0.045353 	4939 	0.044286
40.79 	0.047319 	4924 	0.046368
40.81 	0.047764 	4941 	0.047408
40.83 	0.049716 	4928 	0.048408
40.85 	0.043461 	4924 	0.042628
40.87 	0.045860 	4928 	0.044909
40.89 	0.041979 	4931 	0.041623
40.91 	0.047329 	4923 	0.047091
40.93 	0.041346 	4934 	0.040633
40.95 	0.042337 	4913 	0.041740
40.97 	0.044476 	4924 	0.044238
40.99 	0.045898 	4924 	0.044827
41.01 	0.047435 	4912 	0.046839
41.03 	0.041590 	4905 	0.041351
41.05 	0.043355 	4936 	0.043118
41.07 	0.038134 	4930 	0.037421
41.09 	0.044543 	4939 	0.044188
41.11 	0.047619 	4935 	0.046669
41.13 	0.044773 	4936 	0.044180
41.15 	0.047156 	4941 	0.046564
41.17 	0.045197 	4934 	0.044840
41.19 	0.041176 	4930 	0.040701
41.21 	0.040308 	4937 	0.040071
41.23 	0.048188 	4939 	0.047595
41.25 	0.046219 	4933 	0.045744
41.27 	0.045427 	4931 	0.044714
41.29 	0.043222 	4928 	0.042985
41.31 	0.045814 	4933 	0.045458
41.33 	0.042333 	4937 	0.041621
41.35 	0.040502 	4938 	0.040265
41.37 	0.042648 	4924 	0.042291
41.39 	0.044192 	4933 	0.043480
41.41 	0.045067 	4926 	0.044948
41.43 	0.046054 	4929 	0.044747
41.45 	0.042735 	4914 	0.042139
41.47 	0.041819 	4926 	0.041462
41.49 	0.040065 	4892 	0.039706
41.51 	0.048178 	4940 	0.047348
41.53 	0.043487 	4944 	0.042658
41.55 	0.040122 	4935 	0.039765
41.57 	0.047966 	4941 	0.047136
41.59 	0.046422 	4933 	0.045591
41.61 	0.043408 	4953 	0.042698
41.63 	0.043135 	4938 	0.043016
41.65 	0.043011 	4929 	0.042654
41.67 	0.047976 	4940 	0.047383
41.69 	0.042248 	4947 	0.041774
41.71 	0.041548 	4934 	0.041311
41.73 	0.047204 	4936 	0.046373
41.75 	0.043619 	4929 	0.043025
41.77 	0.046145 	4941 	0.045907
41.79 	0.043285 	4944 	0.042929
41.81 	0.047812 	4936 	0.046981
41.83 	0.039773 	4928 	0.039297
41.85 	0.043531 	4939 	0.043057
41.87 	0.040729 	4935 	0.040373
41.89 	0.045814 	4933 	0.045458
41.91 	0.038088 	4936 	0.037969
41.93 	0.043593 	4932 	0.043355
41.95 	0.042791 	4931 	0.041959
41.97 	0.037648 	4914 	0.037171
41.99 	0.040775 	4905 	0.040416
42.01 	0.048159 	4942 	0.047092
42.03 	0.043329 	4939 	0.042736
42.05 	0.038166 	4952 	0.037812
42.07 	0.040105 	4937 	0.039631
42.09 	0.041229 	4948 	0.040755
42.11 	0.039636 	4945 	0.039399
42.13 	0.038625 	4945 	0.038151
42.15 	0.041717 	4938 	0.041361
42.17 	0.038837 	4918 	0.038122
42.19 	0.036675 	4908 	0.036555
42.21 	0.038768 	4901 	0.038529
42.23 	0.042314 	4892 	0.041835
42.25 	0.041317 	4889 	0.040718
42.27 	0.040419 	4874 	0.040058
42.29 	0.041949 	4863 	0.041347
42.31 	0.039135 	4855 	0.038652
42.33 	0.040960 	4834 	0.040718
42.35 	0.038652 	4838 	0.038269
42.37 	0.038302 	4830 	0.037938
42.39 	0.042048 	4804 	0.041926
42.41 	0.043922 	4804 	0.043800
42.43 	0.039649 	4792 	0.039160
42.45 	0.041039 	4776 	0.040671
42.47 	0.040714 	4765 	0.040591
42.49 	0.039244 	4765 	0.038999
42.51 	0.041746 	4743 	0.041252
42.53 	0.045474 	4728 	0.044730
42.55 	0.044180 	4708 	0.043931
42.57 	0.043763 	4730 	0.043516
42.59 	0.041658 	4729 	0.041039
42.61 	0.042268 	4708 	0.041646
42.63 	0.041622 	4709 	0.041374
42.65 	0.039915 	4685 	0.039414
42.67 	0.039710 	4684 	0.039334
42.69 	0.035088 	4674 	0.034712
42.71 	0.033669 	4663 	0.033418
42.73 	0.037284 	4640 	0.036906
42.75 	0.040719 	4617 	0.040212
42.77 	0.043696 	4600 	0.043568
42.79 	0.039066 	4582 	0.038555
42.81 	0.041429 	4562 	0.041301
42.83 	0.043210 	4536 	0.042693
42.85 	0.040857 	4528 	0.039822
42.87 	0.040676 	4499 	0.040415
42.89 	0.039509 	4480 	0.039378
42.91 	0.039946 	4456 	0.039157
42.93 	0.040486 	4446 	0.040222
42.95 	0.041893 	4416 	0.041760
42.97 	0.036810 	4401 	0.036277
42.99 	0.041277 	4385 	0.041010
43.01 	0.042860 	4363 	0.041921
43.03 	0.042696 	4333 	0.042425
43.05 	0.035838 	4325 	0.035432
43.07 	0.045624 	4296 	0.045078
43.09 	0.037824 	4283 	0.037687
43.11 	0.044653 	4255 	0.043965
43.13 	0.042011 	4237 	0.041734
43.15 	0.040656 	4206 	0.040378
43.17 	0.038047 	4179 	0.038047
43.19 	0.039103 	4194 	0.038545
43.21 	0.038111 	4172 	0.037690
43.23 	0.037313 	4154 	0.037031
43.25 	0.036759 	4135 	0.036618
43.27 	0.043362 	4105 	0.042648
43.29 	0.034878 	4100 	0.033878
43.31 	0.040206 	4079 	0.039488
43.33 	0.039990 	4051 	0.039556
43.35 	0.038442 	4032 	0.038297
43.37 	0.035866 	4015 	0.035282
43.39 	0.042729 	4002 	0.041997
43.41 	0.036002 	3972 	0.035707
43.43 	0.041919 	3960 	0.041623
43.45 	0.042694 	3935 	0.042098
43.47 	0.044121 	3921 	0.043225
43.49 	0.032846 	3897 	0.032545
43.51 	0.046686 	3877 	0.046383
43.53 	0.041936 	3863 	0.041785
43.55 	0.039474 	2964 	0.038881
43.57 	0.037534 	2238 	0.037272
43.59 	0.042383 	1746 	0.042047
43.61 	0.036269 	1351 	0.036269
43.63 	0.028971 	1001 	0.028971
43.65 	0.026201 	687 	0.026201
43.67 	0.043825 	502 	0.043825
43.69 	0.024523 	367 	0.024523
43.71 	0.029289 	239 	0.029289
43.73 	0.033333 	120 	0.033333
43.75 	0.000000 	16 	0.000000