File: Example_Data/25SC_s1_0043.002.dat
#F C:\frames\spec\25SC_s1_0043.002
#C title =s:43 frm:2 25SC_s1
#C wavelength =0.15406

#S 1  fr_average C:\frames\spec\25SC_s1_0043.002 C:\win32app\speccom\mask.axs chi 0 180 0 360 0.02
#C 2 theta =0.000000 to 180 deg
#C   q   =0.000000 to 81.568 nm^-1
#C  chi  =0.000000 to 360 deg
#C collumns:
#C  1 position (2theta or chi in degrees)
#C  2 average intensity (sum of all counts in the region divided with number of pixels)
#C  3 Number of pixels in region)
#C  4 error (sum of sqrt(intensity) for all pixels divided by number)
#N 4
#L TTh  Int  N_pix  Err
32.99 	0.163934 	61 	0.154331
33.01 	0.065292 	873 	0.063950
33.03 	0.056794 	1391 	0.055109
33.05 	0.060899 	1757 	0.060899
33.07 	0.063415 	2050 	0.062843
33.09 	0.060929 	2347 	0.060679
33.11 	0.062040 	2579 	0.060639
33.13 	0.061941 	2793 	0.059809
33.15 	0.058019 	2999 	0.057433
33.17 	0.055295 	3201 	0.054929
33.19 	0.050569 	3342 	0.050218
33.21 	0.060827 	3436 	0.060145
33.23 	0.052228 	3523 	0.051563
33.25 	0.057863 	3612 	0.056701
33.27 	0.060606 	3630 	0.059961
33.29 	0.051261 	3648 	0.050779
33.31 	0.059290 	3660 	0.058009
33.33 	0.056430 	3686 	0.055158
33.35 	0.056578 	3694 	0.054675
33.37 	0.065428 	3714 	0.063378
33.39 	0.063556 	3729 	0.062116
33.41 	0.057487 	3740 	0.056547
33.43 	0.053709 	3761 	0.053242
33.45 	0.058044 	3773 	0.057112
33.47 	0.054239 	3798 	0.052851
33.49 	0.064059 	3809 	0.062496
33.51 	0.061337 	3815 	0.059648
33.53 	0.059880 	3841 	0.058355
33.55 	0.054905 	3843 	0.054143
33.57 	0.062419 	3877 	0.061060
33.59 	0.055412 	3880 	0.054507
33.61 	0.059350 	3909 	0.058601
33.63 	0.056137 	3919 	0.055215
33.65 	0.058509 	3931 	0.057466
33.67 	0.061963 	3954 	0.061074
33.69 	0.055654 	3953 	0.054617
33.71 	0.060377 	3975 	0.059051
33.73 	0.062937 	4004 	0.062206
33.75 	0.058265 	3999 	0.057386
33.77 	0.062360 	4025 	0.061196
33.79 	0.059639 	4041 	0.059349
33.81 	0.064388 	4038 	0.063083
33.83 	0.055309 	4050 	0.055019
33.85 	0.061722 	4099 	0.061008
33.87 	0.054245 	4111 	0.053390
33.89 	0.061878 	4121 	0.060457
33.91 	0.060014 	4149 	0.058603
33.93 	0.054927 	4151 	0.054221
33.95 	0.059794 	4181 	0.058673
33.97 	0.056086 	4190 	0.054548
33.99 	0.058571 	4200 	0.058153
34.01 	0.059340 	4213 	0.058344
34.03 	0.061499 	4244 	0.060532
34.05 	0.059031 	4252 	0.058067
34.07 	0.051312 	4268 	0.050351
34.09 	0.056463 	4286 	0.055506
34.11 	0.062762 	4302 	0.061536
34.13 	0.058960 	4308 	0.057192
34.15 	0.055414 	4331 	0.054873
34.17 	0.051494 	4350 	0.051225
34.19 	0.054333 	4362 	0.054199
34.21 	0.054679 	4371 	0.054008
34.23 	0.050990 	4393 	0.049657
34.25 	0.056540 	4404 	0.055188
34.27 	0.053143 	4422 	0.051610
34.29 	0.058850 	4435 	0.057925
34.31 	0.055630 	4458 	0.054689
34.33 	0.050548 	4471 	0.049893
34.35 	0.050624 	4484 	0.049579
34.37 	0.056780 	4491 	0.056128
34.39 	0.058418 	4502 	0.057096
34.41 	0.062307 	4526 	0.061530
34.43 	0.061688 	4539 	0.060784
34.45 	0.054245 	4535 	0.052953
34.47 	0.057927 	4592 	0.057544
34.49 	0.062650 	4597 	0.061248
34.51 	0.057317 	4606 	0.056426
34.53 	0.056429 	4643 	0.055798
34.55 	0.053198 	4643 	0.052820
34.57 	0.056438 	4660 	0.055684
34.59 	0.058610 	4675 	0.058234
34.61 	0.055142 	4697 	0.054269
34.63 	0.057537 	4710 	0.055776
34.65 	0.053379 	4721 	0.052882
34.67 	0.056950 	4741 	0.055467
34.69 	0.056163 	4754 	0.055301
34.71 	0.058540 	4766 	0.057556
34.73 	0.054940 	4787 	0.054573
34.75 	0.060108 	4808 	0.059479
34.77 	0.055210 	4818 	0.054339
34.79 	0.058665 	4824 	0.057572
34.81 	0.060681 	4845 	0.059593
34.83 	0.063760 	4862 	0.062555
34.85 	0.056480 	4869 	0.055638
34.87 	0.053410 	4868 	0.052808
34.89 	0.060426 	4882 	0.059826
34.91 	0.054076 	4882 	0.052737
34.93 	0.056950 	4899 	0.055974
34.95 	0.048466 	4890 	0.047867
34.97 	0.058752 	4902 	0.058274
34.99 	0.053094 	4897 	0.052256
35.01 	0.060735 	4923 	0.059069
35.03 	0.056646 	4943 	0.056053
35.05 	0.055791 	4947 	0.054963
35.07 	0.055870 	4940 	0.054566
35.09 	0.059156 	4953 	0.057973
35.11 	0.062462 	4947 	0.061633
35.13 	0.059096 	4958 	0.057797
35.15 	0.052866 	4937 	0.052154
35.17 	0.054590 	4946 	0.053879
35.19 	0.053217 	4942 	0.052506
35.21 	0.050556 	4945 	0.049707
35.23 	0.058443 	4945 	0.057258
35.25 	0.053409 	4943 	0.052461
35.27 	0.048909 	4948 	0.048317
35.29 	0.056421 	4945 	0.054881
35.31 	0.060612 	4933 	0.059306
35.33 	0.054623 	4943 	0.053556
35.35 	0.058478 	4942 	0.057530
35.37 	0.063981 	4939 	0.062320
35.39 	0.052578 	4945 	0.051749
35.41 	0.058465 	4926 	0.057752
35.43 	0.058382 	4933 	0.057670
35.45 	0.050841 	4937 	0.049991
35.47 	0.058000 	4931 	0.056437
35.49 	0.056823 	4910 	0.056107
35.51 	0.058059 	4926 	0.056989
35.53 	0.054759 	4949 	0.053575
35.55 	0.057836 	4945 	0.057224
35.57 	0.061220 	4933 	0.059795
35.59 	0.057027 	4945 	0.056317
35.61 	0.061514 	4942 	0.060565
35.63 	0.057455 	4943 	0.055914
35.65 	0.053994 	4945 	0.053027
35.67 	0.050384 	4942 	0.049555
35.69 	0.056005 	4946 	0.055294
35.71 	0.059145 	4937 	0.058552
35.73 	0.060575 	4936 	0.059745
35.75 	0.061854 	4931 	0.061378
35.77 	0.060392 	4951 	0.059800
35.79 	0.062855 	4932 	0.062142
35.81 	0.057774 	4933 	0.056824
35.83 	0.054387 	4946 	0.053795
35.85 	0.057548 	4935 	0.056361
35.87 	0.057892 	4923 	0.056583
35.89 	0.053912 	4934 	0.053318
35.91 	0.057845 	4927 	0.057131
35.93 	0.057033 	4927 	0.056200
35.95 	0.054708 	4917 	0.053755
35.97 	0.053950 	4912 	0.053115
35.99 	0.057502 	4939 	0.056790
36.01 	0.049290 	4930 	0.047983
36.03 	0.049970 	4943 	0.048666
36.05 	0.058241 	4945 	0.057885
36.07 	0.053250 	4939 	0.052182
36.09 	0.054049 	4940 	0.053456
36.11 	0.060256 	4929 	0.058948
36.13 	0.052610 	4942 	0.052492
36.15 	0.052035 	4939 	0.051205
36.17 	0.054619 	4925 	0.053787
36.19 	0.054858 	4940 	0.054503
36.21 	0.054981 	4929 	0.054268
36.23 	0.058359 	4935 	0.056816
36.25 	0.061526 	4941 	0.060696
36.27 	0.050558 	4925 	0.049726
36.29 	0.056581 	4931 	0.055492
36.31 	0.056615 	4928 	0.055783
36.33 	0.054328 	4933 	0.053734
36.35 	0.051532 	4929 	0.050938
36.37 	0.056470 	4923 	0.055994
36.39 	0.060150 	4921 	0.058365
36.41 	0.060458 	4896 	0.059959
36.43 	0.057224 	4928 	0.056392
36.45 	0.054564 	4930 	0.053851
36.47 	0.051864 	4936 	0.050914
36.49 	0.058074 	4942 	0.057244
36.51 	0.050476 	4933 	0.049526
36.53 	0.062108 	4943 	0.060666
36.55 	0.056018 	4927 	0.055423
36.57 	0.050466 	4934 	0.049477
36.59 	0.060134 	4939 	0.059659
36.61 	0.059420 	4931 	0.058707
36.63 	0.062056 	4931 	0.060750
36.65 	0.050487 	4932 	0.050130
36.67 	0.051521 	4930 	0.050808
36.69 	0.053155 	4929 	0.051709
36.71 	0.052632 	4921 	0.051679
36.73 	0.055838 	4925 	0.053816
36.75 	0.054005 	4944 	0.052820
36.77 	0.058955 	4919 	0.057645
36.79 	0.051006 	4921 	0.050411
36.81 	0.054312 	4916 	0.053220
36.83 	0.060224 	4915 	0.059489
36.85 	0.050633 	4898 	0.049676
36.87 	0.054814 	4944 	0.053629
36.89 	0.052685 	4916 	0.052328
36.91 	0.054038 	4941 	0.053563
36.93 	0.049290 	4930 	0.048696
36.95 	0.053720 	4933 	0.052770
36.97 	0.063235 	4934 	0.061691
36.99 	0.056738 	4935 	0.055313
37.01 	0.051693 	4933 	0.051218
37.03 	0.053412 	4924 	0.052698
37.05 	0.057236 	4927 	0.056522
37.07 	0.064843 	4935 	0.063537
37.09 	0.049716 	4928 	0.048745
37.11 	0.053090 	4935 	0.052497
37.13 	0.053615 	4924 	0.052663
37.15 	0.046038 	4909 	0.045322
37.17 	0.048237 	4934 	0.047524
37.19 	0.057259 	4925 	0.055555
37.21 	0.052674 	4917 	0.052436
37.23 	0.051850 	4918 	0.051493
37.25 	0.055182 	4911 	0.054467
37.27 	0.048835 	4894 	0.048357
37.29 	0.052738 	4930 	0.052501
37.31 	0.058359 	4935 	0.057053
37.33 	0.056424 	4927 	0.055116
37.35 	0.051438 	4938 	0.050370
37.37 	0.050741 	4927 	0.049314
37.39 	0.053539 	4931 	0.052331
37.41 	0.049888 	4931 	0.049413
37.43 	0.054745 	4932 	0.054151
37.45 	0.053615 	4924 	0.052882
37.47 	0.054778 	4929 	0.053946
37.49 	0.048548 	4923 	0.048072
37.51 	0.052301 	4933 	0.051470
37.53 	0.052856 	4919 	0.051546
37.55 	0.052941 	4930 	0.052466
37.57 	0.050152 	4925 	0.049439
37.59 	0.064496 	4915 	0.063543
37.61 	0.052011 	4922 	0.050464
37.63 	0.050010 	4919 	0.049177
37.65 	0.050224 	4918 	0.049112
37.67 	0.051998 	4904 	0.051401
37.69 	0.055941 	4898 	0.055224
37.71 	0.048894 	4929 	0.047805
37.73 	0.047068 	4929 	0.046474
37.75 	0.050202 	4940 	0.049491
37.77 	0.053252 	4920 	0.052776
37.79 	0.048884 	4930 	0.047459
37.81 	0.045408 	4933 	0.044458
37.83 	0.047358 	4920 	0.046762
37.85 	0.054043 	4922 	0.053448
37.87 	0.057299 	4939 	0.055994
37.89 	0.050558 	4925 	0.049726
37.91 	0.060041 	4930 	0.058833
37.93 	0.054686 	4919 	0.053971
37.95 	0.049990 	4921 	0.049633
37.97 	0.057010 	4929 	0.055702
37.99 	0.054764 	4912 	0.053929
38.01 	0.052760 	4928 	0.052047
38.03 	0.056427 	4909 	0.055711
38.05 	0.051574 	4925 	0.050979
38.07 	0.053779 	4909 	0.052685
38.09 	0.049405 	4878 	0.048565
38.11 	0.053698 	4935 	0.052392
38.13 	0.055499 	4937 	0.054313
38.15 	0.049410 	4918 	0.048815
38.17 	0.054361 	4930 	0.053529
38.19 	0.056592 	4930 	0.055998
38.21 	0.057282 	4923 	0.056211
38.23 	0.058121 	4938 	0.058002
38.25 	0.062640 	4917 	0.061528
38.27 	0.054361 	4930 	0.053886
38.29 	0.057677 	4924 	0.056963
38.31 	0.062513 	4927 	0.061918
38.33 	0.059911 	4924 	0.059078
38.35 	0.059253 	4928 	0.058302
38.37 	0.062145 	4924 	0.060955
38.39 	0.066205 	4909 	0.065370
38.41 	0.068048 	4923 	0.066025
38.43 	0.066314 	4916 	0.064408
38.45 	0.061000 	4918 	0.060167
38.47 	0.062971 	4907 	0.061758
38.49 	0.069510 	4877 	0.068429
38.51 	0.068735 	4932 	0.067666
38.53 	0.065936 	4929 	0.064510
38.55 	0.065640 	4936 	0.064453
38.57 	0.062767 	4923 	0.061438
38.59 	0.055849 	4924 	0.054897
38.61 	0.062196 	4936 	0.061009
38.63 	0.060114 	4924 	0.058448
38.65 	0.057544 	4918 	0.056948
38.67 	0.056512 	4937 	0.055444
38.69 	0.056481 	4922 	0.055648
38.71 	0.047725 	4924 	0.047250
38.73 	0.053477 	4918 	0.052405
38.75 	0.057033 	4927 	0.056082
38.77 	0.047938 	4923 	0.046748
38.79 	0.052088 	4934 	0.051256
38.81 	0.054153 	4912 	0.053318
38.83 	0.055092 	4919 	0.054616
38.85 	0.053135 	4912 	0.051704
38.87 	0.050499 	4911 	0.050260
38.89 	0.048397 	4897 	0.047899
38.91 	0.045890 	4903 	0.045293
38.93 	0.043742 	4938 	0.042912
38.95 	0.049004 	4918 	0.047813
38.97 	0.051105 	4931 	0.050155
38.99 	0.053069 	4937 	0.051625
39.01 	0.052257 	4918 	0.051285
39.03 	0.048439 	4934 	0.047727
39.05 	0.045888 	4925 	0.045056
39.07 	0.053006 	4924 	0.052768
39.09 	0.052204 	4923 	0.051847
39.11 	0.046644 	4931 	0.045575
39.13 	0.046719 	4923 	0.046482
39.15 	0.050458 	4915 	0.049743
39.17 	0.039903 	4937 	0.039665
39.19 	0.049217 	4917 	0.048483
39.21 	0.047862 	4910 	0.047384
39.23 	0.046294 	4925 	0.045462
39.25 	0.045916 	4922 	0.045678
39.27 	0.045621 	4910 	0.044647
39.29 	0.049582 	4901 	0.048964
39.31 	0.046069 	4884 	0.045589
39.33 	0.045630 	4931 	0.045273
39.35 	0.044174 	4935 	0.043581
39.37 	0.048286 	4929 	0.047810
39.39 	0.046257 	4929 	0.045781
39.41 	0.048874 	4931 	0.048399
39.43 	0.043989 	4933 	0.043514
39.45 	0.043858 	4925 	0.043144
39.47 	0.043673 	4923 	0.043078
39.49 	0.050679 	4933 	0.050085
39.51 	0.038383 	4924 	0.037908
39.53 	0.047735 	4923 	0.047121
39.55 	0.042285 	4919 	0.042166
39.57 	0.048247 	4933 	0.047415
39.59 	0.050285 	4912 	0.049569
39.61 	0.044891 	4923 	0.044177
39.63 	0.049980 	4922 	0.048671
39.65 	0.040601 	4926 	0.040244
39.67 	0.041115 	4913 	0.040758
39.69 	0.048413 	4916 	0.047579
39.71 	0.047600 	4895 	0.047121
39.73 	0.045436 	4908 	0.045078
39.75 	0.043019 	4928 	0.042187
39.77 	0.042958 	4935 	0.042365
39.79 	0.048924 	4926 	0.048092
39.81 	0.048102 	4927 	0.047865
39.83 	0.039319 	4934 	0.038963
39.85 	0.045058 	4927 	0.044463
39.87 	0.045076 	4925 	0.044362
39.89 	0.039724 	4934 	0.039012
39.91 	0.044494 	4922 	0.044018
39.93 	0.045574 	4937 	0.044605
39.95 	0.043133 	4915 	0.042418
39.97 	0.043222 	4928 	0.042747
39.99 	0.041768 	4932 	0.041412
40.01 	0.042904 	4918 	0.042308
40.03 	0.040584 	4928 	0.040109
40.05 	0.043929 	4917 	0.043691
40.07 	0.048954 	4923 	0.048478
40.09 	0.048210 	4916 	0.047852
40.11 	0.042311 	4916 	0.041953
40.13 	0.040033 	4896 	0.039554
40.15 	0.048646 	4913 	0.048408
40.17 	0.045252 	4928 	0.044538
40.19 	0.038750 	4929 	0.038156
40.21 	0.045390 	4935 	0.045034
40.23 	0.045418 	4932 	0.044586
40.25 	0.047358 	4920 	0.046286
40.27 	0.042536 	4937 	0.041805
40.29 	0.042216 	4927 	0.042097
40.31 	0.047580 	4939 	0.047343
40.33 	0.041768 	4932 	0.041055
40.35 	0.043301 	4919 	0.043063
40.37 	0.043417 	4929 	0.042822
40.39 	0.038735 	4931 	0.038616
40.41 	0.047716 	4925 	0.047597
40.43 	0.044494 	4922 	0.043403
40.45 	0.043989 	4933 	0.043633
40.47 	0.045750 	4918 	0.045036
40.49 	0.045270 	4926 	0.044794
40.51 	0.041447 	4922 	0.040851
40.53 	0.043328 	4916 	0.042851
40.55 	0.040342 	4908 	0.039984
40.57 	0.039468 	4890 	0.039109
40.59 	0.046790 	4937 	0.046552
40.61 	0.042958 	4935 	0.042365
40.63 	0.041582 	4930 	0.041107
40.65 	0.039498 	4937 	0.039260
40.67 	0.045418 	4932 	0.044705
40.69 	0.041118 	4937 	0.040762
40.71 	0.043390 	4932 	0.042796
40.73 	0.039992 	4926 	0.039754
40.75 	0.043399 	4931 	0.043043
40.77 	0.038469 	4939 	0.037995
40.79 	0.044679 	4924 	0.044084
40.81 	0.046752 	4941 	0.046021
40.83 	0.042614 	4928 	0.042495
40.85 	0.042445 	4924 	0.042088
40.87 	0.039367 	4928 	0.038654
40.89 	0.044818 	4931 	0.044343
40.91 	0.039610 	4923 	0.039610
40.93 	0.044994 	4934 	0.044756
40.95 	0.044372 	4913 	0.043657
40.97 	0.043461 	4924 	0.042985
40.99 	0.042039 	4924 	0.041306
41.01 	0.042752 	4912 	0.042514
41.03 	0.042406 	4905 	0.041431
41.05 	0.043760 	4936 	0.042929
41.07 	0.040568 	4930 	0.040093
41.09 	0.041506 	4939 	0.040913
41.11 	0.040932 	4935 	0.040220
41.13 	0.039506 	4936 	0.039031
41.15 	0.042299 	4941 	0.041943
41.17 	0.043373 	4934 	0.042898
41.19 	0.040771 	4930 	0.040296
41.21 	0.046587 	4937 	0.045875
41.23 	0.035432 	4939 	0.035314
41.25 	0.040746 	4933 	0.040509
41.27 	0.043602 	4931 	0.043127
41.29 	0.040584 	4928 	0.039871
41.31 	0.039935 	4933 	0.039698
41.33 	0.039295 	4937 	0.038702
41.35 	0.039287 	4938 	0.038813
41.37 	0.043258 	4924 	0.042782
41.39 	0.046422 	4933 	0.045453
41.41 	0.037556 	4926 	0.037318
41.43 	0.041185 	4929 	0.040452
41.45 	0.043549 	4914 	0.043072
41.47 	0.039789 	4926 	0.039432
41.49 	0.039043 	4892 	0.038924
41.51 	0.041700 	4940 	0.041463
41.53 	0.042678 	4944 	0.042066
41.55 	0.041135 	4935 	0.041016
41.57 	0.039870 	4941 	0.038754
41.59 	0.038111 	4933 	0.037873
41.61 	0.035736 	4953 	0.035618
41.63 	0.038680 	4938 	0.038205
41.65 	0.041996 	4929 	0.041640
41.67 	0.039879 	4940 	0.039523
41.69 	0.039418 	4947 	0.038826
41.71 	0.037900 	4934 	0.037782
41.73 	0.041937 	4936 	0.040750
41.75 	0.035910 	4929 	0.035553
41.77 	0.038251 	4941 	0.038014
41.79 	0.040655 	4944 	0.040300
41.81 	0.039303 	4936 	0.038947
41.83 	0.035308 	4928 	0.035071
41.85 	0.039684 	4939 	0.039328
41.87 	0.040122 	4935 	0.039884
41.89 	0.036692 	4933 	0.036335
41.91 	0.040113 	4936 	0.039757
41.93 	0.040349 	4932 	0.039755
41.95 	0.036301 	4931 	0.035707
41.97 	0.038869 	4914 	0.038630
41.99 	0.037717 	4905 	0.036881
42.01 	0.041684 	4942 	0.041209
42.03 	0.041304 	4939 	0.041067
42.05 	0.033118 	4952 	0.032645
42.07 	0.038687 	4937 	0.037976
42.09 	0.035368 	4948 	0.034539
42.11 	0.042872 	4945 	0.042753
42.13 	0.039029 	4945 	0.038911
42.15 	0.043945 	4938 	0.043332
42.17 	0.041887 	4918 	0.041768
42.19 	0.041361 	4908 	0.040645
42.21 	0.039584 	4901 	0.038986
42.23 	0.039248 	4892 	0.038769
42.25 	0.041931 	4889 	0.041571
42.27 	0.039803 	4874 	0.039082
42.29 	0.043594 	4863 	0.043233
42.31 	0.042019 	4855 	0.040933
42.33 	0.040339 	4834 	0.040218
42.35 	0.035138 	4838 	0.035138
42.37 	0.036646 	4830 	0.036403
42.39 	0.038301 	4804 	0.037814
42.41 	0.039342 	4804 	0.038712
42.43 	0.044032 	4792 	0.043298
42.45 	0.037270 	4776 	0.036902
42.47 	0.043652 	4765 	0.043283
42.49 	0.036097 	4765 	0.035974
42.51 	0.037318 	4743 	0.036948
42.53 	0.042301 	4728 	0.041682
42.55 	0.036534 	4708 	0.036036
42.57 	0.039958 	4730 	0.039958
42.59 	0.036794 	4729 	0.036051
42.61 	0.036321 	4708 	0.036321
42.63 	0.040773 	4709 	0.040275
42.65 	0.038207 	4685 	0.037207
42.67 	0.039496 	4684 	0.038996
42.69 	0.041292 	4674 	0.041042
42.71 	0.039674 	4663 	0.039297
42.73 	0.042672 	4640 	0.042167
42.75 	0.044401 	4617 	0.044147
42.77 	0.039783 	4600 	0.039783
42.79 	0.039721 	4582 	0.038826
42.81 	0.039456 	4562 	0.039071
42.83 	0.039021 	4536 	0.038505
42.85 	0.036219 	4528 	0.035702
42.87 	0.038898 	4499 	0.037986
42.89 	0.044866 	4480 	0.044343
42.91 	0.034785 	4456 	0.034522
42.93 	0.037562 	4446 	0.037167
42.95 	0.040534 	4416 	0.040136
42.97 	0.040900 	4401 	0.040767
42.99 	0.038997 	4385 	0.038596
43.01 	0.039193 	4363 	0.039193
43.03 	0.036464 	4333 	0.036329
43.05 	0.038382 	4325 	0.037840
43.07 	0.039106 	4296 	0.038970
43.09 	0.042961 	4283 	0.042687
43.11 	0.048649 	4255 	0.048098
43.13 	0.036346 	4237 	0.036070
43.15 	0.038279 	4206 	0.037304
43.17 	0.037808 	4179 	0.037528
43.19 	0.035765 	4194 	0.035207
43.21 	0.035235 	4172 	0.035094
43.23 	0.038758 	4154 	0.038053
43.25 	0.038210 	4135 	0.038069
43.27 	0.042631 	4105 	0.042203
43.29 	0.034878 	4100 	0.034307
43.31 	0.046335 	4079 	0.045760
43.33 	0.034313 	4051 	0.033590
43.35 	0.037946 	4032 	0.037511
43.37 	0.031880 	4015 	0.031880
43.39 	0.037981 	4002 	0.037981
43.41 	0.038771 	3972 	0.038181
43.43 	0.042424 	3960 	0.041980
43.45 	0.038628 	3935 	0.038181
43.47 	0.035705 	3921 	0.035083
43.49 	0.034642 	3897 	0.034492
43.51 	0.041785 	3877 	0.041634
43.53 	0.038312 	3863 	0.037226
43.55 	0.037787 	2964 	0.037392
43.57 	0.032172 	2238 	0.031910
43.59 	0.041810 	1746 	0.041139
43.61 	0.037750 	1351 	0.036883
43.63 	0.042957 	1001 	0.042957
43.65 	0.045124 	687 	0.045124
43.67 	0.053785 	502 	0.053785
43.69 	0.035422 	367 	0.035422
43.71 	0.037657 	239 	0.037657
43.73 	0.033333 	120 	0.033333
43.75 	0.000000 	16 	0.000000