File: Example_Data/25SC_s1_0009.002.dat
#F C:\frames\spec\25SC_s1_0009.002
#C title =s:9 frm:2 25SC_s1
#C wavelength =0.15406

#S 1  fr_average C:\frames\spec\25SC_s1_0009.002 C:\win32app\speccom\mask.axs chi 0 180 0 360 0.02
#C 2 theta =0.000000 to 180 deg
#C   q   =0.000000 to 81.568 nm^-1
#C  chi  =0.000000 to 360 deg
#C collumns:
#C  1 position (2theta or chi in degrees)
#C  2 average intensity (sum of all counts in the region divided with number of pixels)
#C  3 Number of pixels in region)
#C  4 error (sum of sqrt(intensity) for all pixels divided by number)
#N 4
#L TTh  Int  N_pix  Err
32.99 	0.081967 	61 	0.081967
33.01 	0.064147 	873 	0.063476
33.03 	0.046729 	1391 	0.046729
33.05 	0.051793 	1757 	0.050793
33.07 	0.064390 	2050 	0.062962
33.09 	0.060503 	2347 	0.058424
33.11 	0.069407 	2579 	0.067817
33.13 	0.066237 	2793 	0.065608
33.15 	0.057352 	2999 	0.056180
33.17 	0.057794 	3201 	0.056696
33.19 	0.058947 	3342 	0.057194
33.21 	0.057625 	3436 	0.056091
33.23 	0.052228 	3523 	0.051729
33.25 	0.058416 	3612 	0.057443
33.27 	0.052617 	3630 	0.052133
33.29 	0.061952 	3648 	0.059838
33.31 	0.054645 	3660 	0.053845
33.33 	0.063755 	3686 	0.062775
33.35 	0.058202 	3694 	0.056775
33.37 	0.056812 	3714 	0.055866
33.39 	0.061679 	3729 	0.060265
33.41 	0.059626 	3740 	0.058373
33.43 	0.062749 	3761 	0.062126
33.45 	0.056189 	3773 	0.054481
33.47 	0.058715 	3798 	0.058098
33.49 	0.053557 	3809 	0.052635
33.51 	0.053735 	3815 	0.052814
33.53 	0.055715 	3841 	0.054342
33.55 	0.059589 	3843 	0.058217
33.57 	0.054166 	3877 	0.053108
33.59 	0.057732 	3880 	0.056524
33.61 	0.059606 	3909 	0.058233
33.63 	0.064557 	3919 	0.063362
33.65 	0.053676 	3931 	0.052931
33.67 	0.059939 	3954 	0.059050
33.69 	0.057931 	3953 	0.057017
33.71 	0.059874 	3975 	0.058843
33.73 	0.051698 	4004 	0.050967
33.75 	0.055264 	3999 	0.054238
33.77 	0.059876 	4025 	0.058857
33.79 	0.060629 	4041 	0.059904
33.81 	0.057702 	4038 	0.056686
33.83 	0.054074 	4050 	0.053785
33.85 	0.054160 	4099 	0.053302
33.87 	0.059110 	4111 	0.058540
33.89 	0.053385 	4121 	0.052532
33.91 	0.052784 	4149 	0.052078
33.93 	0.058540 	4151 	0.057693
33.95 	0.059077 	4181 	0.057816
33.97 	0.059427 	4190 	0.058728
33.99 	0.058810 	4200 	0.057950
34.01 	0.060527 	4213 	0.059670
34.03 	0.060085 	4244 	0.058567
34.05 	0.060207 	4252 	0.059518
34.07 	0.053655 	4268 	0.053106
34.09 	0.054830 	4286 	0.053714
34.11 	0.054858 	4302 	0.054041
34.13 	0.063138 	4308 	0.062458
34.15 	0.054491 	4331 	0.053679
34.17 	0.057241 	4350 	0.056029
34.19 	0.065108 	4362 	0.063608
34.21 	0.053992 	4371 	0.052250
34.23 	0.052584 	4393 	0.051650
34.25 	0.056085 	4404 	0.054733
34.27 	0.066033 	4422 	0.063716
34.29 	0.063585 	4435 	0.062000
34.31 	0.055630 	4458 	0.055236
34.33 	0.060613 	4471 	0.060089
34.35 	0.053078 	4484 	0.052555
34.37 	0.061011 	4491 	0.059424
34.39 	0.055087 	4502 	0.054826
34.41 	0.061423 	4526 	0.060776
34.43 	0.061247 	4539 	0.060085
34.45 	0.062183 	4535 	0.061666
34.47 	0.062936 	4592 	0.062170
34.49 	0.065260 	4597 	0.064495
34.51 	0.061876 	4606 	0.060710
34.53 	0.054491 	4643 	0.053481
34.55 	0.061383 	4643 	0.059974
34.57 	0.058798 	4660 	0.057793
34.59 	0.055829 	4675 	0.055202
34.61 	0.058335 	4697 	0.057587
34.63 	0.057113 	4710 	0.055993
34.65 	0.058886 	4721 	0.057893
34.67 	0.057161 	4741 	0.056420
34.69 	0.060581 	4754 	0.059841
34.71 	0.055392 	4766 	0.055024
34.73 	0.052434 	4787 	0.051822
34.75 	0.058236 	4808 	0.057018
34.77 	0.051889 	4818 	0.050916
34.79 	0.061153 	4824 	0.060040
34.81 	0.062332 	4845 	0.061607
34.83 	0.059852 	4862 	0.057663
34.85 	0.058328 	4869 	0.056764
34.87 	0.062243 	4868 	0.061281
34.89 	0.058787 	4882 	0.057827
34.91 	0.050594 	4882 	0.049874
34.93 	0.054501 	4899 	0.053764
34.95 	0.055010 	4890 	0.054052
34.97 	0.057732 	4902 	0.057373
34.99 	0.051868 	4897 	0.050653
35.01 	0.065610 	4923 	0.063945
35.03 	0.059073 	4943 	0.058244
35.05 	0.061451 	4947 	0.059794
35.07 	0.059109 	4940 	0.058161
35.09 	0.056935 	4953 	0.055634
35.11 	0.057611 	4947 	0.057236
35.13 	0.053651 	4958 	0.052942
35.15 	0.061778 	4937 	0.060473
35.17 	0.057420 	4946 	0.056473
35.19 	0.060502 	4942 	0.059198
35.21 	0.066127 	4945 	0.065160
35.23 	0.061476 	4945 	0.058495
35.25 	0.053813 	4943 	0.052747
35.27 	0.061641 	4948 	0.060694
35.29 	0.065521 	4945 	0.064317
35.31 	0.055950 	4933 	0.054762
35.33 	0.063322 	4943 	0.062137
35.35 	0.062525 	4942 	0.061577
35.37 	0.060741 	4939 	0.059555
35.39 	0.060061 	4945 	0.059231
35.41 	0.052375 	4926 	0.051662
35.43 	0.058180 	4933 	0.056992
35.45 	0.056715 	4937 	0.055884
35.47 	0.054553 	4931 	0.054196
35.49 	0.059267 	4910 	0.058432
35.51 	0.059683 	4926 	0.059089
35.53 	0.063245 	4949 	0.062417
35.55 	0.057634 	4945 	0.056923
35.57 	0.053112 	4933 	0.052518
35.59 	0.059858 	4945 	0.058773
35.61 	0.056860 	4942 	0.055674
35.63 	0.055634 	4943 	0.054805
35.65 	0.059656 	4945 	0.058472
35.67 	0.056253 	4942 	0.055304
35.69 	0.062677 	4946 	0.061848
35.71 	0.062791 	4937 	0.061486
35.73 	0.059968 	4936 	0.058899
35.75 	0.063882 	4931 	0.063030
35.77 	0.058170 	4951 	0.057815
35.79 	0.062855 	4932 	0.061410
35.81 	0.056761 	4933 	0.055811
35.83 	0.056409 	4946 	0.055699
35.85 	0.052685 	4935 	0.051973
35.87 	0.056063 	4923 	0.054754
35.89 	0.061816 	4934 	0.060273
35.91 	0.064948 	4927 	0.063403
35.93 	0.058656 	4927 	0.057091
35.95 	0.055318 	4917 	0.054365
35.97 	0.060057 	4912 	0.059341
35.99 	0.062158 	4939 	0.060972
36.01 	0.069168 	4930 	0.067466
36.03 	0.056443 	4943 	0.055732
36.05 	0.062083 	4945 	0.060642
36.07 	0.052440 	4939 	0.051847
36.09 	0.062955 	4940 	0.062007
36.11 	0.056807 	4929 	0.055856
36.13 	0.065358 	4942 	0.064153
36.15 	0.057704 	4939 	0.056755
36.17 	0.058274 	4925 	0.057917
36.19 	0.058300 	4940 	0.057351
36.21 	0.052952 	4929 	0.052477
36.23 	0.057953 	4935 	0.056984
36.25 	0.058085 	4941 	0.056781
36.27 	0.063350 	4925 	0.061923
36.29 	0.054958 	4931 	0.054721
36.31 	0.059862 	4928 	0.059387
36.33 	0.060004 	4933 	0.059035
36.35 	0.058633 	4929 	0.057405
36.37 	0.058501 	4923 	0.057668
36.39 	0.055680 	4921 	0.054727
36.41 	0.061887 	4896 	0.061050
36.43 	0.054180 	4928 	0.053586
36.45 	0.058012 	4930 	0.057062
36.47 	0.058347 	4936 	0.057516
36.49 	0.061918 	4942 	0.061089
36.51 	0.059599 	4933 	0.058767
36.53 	0.054420 	4943 	0.053117
36.55 	0.059265 	4927 	0.057839
36.57 	0.052696 	4934 	0.051983
36.59 	0.064386 	4939 	0.063199
36.61 	0.060028 	4931 	0.059434
36.63 	0.058609 	4931 	0.056946
36.65 	0.057380 	4932 	0.055836
36.67 	0.058621 	4930 	0.057195
36.69 	0.051329 	4929 	0.050616
36.71 	0.058321 	4921 	0.057607
36.73 	0.059086 	4925 	0.057421
36.75 	0.062298 	4944 	0.061350
36.77 	0.053466 	4919 	0.052990
36.79 	0.055273 	4921 	0.054678
36.81 	0.060415 	4916 	0.059938
36.83 	0.058800 	4915 	0.057489
36.85 	0.058391 	4898 	0.057434
36.87 	0.061084 	4944 	0.060373
36.89 	0.061839 	4916 	0.060509
36.91 	0.063752 	4941 	0.062685
36.93 	0.054361 	4930 	0.053529
36.95 	0.061220 	4933 	0.060033
36.97 	0.059587 	4934 	0.058043
36.99 	0.054306 	4935 	0.053475
37.01 	0.058585 	4933 	0.057279
37.03 	0.060723 	4924 	0.060009
37.05 	0.058656 	4927 	0.057943
37.07 	0.055522 	4935 	0.054810
37.09 	0.055195 	4928 	0.054125
37.11 	0.052482 	4935 	0.052126
37.13 	0.058895 	4924 	0.058419
37.15 	0.060297 	4909 	0.059104
37.17 	0.058979 	4934 	0.057910
37.19 	0.062538 	4925 	0.061824
37.21 	0.049014 	4917 	0.048537
37.23 	0.052867 	4918 	0.051676
37.25 	0.051110 	4911 	0.050394
37.27 	0.054352 	4894 	0.053634
37.29 	0.053753 	4930 	0.052901
37.31 	0.055927 	4935 	0.055334
37.33 	0.053785 	4927 	0.053310
37.35 	0.053260 	4938 	0.052430
37.37 	0.058047 	4927 	0.057215
37.39 	0.058812 	4931 	0.057861
37.41 	0.061042 	4931 	0.059736
37.43 	0.052920 	4932 	0.052445
37.45 	0.055037 	4924 	0.053966
37.47 	0.053763 	4929 	0.053050
37.49 	0.058501 	4923 	0.057311
37.51 	0.060004 	4933 	0.059054
37.53 	0.055499 	4919 	0.054665
37.55 	0.056389 	4930 	0.054964
37.57 	0.052995 	4925 	0.052281
37.59 	0.053306 	4915 	0.052214
37.61 	0.046526 	4922 	0.045693
37.63 	0.057329 	4919 	0.056614
37.65 	0.049817 	4918 	0.049102
37.67 	0.054038 	4904 	0.052962
37.69 	0.057166 	4898 	0.056209
37.71 	0.052140 	4929 	0.050952
37.73 	0.050923 	4929 	0.049735
37.75 	0.057895 	4940 	0.057302
37.77 	0.050407 	4920 	0.049573
37.79 	0.049899 	4930 	0.049661
37.81 	0.052098 	4933 	0.051504
37.83 	0.052642 	4920 	0.051908
37.85 	0.054856 	4922 	0.054023
37.87 	0.052440 	4939 	0.051491
37.89 	0.055228 	4925 	0.054634
37.91 	0.059026 	4930 	0.058195
37.93 	0.049400 	4919 	0.048448
37.95 	0.055273 	4921 	0.054182
37.97 	0.052140 	4929 	0.051665
37.99 	0.058632 	4912 	0.058155
38.01 	0.050122 	4928 	0.049527
38.03 	0.051742 	4909 	0.051026
38.05 	0.058274 	4925 	0.056946
38.07 	0.052149 	4909 	0.051314
38.09 	0.053506 	4878 	0.052785
38.11 	0.045795 	4935 	0.045083
38.13 	0.056917 	4937 	0.055731
38.15 	0.056324 	4918 	0.055133
38.17 	0.047667 	4930 	0.047311
38.19 	0.057201 	4930 	0.056726
38.21 	0.058298 	4923 	0.057822
38.23 	0.054881 	4938 	0.054050
38.25 	0.049217 	4917 	0.048979
38.27 	0.055781 	4930 	0.054930
38.29 	0.056052 	4924 	0.054624
38.31 	0.056018 	4927 	0.055423
38.33 	0.050772 	4924 	0.049444
38.35 	0.058847 	4928 	0.058015
38.37 	0.053006 	4924 	0.052292
38.39 	0.057038 	4909 	0.055964
38.41 	0.057688 	4923 	0.056974
38.43 	0.059805 	4916 	0.058851
38.45 	0.052664 	4918 	0.051949
38.47 	0.061137 	4907 	0.060302
38.49 	0.057207 	4877 	0.056367
38.51 	0.059205 	4932 	0.058136
38.53 	0.057010 	4929 	0.056277
38.55 	0.058144 	4936 	0.057195
38.57 	0.061954 	4923 	0.060764
38.59 	0.062957 	4924 	0.062005
38.61 	0.057334 	4936 	0.055772
38.63 	0.062348 	4924 	0.061396
38.65 	0.068524 	4918 	0.066202
38.67 	0.059145 	4937 	0.058671
38.69 	0.059122 	4922 	0.057694
38.71 	0.062957 	4924 	0.061767
38.73 	0.059577 	4918 	0.058743
38.75 	0.059265 	4927 	0.058314
38.77 	0.063579 	4923 	0.061894
38.79 	0.064248 	4934 	0.063180
38.81 	0.059446 	4912 	0.058492
38.83 	0.057329 	4919 	0.056257
38.85 	0.051914 	4912 	0.051198
38.87 	0.051721 	4911 	0.051005
38.89 	0.057790 	4897 	0.057192
38.91 	0.051397 	4903 	0.050800
38.93 	0.060146 	4938 	0.059434
38.95 	0.052867 	4918 	0.052152
38.97 	0.052728 	4931 	0.051777
38.99 	0.049625 	4937 	0.048676
39.01 	0.050427 	4918 	0.049712
39.03 	0.048845 	4934 	0.048132
39.05 	0.052792 	4925 	0.051840
39.07 	0.047319 	4924 	0.046605
39.09 	0.043063 	4923 	0.042706
39.11 	0.054350 	4931 	0.053400
39.13 	0.056063 	4923 	0.055587
39.15 	0.048016 	4915 	0.047778
39.17 	0.044764 	4937 	0.043558
39.19 	0.050234 	4917 	0.049757
39.21 	0.045214 	4910 	0.044737
39.23 	0.048731 	4925 	0.048136
39.25 	0.046323 	4922 	0.045847
39.27 	0.049491 	4910 	0.048775
39.29 	0.045501 	4901 	0.044664
39.31 	0.046274 	4884 	0.045794
39.33 	0.044210 	4931 	0.042903
39.35 	0.045390 	4935 	0.045034
39.37 	0.051126 	4929 	0.050769
39.39 	0.046460 	4929 	0.046103
39.41 	0.049686 	4931 	0.049329
39.43 	0.047030 	4933 	0.046436
39.45 	0.047107 	4925 	0.046393
39.47 	0.050173 	4923 	0.049816
39.49 	0.049463 	4933 	0.048513
39.51 	0.041227 	4924 	0.040870
39.53 	0.041032 	4923 	0.040437
39.55 	0.040659 	4919 	0.040301
39.57 	0.045206 	4933 	0.044612
39.59 	0.045399 	4912 	0.044922
39.61 	0.046923 	4923 	0.046209
39.63 	0.047135 	4922 	0.046421
39.65 	0.043646 	4926 	0.043051
39.67 	0.054142 	4913 	0.052672
39.69 	0.047803 	4916 	0.047207
39.71 	0.047600 	4895 	0.047001
39.73 	0.043195 	4908 	0.042479
39.75 	0.049716 	4928 	0.049122
39.77 	0.046606 	4935 	0.046606
39.79 	0.046488 	4926 	0.046131
39.81 	0.049320 	4927 	0.048845
39.83 	0.042764 	4934 	0.042171
39.85 	0.048711 	4927 	0.047998
39.87 	0.043249 	4925 	0.042634
39.89 	0.046615 	4934 	0.046022
39.91 	0.042869 	4922 	0.042631
39.93 	0.047195 	4937 	0.046483
39.95 	0.038657 	4915 	0.038538
39.97 	0.046266 	4928 	0.046028
39.99 	0.048865 	4932 	0.048389
40.01 	0.045954 	4918 	0.045477
40.03 	0.045455 	4928 	0.045098
40.05 	0.051047 	4917 	0.050452
40.07 	0.040219 	4923 	0.039505
40.09 	0.045362 	4916 	0.044766
40.11 	0.044955 	4916 	0.044359
40.13 	0.044730 	4896 	0.043893
40.15 	0.046000 	4913 	0.045047
40.17 	0.042005 	4928 	0.041529
40.19 	0.046054 	4929 	0.045697
40.21 	0.046809 	4935 	0.046334
40.23 	0.046634 	4932 	0.046040
40.25 	0.039228 	4920 	0.038870
40.27 	0.040105 	4937 	0.039631
40.29 	0.041607 	4927 	0.040894
40.31 	0.044948 	4939 	0.044474
40.33 	0.044607 	4932 	0.044369
40.35 	0.048587 	4919 	0.047277
40.37 	0.042605 	4929 	0.041892
40.39 	0.047252 	4931 	0.046777
40.41 	0.041218 	4925 	0.040505
40.43 	0.040837 	4922 	0.040004
40.45 	0.049260 	4933 	0.048291
40.47 	0.044327 	4918 	0.043354
40.49 	0.043849 	4926 	0.043611
40.51 	0.040837 	4922 	0.040242
40.53 	0.043328 	4916 	0.042713
40.55 	0.042584 	4908 	0.041867
40.57 	0.043967 	4890 	0.043009
40.59 	0.041118 	4937 	0.040406
40.61 	0.046403 	4935 	0.045572
40.63 	0.049087 	4930 	0.048612
40.65 	0.045169 	4937 	0.044220
40.67 	0.046026 	4932 	0.045788
40.69 	0.040308 	4937 	0.039359
40.71 	0.044809 	4932 	0.044453
40.73 	0.044458 	4926 	0.043744
40.75 	0.043196 	4931 	0.042464
40.77 	0.042721 	4939 	0.041891
40.79 	0.045898 	4924 	0.045184
40.81 	0.044728 	4941 	0.043898
40.83 	0.046063 	4928 	0.045707
40.85 	0.052193 	4924 	0.051242
40.87 	0.048904 	4928 	0.048072
40.89 	0.043399 	4931 	0.042805
40.91 	0.044079 	4923 	0.043365
40.93 	0.044994 	4934 	0.044044
40.95 	0.038266 	4913 	0.038027
40.97 	0.040820 	4924 	0.040464
40.99 	0.041227 	4924 	0.040513
41.01 	0.045399 	4912 	0.044803
41.03 	0.043629 	4905 	0.043032
41.05 	0.044571 	4936 	0.043740
41.07 	0.045233 	4930 	0.044877
41.09 	0.043126 	4939 	0.042415
41.11 	0.041945 	4935 	0.041233
41.13 	0.042747 	4936 	0.042035
41.15 	0.041490 	4941 	0.041252
41.17 	0.043575 	4934 	0.043100
41.19 	0.044422 	4930 	0.044184
41.21 	0.037270 	4937 	0.036558
41.23 	0.038064 	4939 	0.037590
41.25 	0.045611 	4933 	0.044780
41.27 	0.040154 	4931 	0.039917
41.29 	0.042614 	4928 	0.042138
41.31 	0.041354 	4933 	0.040879
41.33 	0.040308 	4937 	0.039833
41.35 	0.042932 	4938 	0.042221
41.37 	0.037368 	4924 	0.037011
41.39 	0.043584 	4933 	0.042872
41.41 	0.043646 	4926 	0.042932
41.43 	0.041591 	4929 	0.040996
41.45 	0.040700 	4914 	0.040223
41.47 	0.042022 	4926 	0.041665
41.49 	0.040883 	4892 	0.040644
41.51 	0.046154 	4940 	0.045324
41.53 	0.044296 	4944 	0.044178
41.55 	0.047214 	4935 	0.046264
41.57 	0.042299 	4941 	0.041706
41.59 	0.045206 	4933 	0.044731
41.61 	0.040581 	4953 	0.040227
41.63 	0.046983 	4938 	0.046508
41.65 	0.045040 	4929 	0.044802
41.67 	0.044332 	4940 	0.043502
41.69 	0.036386 	4947 	0.035557
41.71 	0.042764 	4934 	0.041933
41.73 	0.040316 	4936 	0.039604
41.75 	0.042605 	4929 	0.041417
41.77 	0.039668 	4941 	0.039431
41.79 	0.038228 	4944 	0.037991
41.81 	0.040519 	4936 	0.040163
41.83 	0.042208 	4928 	0.041970
41.85 	0.042519 	4939 	0.041926
41.87 	0.043364 	4935 	0.042414
41.89 	0.041557 	4933 	0.040963
41.91 	0.040721 	4936 	0.040247
41.93 	0.040957 	4932 	0.040482
41.95 	0.041371 	4931 	0.041015
41.97 	0.036223 	4914 	0.035865
41.99 	0.041794 	4905 	0.041316
42.01 	0.038446 	4942 	0.038327
42.03 	0.040089 	4939 	0.039733
42.05 	0.040388 	4952 	0.039796
42.07 	0.037675 	4937 	0.037200
42.09 	0.045473 	4948 	0.044881
42.11 	0.037614 	4945 	0.037140
42.13 	0.041456 	4945 	0.040745
42.15 	0.035439 	4938 	0.034965
42.17 	0.041277 	4918 	0.041277
42.19 	0.038101 	4908 	0.037385
42.21 	0.043869 	4901 	0.043151
42.23 	0.041087 	4892 	0.040968
42.25 	0.036613 	4889 	0.036014
42.27 	0.041034 	4874 	0.039952
42.29 	0.041538 	4863 	0.041297
42.31 	0.033162 	4855 	0.033041
42.33 	0.035581 	4834 	0.034975
42.35 	0.041339 	4838 	0.040492
42.37 	0.036853 	4830 	0.036368
42.39 	0.039967 	4804 	0.039357
42.41 	0.040799 	4804 	0.040190
42.43 	0.039441 	4792 	0.039074
42.45 	0.043551 	4776 	0.042938
42.47 	0.036726 	4765 	0.036480
42.49 	0.043442 	4765 	0.042704
42.51 	0.039005 	4743 	0.038387
42.53 	0.039552 	4728 	0.039180
42.55 	0.039932 	4708 	0.039932
42.57 	0.039112 	4730 	0.038349
42.59 	0.040389 	4729 	0.040017
42.61 	0.042481 	4708 	0.041734
42.63 	0.040136 	4709 	0.039514
42.65 	0.048026 	4685 	0.047025
42.67 	0.039069 	4684 	0.038944
42.69 	0.039795 	4674 	0.039419
42.71 	0.040103 	4663 	0.039726
42.73 	0.045474 	4640 	0.044843
42.75 	0.039420 	4617 	0.038912
42.77 	0.035435 	4600 	0.035435
42.79 	0.039502 	4582 	0.039375
42.81 	0.039676 	4562 	0.038777
42.83 	0.039462 	4536 	0.039333
42.85 	0.042403 	4528 	0.041885
42.87 	0.036897 	4499 	0.036246
42.89 	0.042188 	4480 	0.041403
42.91 	0.040619 	4456 	0.040356
42.93 	0.041835 	4446 	0.041177
42.95 	0.035553 	4416 	0.035420
42.97 	0.034992 	4401 	0.034327
42.99 	0.037628 	4385 	0.037094
43.01 	0.039193 	4363 	0.038522
43.03 	0.039926 	4333 	0.039250
43.05 	0.034220 	4325 	0.033949
43.07 	0.039572 	4296 	0.039299
43.09 	0.038057 	4283 	0.037214
43.11 	0.035488 	4255 	0.034662
43.13 	0.036582 	4237 	0.036306
43.15 	0.036852 	4206 	0.036713
43.17 	0.042594 	4179 	0.042173
43.19 	0.043157 	4194 	0.043017
43.21 	0.039070 	4172 	0.038508
43.23 	0.042128 	4154 	0.041846
43.25 	0.046191 	4135 	0.045766
43.27 	0.038490 	4105 	0.038204
43.29 	0.041707 	4100 	0.041422
43.31 	0.039470 	4079 	0.039040
43.33 	0.040484 	4051 	0.040484
43.35 	0.041171 	4032 	0.040590
43.37 	0.041843 	4015 	0.041551
43.39 	0.033483 	4002 	0.033191
43.41 	0.038268 	3972 	0.037825
43.43 	0.041414 	3960 	0.040822
43.45 	0.034307 	3935 	0.034159
43.47 	0.034430 	3921 	0.033982
43.49 	0.039261 	3897 	0.039111
43.51 	0.041269 	3877 	0.040514
43.53 	0.041419 	3863 	0.041267
43.55 	0.041498 	2964 	0.040905
43.57 	0.035299 	2238 	0.035038
43.59 	0.037801 	1746 	0.037465
43.61 	0.037010 	1351 	0.035275
43.63 	0.036963 	1001 	0.036963
43.65 	0.034934 	687 	0.034934
43.67 	0.049801 	502 	0.049801
43.69 	0.049046 	367 	0.049046
43.71 	0.033473 	239 	0.033473
43.73 	0.041667 	120 	0.041667
43.75 	0.000000 	16 	0.000000