File: Example_Data/25SC_s1_0046.004.dat
#F C:\frames\spec\25SC_s1_0046.004
#C title =s:46 frm:4 25SC_s1
#C wavelength =0.15406

#S 1  fr_average C:\frames\spec\25SC_s1_0046.004 C:\win32app\speccom\mask.axs chi 0 180 0 360 0.02
#C 2 theta =0.000000 to 180 deg
#C   q   =0.000000 to 81.568 nm^-1
#C  chi  =0.000000 to 360 deg
#C collumns:
#C  1 position (2theta or chi in degrees)
#C  2 average intensity (sum of all counts in the region divided with number of pixels)
#C  3 Number of pixels in region)
#C  4 error (sum of sqrt(intensity) for all pixels divided by number)
#N 4
#L TTh  Int  N_pix  Err
32.99 	0.098361 	61 	0.098361
33.01 	0.053837 	873 	0.053166
33.03 	0.068296 	1391 	0.068296
33.05 	0.066591 	1757 	0.066257
33.07 	0.061463 	2050 	0.059463
33.09 	0.069876 	2347 	0.068129
33.11 	0.053121 	2579 	0.052440
33.13 	0.069459 	2793 	0.067957
33.15 	0.058686 	2999 	0.056733
33.17 	0.056545 	3201 	0.055996
33.19 	0.049072 	3342 	0.048371
33.21 	0.052386 	3436 	0.051364
33.23 	0.053931 	3523 	0.053432
33.25 	0.066999 	3612 	0.065864
33.27 	0.061433 	3630 	0.060626
33.29 	0.065789 	3648 	0.063863
33.31 	0.051366 	3660 	0.050726
33.33 	0.054802 	3686 	0.053054
33.35 	0.058744 	3694 	0.057608
33.37 	0.059505 	3714 	0.058401
33.39 	0.054975 	3729 	0.054032
33.41 	0.062834 	3740 	0.060955
33.43 	0.053709 	3761 	0.053242
33.45 	0.051153 	3773 	0.050842
33.47 	0.056609 	3798 	0.055349
33.49 	0.061696 	3809 	0.060466
33.51 	0.055570 	3815 	0.054777
33.53 	0.063004 	3841 	0.061937
33.55 	0.057247 	3843 	0.056637
33.57 	0.053392 	3877 	0.052183
33.59 	0.061598 	3880 	0.059912
33.61 	0.064211 	3909 	0.062813
33.63 	0.061750 	3919 	0.060555
33.65 	0.057492 	3931 	0.056573
33.67 	0.062974 	3954 	0.061320
33.69 	0.058943 	3953 	0.057461
33.71 	0.066415 	3975 	0.065384
33.73 	0.054446 	4004 	0.053129
33.75 	0.062016 	3999 	0.061113
33.77 	0.064596 	4025 	0.063286
33.79 	0.059391 	4041 	0.058087
33.81 	0.060178 	4038 	0.058728
33.83 	0.063457 	4050 	0.062300
33.85 	0.060015 	4099 	0.058300
33.87 	0.058137 	4111 	0.056973
33.89 	0.056297 	4121 	0.055444
33.91 	0.058809 	4149 	0.057633
33.93 	0.060708 	4151 	0.059556
33.95 	0.060273 	4181 	0.059409
33.97 	0.063962 	4190 	0.062820
33.99 	0.059524 	4200 	0.058408
34.01 	0.060764 	4213 	0.060069
34.03 	0.060320 	4244 	0.059768
34.05 	0.057855 	4252 	0.056477
34.07 	0.061856 	4268 	0.061032
34.09 	0.056930 	4286 	0.055289
34.11 	0.059275 	4302 	0.058185
34.13 	0.064299 	4308 	0.062781
34.15 	0.056107 	4331 	0.055566
34.17 	0.060230 	4350 	0.059287
34.19 	0.057313 	4362 	0.056373
34.21 	0.055594 	4371 	0.055058
34.23 	0.055543 	4393 	0.054476
34.25 	0.064487 	4404 	0.063290
34.27 	0.065581 	4422 	0.063992
34.29 	0.063360 	4435 	0.061643
34.31 	0.058098 	4458 	0.056652
34.33 	0.054350 	4471 	0.053695
34.35 	0.056200 	4484 	0.054872
34.37 	0.059007 	4491 	0.058224
34.39 	0.058641 	4502 	0.057448
34.41 	0.063190 	4526 	0.062026
34.43 	0.055299 	4539 	0.054911
34.45 	0.057993 	4535 	0.056573
34.47 	0.054878 	4592 	0.054240
34.49 	0.058516 	4597 	0.057370
34.51 	0.051238 	4606 	0.050199
34.53 	0.060952 	4643 	0.059943
34.55 	0.055137 	4643 	0.054254
34.57 	0.059442 	4660 	0.058562
34.59 	0.053904 	4675 	0.052380
34.61 	0.056206 	4697 	0.055084
34.63 	0.054352 	4710 	0.052984
34.65 	0.058039 	4721 	0.056426
34.67 	0.062012 	4741 	0.061024
34.69 	0.052377 	4754 	0.051514
34.71 	0.058749 	4766 	0.057766
34.73 	0.055358 	4787 	0.054379
34.75 	0.058236 	4808 	0.056754
34.77 	0.062889 	4818 	0.061187
34.79 	0.057836 	4824 	0.057229
34.81 	0.060062 	4845 	0.058611
34.83 	0.056767 	4862 	0.056044
34.85 	0.055864 	4869 	0.054520
34.87 	0.058135 	4868 	0.057052
34.89 	0.059607 	4882 	0.058527
34.91 	0.054281 	4882 	0.052961
34.93 	0.061237 	4899 	0.059922
34.95 	0.061759 	4890 	0.060201
34.97 	0.056304 	4902 	0.055826
34.99 	0.064121 	4897 	0.063164
35.01 	0.062767 	4923 	0.061220
35.03 	0.059276 	4943 	0.058091
35.05 	0.056196 	4947 	0.055604
35.07 	0.056275 	4940 	0.055327
35.09 	0.057137 	4953 	0.055817
35.11 	0.057206 	4947 	0.055884
35.13 	0.055869 	4958 	0.055160
35.15 	0.061981 	4937 	0.060557
35.17 	0.062475 	4946 	0.060817
35.19 	0.060097 	4942 	0.059366
35.21 	0.059252 	4945 	0.057949
35.23 	0.062487 	4945 	0.061658
35.25 	0.060085 	4943 	0.058544
35.27 	0.061843 	4948 	0.060541
35.29 	0.059050 	4945 	0.058220
35.31 	0.058585 	4933 	0.057754
35.33 	0.060085 	4943 	0.059255
35.35 	0.057264 	4942 	0.056197
35.37 	0.059931 	4939 	0.058864
35.39 	0.060061 	4945 	0.059113
35.41 	0.062322 	4926 	0.061609
35.43 	0.058180 	4933 	0.056379
35.45 	0.058335 	4937 	0.057267
35.47 	0.051714 	4931 	0.051120
35.49 	0.059674 	4910 	0.058600
35.51 	0.064352 	4926 	0.062906
35.53 	0.057789 	4949 	0.057198
35.55 	0.055814 	4945 	0.054629
35.57 	0.058180 	4933 	0.056755
35.59 	0.064105 	4945 	0.062921
35.61 	0.055241 	4942 	0.054293
35.63 	0.056646 	4943 	0.055579
35.65 	0.059050 	4945 	0.057628
35.67 	0.057264 	4942 	0.055842
35.69 	0.062273 	4946 	0.061562
35.71 	0.057930 	4937 	0.057099
35.73 	0.063006 	4936 	0.062176
35.75 	0.064287 	4931 	0.062743
35.77 	0.054736 	4951 	0.053908
35.79 	0.059205 	4932 	0.057899
35.81 	0.059396 	4933 	0.058565
35.83 	0.053781 	4946 	0.053426
35.85 	0.058359 	4935 	0.056934
35.87 	0.056063 	4923 	0.055349
35.89 	0.063843 	4934 	0.062399
35.91 	0.056424 	4927 	0.055473
35.93 	0.058656 	4927 	0.057705
35.95 	0.052064 	4917 	0.051211
35.97 	0.059446 	4912 	0.058492
35.99 	0.055882 	4939 	0.055052
36.01 	0.057606 	4930 	0.056537
36.03 	0.056241 	4943 	0.055293
36.05 	0.065319 	4945 	0.064489
36.07 	0.057299 	4939 	0.055856
36.09 	0.059514 	4940 	0.058447
36.11 	0.063096 	4929 	0.061551
36.13 	0.059288 	4942 	0.057865
36.15 	0.056084 	4939 	0.054187
36.17 	0.060102 	4925 	0.059150
36.19 	0.056883 	4940 	0.056053
36.21 	0.054575 	4929 	0.053624
36.23 	0.058156 	4935 	0.057662
36.25 	0.059300 	4941 	0.057858
36.27 	0.052386 	4925 	0.051553
36.29 	0.061042 	4931 	0.060211
36.31 	0.060268 	4928 	0.059297
36.33 	0.056761 	4933 	0.056147
36.35 	0.055792 	4929 	0.054584
36.37 	0.050782 	4923 	0.049830
36.39 	0.055273 	4921 	0.054440
36.41 	0.058824 	4896 	0.057388
36.43 	0.059862 	4928 	0.058416
36.45 	0.059635 	4930 	0.058922
36.47 	0.057942 	4936 	0.056755
36.49 	0.056657 	4942 	0.055472
36.51 	0.065680 	4933 	0.064730
36.53 	0.049767 	4943 	0.048938
36.55 	0.057845 	4927 	0.056774
36.57 	0.053912 	4934 	0.053318
36.59 	0.057906 	4939 	0.057432
36.61 	0.058812 	4931 	0.057861
36.63 	0.059420 	4931 	0.058232
36.65 	0.052717 	4932 	0.052123
36.67 	0.050913 	4930 	0.049725
36.69 	0.055184 	4929 	0.054471
36.71 	0.062589 	4921 	0.061756
36.73 	0.053604 	4925 	0.052890
36.75 	0.057039 	4944 	0.056209
36.77 	0.058548 	4919 	0.057834
36.79 	0.065840 	4921 	0.064769
36.81 	0.055940 	4916 	0.055225
36.83 	0.055951 	4915 	0.055236
36.85 	0.059412 	4898 	0.057977
36.87 	0.054409 	4944 	0.053817
36.89 	0.051261 	4916 	0.051023
36.91 	0.052014 	4941 	0.051302
36.93 	0.055781 	4930 	0.055187
36.95 	0.052098 	4933 	0.051267
36.97 	0.065869 	4934 	0.064445
36.99 	0.054509 	4935 	0.053539
37.01 	0.060004 	4933 	0.059054
37.03 	0.059301 	4924 	0.058469
37.05 	0.053176 	4927 	0.051987
37.07 	0.051874 	4935 	0.050806
37.09 	0.057021 	4928 	0.055951
37.11 	0.060790 	4935 	0.059128
37.13 	0.058895 	4924 	0.058300
37.15 	0.058260 	4909 	0.057167
37.17 	0.052898 	4934 	0.052423
37.19 	0.055635 	4925 	0.054921
37.21 	0.054912 	4917 	0.053482
37.23 	0.050834 	4918 	0.050119
37.25 	0.055386 	4911 	0.054551
37.27 	0.059256 	4894 	0.058418
37.29 	0.052535 	4930 	0.051823
37.31 	0.059980 	4935 	0.059149
37.33 	0.063730 	4927 	0.063017
37.35 	0.059741 	4938 	0.058535
37.37 	0.053785 	4927 	0.053191
37.39 	0.053133 	4931 	0.052420
37.41 	0.057189 	4931 	0.055882
37.43 	0.055150 	4932 	0.054299
37.45 	0.055849 	4924 	0.055492
37.47 	0.057415 	4929 	0.056108
37.49 	0.057688 	4923 	0.056955
37.51 	0.052706 	4933 	0.052469
37.53 	0.056312 	4919 	0.055240
37.55 	0.055781 	4930 	0.054474
37.57 	0.056041 	4925 	0.054713
37.59 	0.055748 	4915 	0.054437
37.61 	0.049167 	4922 	0.048572
37.63 	0.056922 	4919 	0.056069
37.65 	0.056934 	4918 	0.056338
37.67 	0.056281 	4904 	0.055564
37.69 	0.050633 	4898 	0.049676
37.71 	0.058227 	4929 	0.056920
37.73 	0.056604 	4929 	0.055534
37.75 	0.046559 	4940 	0.045729
37.77 	0.053862 	4920 	0.053147
37.79 	0.057201 	4930 	0.056468
37.81 	0.055342 	4933 	0.054629
37.83 	0.061789 	4920 	0.059944
37.85 	0.052215 	4922 	0.051858
37.87 	0.059526 	4939 	0.058577
37.89 	0.055025 	4925 	0.054431
37.91 	0.055781 	4930 	0.054830
37.93 	0.053060 	4919 	0.052821
37.95 	0.052835 	4921 	0.051763
37.97 	0.058430 	4929 	0.057598
37.99 	0.057614 	4912 	0.055925
38.01 	0.053571 	4928 	0.052739
38.03 	0.051742 	4909 	0.050906
38.05 	0.051777 	4925 	0.051182
38.07 	0.063760 	4909 	0.062328
38.09 	0.056376 	4878 	0.056015
38.11 	0.057751 	4935 	0.056682
38.13 	0.052258 	4937 	0.051191
38.15 	0.057950 	4918 	0.057236
38.17 	0.052738 	4930 	0.051907
38.19 	0.057606 	4930 	0.056775
38.21 	0.055860 	4923 	0.054551
38.23 	0.062778 	4938 	0.062541
38.25 	0.057352 	4917 	0.056637
38.27 	0.054564 	4930 	0.053376
38.29 	0.062754 	4924 	0.061783
38.31 	0.065354 	4927 	0.064522
38.33 	0.055646 	4924 	0.054932
38.35 	0.059050 	4928 	0.058337
38.37 	0.064175 	4924 	0.062986
38.39 	0.065594 	4909 	0.064639
38.41 	0.065407 	4923 	0.064455
38.43 	0.058584 	4916 	0.057512
38.45 	0.057340 	4918 	0.056507
38.47 	0.063379 	4907 	0.062304
38.49 	0.079967 	4877 	0.077445
38.51 	0.067721 	4932 	0.066177
38.53 	0.072023 	4929 	0.071072
38.55 	0.066653 	4936 	0.065348
38.57 	0.065610 	4923 	0.063469
38.59 	0.065394 	4924 	0.063947
38.61 	0.067869 	4936 	0.067038
38.63 	0.070268 	4924 	0.068484
38.65 	0.066694 	4918 	0.065364
38.67 	0.068868 	4937 	0.067286
38.69 	0.060748 	4922 	0.060153
38.71 	0.065191 	4924 	0.064001
38.73 	0.059374 	4918 	0.058183
38.75 	0.060686 	4927 	0.059735
38.77 	0.057688 	4923 	0.057212
38.79 	0.060600 	4934 	0.059749
38.81 	0.060057 	4912 	0.059222
38.83 	0.058752 	4919 	0.057680
38.85 	0.052117 	4912 	0.051521
38.87 	0.050703 	4911 	0.049371
38.89 	0.055136 	4897 	0.053700
38.91 	0.055884 	4903 	0.055048
38.93 	0.055488 	4938 	0.055014
38.95 	0.057137 	4918 	0.056403
38.97 	0.057392 	4931 	0.056798
38.99 	0.054284 	4937 	0.052979
39.01 	0.056120 	4918 	0.055525
39.03 	0.052088 	4934 	0.051375
39.05 	0.050355 	4925 	0.049404
39.07 	0.055443 	4924 	0.053896
39.09 	0.054845 	4923 	0.053893
39.11 	0.053539 	4931 	0.052588
39.13 	0.052001 	4923 	0.051267
39.15 	0.057172 	4915 	0.056099
39.17 	0.053474 	4937 	0.052386
39.19 	0.049217 	4917 	0.048264
39.21 	0.050509 	4910 	0.049435
39.23 	0.050964 	4925 	0.050370
39.25 	0.050792 	4922 	0.050178
39.27 	0.049491 	4910 	0.048775
39.29 	0.051622 	4901 	0.051244
39.31 	0.055487 	4884 	0.055008
39.33 	0.053944 	4931 	0.052875
39.35 	0.053698 	4935 	0.052155
39.37 	0.057415 	4929 	0.056564
39.39 	0.057010 	4929 	0.056059
39.41 	0.054350 	4931 	0.053637
39.43 	0.050274 	4933 	0.049561
39.45 	0.053198 	4925 	0.052722
39.47 	0.055454 	4923 	0.054839
39.49 	0.057369 	4933 	0.056300
39.51 	0.049553 	4924 	0.049077
39.53 	0.065610 	4923 	0.064658
39.55 	0.053466 	4919 	0.052037
39.57 	0.058788 	4933 	0.057224
39.59 	0.049878 	4912 	0.049043
39.61 	0.050782 	4923 	0.050187
39.63 	0.057903 	4922 	0.056713
39.65 	0.050142 	4926 	0.049290
39.67 	0.059027 	4913 	0.057835
39.69 	0.058177 	4916 	0.056747
39.71 	0.061287 	4895 	0.059333
39.73 	0.055827 	4908 	0.054992
39.75 	0.061891 	4928 	0.060703
39.77 	0.056332 	4935 	0.055739
39.79 	0.058059 	4926 	0.057465
39.81 	0.057439 	4927 	0.056369
39.83 	0.056546 	4934 	0.055597
39.85 	0.057033 	4927 	0.055705
39.87 	0.059086 	4925 	0.058115
39.89 	0.056749 	4934 	0.055799
39.91 	0.057903 	4922 	0.057189
39.93 	0.056309 	4937 	0.055123
39.95 	0.058800 	4915 	0.057608
39.97 	0.058036 	4928 	0.056709
39.99 	0.059408 	4932 	0.058933
40.01 	0.055917 	4918 	0.055083
40.03 	0.052354 	4928 	0.051641
40.05 	0.047997 	4917 	0.047143
40.07 	0.047532 	4923 	0.046342
40.09 	0.046786 	4916 	0.046429
40.11 	0.053092 	4916 	0.052020
40.13 	0.056168 	4896 	0.054972
40.15 	0.053939 	4913 	0.052727
40.17 	0.046469 	4928 	0.046113
40.19 	0.050314 	4929 	0.049364
40.21 	0.053090 	4935 	0.052497
40.23 	0.049067 	4932 	0.048473
40.25 	0.054675 	4920 	0.054079
40.27 	0.051448 	4937 	0.050855
40.29 	0.054800 	4927 	0.053968
40.31 	0.051427 	4939 	0.050123
40.33 	0.050284 	4932 	0.049690
40.35 	0.046757 	4919 	0.046162
40.37 	0.051126 	4929 	0.050651
40.39 	0.051105 	4931 	0.050749
40.41 	0.053198 	4925 	0.052603
40.43 	0.051605 	4922 	0.050891
40.45 	0.048652 	4933 	0.048058
40.47 	0.049817 	4918 	0.048507
40.49 	0.059074 	4926 	0.058718
40.51 	0.052011 	4922 	0.051059
40.53 	0.053702 	4916 	0.053226
40.55 	0.056438 	4908 	0.055484
40.57 	0.051125 	4890 	0.050266
40.59 	0.052866 	4937 	0.052154
40.61 	0.049443 	4935 	0.049205
40.63 	0.060446 	4930 	0.059377
40.65 	0.049018 	4937 	0.048543
40.67 	0.046634 	4932 	0.045308
40.69 	0.053676 	4937 	0.052608
40.71 	0.052109 	4932 	0.051377
40.73 	0.054202 	4926 	0.053608
40.75 	0.051105 	4931 	0.050036
40.77 	0.053047 	4939 	0.052217
40.79 	0.056052 	4924 	0.055576
40.81 	0.055859 	4941 	0.054318
40.83 	0.053369 	4928 	0.052655
40.85 	0.049959 	4924 	0.049840
40.87 	0.050325 	4928 	0.049374
40.89 	0.047049 	4931 	0.046812
40.91 	0.049766 	4923 	0.049290
40.93 	0.051480 	4934 	0.051005
40.95 	0.054346 	4913 	0.053749
40.97 	0.052803 	4924 	0.051375
40.99 	0.045898 	4924 	0.045422
41.01 	0.049267 	4912 	0.048075
41.03 	0.047095 	4905 	0.046120
41.05 	0.048825 	4936 	0.047757
41.07 	0.048479 	4930 	0.047528
41.09 	0.052035 	4939 	0.051304
41.11 	0.047214 	4935 	0.046264
41.13 	0.051661 	4936 	0.050831
41.15 	0.050597 	4941 	0.050241
41.17 	0.048845 	4934 	0.048251
41.19 	0.058215 	4930 	0.057264
41.21 	0.050233 	4937 	0.049284
41.23 	0.050415 	4939 	0.049585
41.25 	0.050071 	4933 	0.049121
41.27 	0.050902 	4931 	0.049933
41.29 	0.045049 	4928 	0.044573
41.31 	0.050882 	4933 	0.050051
41.33 	0.050435 	4937 	0.049605
41.35 	0.055083 	4938 	0.054253
41.37 	0.049350 	4924 	0.048993
41.39 	0.053112 	4933 	0.052518
41.41 	0.045067 	4926 	0.044710
41.43 	0.055386 	4929 	0.054317
41.45 	0.050265 	4914 	0.049549
41.47 	0.052172 	4926 	0.051340
41.49 	0.042723 	4892 	0.042224
41.51 	0.046154 	4940 	0.045205
41.53 	0.049757 	4944 	0.048572
41.55 	0.046809 	4935 	0.046096
41.57 	0.052216 	4941 	0.051386
41.59 	0.046219 	4933 	0.045626
41.61 	0.047042 	4953 	0.046451
41.63 	0.049210 	4938 	0.048736
41.65 	0.049909 	4929 	0.049433
41.67 	0.046761 	4940 	0.045931
41.69 	0.048110 	4947 	0.047281
41.71 	0.052088 	4934 	0.051494
41.73 	0.053485 	4936 	0.053129
41.75 	0.049503 	4929 	0.048057
41.77 	0.051002 	4941 	0.050409
41.79 	0.049353 	4944 	0.048385
41.81 	0.053890 	4936 	0.053534
41.83 	0.051745 	4928 	0.051389
41.85 	0.051022 	4939 	0.049481
41.87 	0.051874 	4935 	0.051162
41.89 	0.047841 	4933 	0.047366
41.91 	0.049635 	4936 	0.048805
41.93 	0.045215 	4932 	0.044859
41.95 	0.044413 	4931 	0.044057
41.97 	0.046602 	4914 	0.045767
41.99 	0.047095 	4905 	0.046737
42.01 	0.043707 	4942 	0.042877
42.03 	0.048390 	4939 	0.047442
42.05 	0.049475 	4952 	0.048647
42.07 	0.049220 	4937 	0.048271
42.09 	0.046686 	4948 	0.045620
42.11 	0.047725 	4945 	0.047133
42.13 	0.050758 	4945 	0.050166
42.15 	0.040300 	4938 	0.039825
42.17 	0.048190 	4918 	0.047476
42.19 	0.051752 	4908 	0.051752
42.21 	0.046725 	4901 	0.045769
42.23 	0.049877 	4892 	0.048800
42.25 	0.045204 	4889 	0.044964
42.27 	0.046984 	4874 	0.045422
42.29 	0.046062 	4863 	0.044717
42.31 	0.045520 	4855 	0.045158
42.33 	0.042822 	4834 	0.042095
42.35 	0.046920 	4838 	0.045830
42.37 	0.045963 	4830 	0.044973
42.39 	0.044130 	4804 	0.043032
42.41 	0.044130 	4804 	0.043642
42.43 	0.042571 	4792 	0.042204
42.45 	0.046692 	4776 	0.046079
42.47 	0.044911 	4765 	0.044296
42.49 	0.041343 	4765 	0.040974
42.51 	0.042800 	4743 	0.042676
42.53 	0.052242 	4728 	0.050859
42.55 	0.049703 	4708 	0.049329
42.57 	0.045455 	4730 	0.044835
42.59 	0.046310 	4729 	0.045815
42.61 	0.049278 	4708 	0.048780
42.63 	0.045870 	4709 	0.045745
42.65 	0.045891 	4685 	0.044641
42.67 	0.057216 	4684 	0.056341
42.69 	0.046641 	4674 	0.046140
42.71 	0.036028 	4663 	0.035526
42.73 	0.044181 	4640 	0.043550
42.75 	0.047650 	4617 	0.047142
42.77 	0.046304 	4600 	0.045137
42.79 	0.046704 	4582 	0.046065
42.81 	0.042525 	4562 	0.042012
42.83 	0.044753 	4536 	0.044237
42.85 	0.048587 	4528 	0.047552
42.87 	0.046455 	4499 	0.045934
42.89 	0.047321 	4480 	0.046929
42.91 	0.040171 	4456 	0.039908
42.93 	0.044085 	4446 	0.043426
42.95 	0.046196 	4416 	0.045532
42.97 	0.042945 	4401 	0.042013
42.99 	0.046522 	4385 	0.045854
43.01 	0.043548 	4363 	0.042855
43.03 	0.045696 	4333 	0.045425
43.05 	0.043237 	4325 	0.042289
43.07 	0.048650 	4296 	0.047809
43.09 	0.047163 	4283 	0.046753
43.11 	0.040893 	4255 	0.040067
43.13 	0.045551 	4237 	0.044860
43.15 	0.048978 	4206 	0.048560
43.17 	0.046662 	4179 	0.045821
43.19 	0.041726 	4194 	0.040888
43.21 	0.048418 	4172 	0.046570
43.23 	0.044535 	4154 	0.043830
43.25 	0.046917 	4135 	0.046492
43.27 	0.045067 	4105 	0.044639
43.29 	0.045366 	4100 	0.044651
43.31 	0.048786 	4079 	0.048356
43.33 	0.047149 	4051 	0.046547
43.35 	0.043899 	4032 	0.043172
43.37 	0.045081 	4015 	0.044789
43.39 	0.042979 	4002 	0.041954
43.41 	0.044058 	3972 	0.043444
43.43 	0.043939 	3960 	0.042756
43.45 	0.046252 	3935 	0.045656
43.47 	0.046417 	3921 	0.045819
43.49 	0.049012 	3897 	0.047459
43.51 	0.050297 	3877 	0.049541
43.53 	0.048408 	3863 	0.047801
43.55 	0.049595 	2964 	0.048805
43.57 	0.050045 	2238 	0.048998
43.59 	0.038373 	1746 	0.038373
43.61 	0.037010 	1351 	0.037010
43.63 	0.045954 	1001 	0.045954
43.65 	0.065502 	687 	0.064650
43.67 	0.045817 	502 	0.045817
43.69 	0.043597 	367 	0.043597
43.71 	0.037657 	239 	0.037657
43.73 	0.041667 	120 	0.041667
43.75 	0.000000 	16 	0.000000