File: Example_Data/25SC_s1_0034.002.dat
#F C:\frames\spec\25SC_s1_0034.002
#C title =s:34 frm:2 25SC_s1
#C wavelength =0.15406

#S 1  fr_average C:\frames\spec\25SC_s1_0034.002 C:\win32app\speccom\mask.axs chi 0 180 0 360 0.02
#C 2 theta =0.000000 to 180 deg
#C   q   =0.000000 to 81.568 nm^-1
#C  chi  =0.000000 to 360 deg
#C collumns:
#C  1 position (2theta or chi in degrees)
#C  2 average intensity (sum of all counts in the region divided with number of pixels)
#C  3 Number of pixels in region)
#C  4 error (sum of sqrt(intensity) for all pixels divided by number)
#N 4
#L TTh  Int  N_pix  Err
32.99 	0.098361 	61 	0.098361
33.01 	0.063001 	873 	0.062330
33.03 	0.056794 	1391 	0.054688
33.05 	0.053500 	1757 	0.052500
33.07 	0.058049 	2050 	0.057192
33.09 	0.067746 	2347 	0.067247
33.11 	0.066305 	2579 	0.065623
33.13 	0.055138 	2793 	0.054509
33.15 	0.058353 	2999 	0.056790
33.17 	0.066229 	3201 	0.064003
33.19 	0.053561 	3342 	0.053035
33.21 	0.065774 	3436 	0.064240
33.23 	0.055351 	3523 	0.054353
33.25 	0.057863 	3612 	0.056727
33.27 	0.055096 	3630 	0.054451
33.29 	0.057566 	3648 	0.055960
33.31 	0.057923 	3660 	0.057123
33.33 	0.057786 	3686 	0.056833
33.35 	0.058473 	3694 	0.057839
33.37 	0.055197 	3714 	0.054723
33.39 	0.054170 	3729 	0.053227
33.41 	0.057487 	3740 	0.056860
33.43 	0.059293 	3761 	0.058514
33.45 	0.064935 	3773 	0.063848
33.47 	0.059242 	3798 	0.057982
33.49 	0.064059 	3809 	0.062367
33.51 	0.056356 	3815 	0.054821
33.53 	0.066389 	3841 	0.064254
33.55 	0.058028 	3843 	0.057113
33.57 	0.061388 	3877 	0.059726
33.59 	0.055928 	3880 	0.054871
33.61 	0.061397 	3909 	0.060348
33.63 	0.060219 	3919 	0.059472
33.65 	0.052913 	3931 	0.052764
33.67 	0.063480 	3954 	0.062739
33.69 	0.067038 	3953 	0.066124
33.71 	0.055094 	3975 	0.054063
33.73 	0.054446 	4004 	0.053568
33.75 	0.053763 	3999 	0.053324
33.77 	0.055652 	4025 	0.054924
33.79 	0.055927 	4041 	0.054912
33.81 	0.055721 	4038 	0.054850
33.83 	0.057778 	4050 	0.055753
33.85 	0.058551 	4099 	0.057813
33.87 	0.058866 	4111 	0.057727
33.89 	0.066489 	4121 	0.064925
33.91 	0.054471 	4149 	0.053906
33.93 	0.061431 	4151 	0.060584
33.95 	0.058120 	4181 	0.056836
33.97 	0.055609 	4190 	0.054887
33.99 	0.052619 	4200 	0.051922
34.01 	0.060764 	4213 	0.060069
34.03 	0.051838 	4244 	0.050872
34.05 	0.059737 	4252 	0.059163
34.07 	0.055998 	4268 	0.054626
34.09 	0.053430 	4286 	0.052200
34.11 	0.050907 	4302 	0.050226
34.13 	0.055942 	4308 	0.055535
34.15 	0.056338 	4331 	0.055391
34.17 	0.052874 	4350 	0.051931
34.19 	0.063961 	4362 	0.061947
34.21 	0.049188 	4371 	0.048518
34.23 	0.055771 	4393 	0.054437
34.25 	0.054042 	4404 	0.053244
34.27 	0.053596 	4422 	0.052668
34.29 	0.058625 	4435 	0.057832
34.31 	0.056079 	4458 	0.054896
34.33 	0.051666 	4471 	0.051011
34.35 	0.056646 	4484 	0.056254
34.37 	0.059675 	4491 	0.058240
34.39 	0.057752 	4502 	0.056971
34.41 	0.053027 	4526 	0.052100
34.43 	0.050672 	4539 	0.049640
34.45 	0.053363 	4535 	0.052459
34.47 	0.055096 	4592 	0.054586
34.49 	0.056124 	4597 	0.055614
34.51 	0.057317 	4606 	0.056426
34.53 	0.056860 	4643 	0.055724
34.55 	0.062244 	4643 	0.061613
34.57 	0.060730 	4660 	0.060227
34.59 	0.062674 	4675 	0.061922
34.61 	0.062593 	4697 	0.061471
34.63 	0.056263 	4710 	0.055517
34.65 	0.061639 	4721 	0.061391
34.67 	0.053997 	4741 	0.053379
34.69 	0.055953 	4754 	0.055460
34.71 	0.054763 	4766 	0.053903
34.73 	0.053269 	4787 	0.051658
34.75 	0.061148 	4808 	0.060539
34.77 	0.057285 	4818 	0.056069
34.79 	0.056799 	4824 	0.055706
34.81 	0.060475 	4845 	0.059870
34.83 	0.048128 	4862 	0.047526
34.85 	0.057096 	4869 	0.056615
34.87 	0.056697 	4868 	0.055493
34.89 	0.060221 	4882 	0.058901
34.91 	0.060836 	4882 	0.059756
34.93 	0.052664 	4899 	0.051588
34.95 	0.055624 	4890 	0.054665
34.97 	0.055284 	4902 	0.053730
34.99 	0.056157 	4897 	0.055678
35.01 	0.060329 	4923 	0.058901
35.03 	0.060692 	4943 	0.059625
35.05 	0.057409 	4947 	0.056816
35.07 	0.056478 	4940 	0.055766
35.09 	0.052493 	4953 	0.051311
35.11 	0.053770 	4947 	0.052349
35.13 	0.051230 	4958 	0.050640
35.15 	0.056107 	4937 	0.055039
35.17 	0.058027 	4946 	0.057671
35.19 	0.050992 	4942 	0.050517
35.21 	0.057634 	4945 	0.056904
35.23 	0.056421 	4945 	0.054881
35.25 	0.064131 	4943 	0.062927
35.27 	0.060631 	4948 	0.059683
35.29 	0.058443 	4945 	0.057732
35.31 	0.061220 	4933 	0.059914
35.33 	0.055432 	4943 	0.055313
35.35 	0.054229 	4942 	0.053162
35.37 	0.053047 	4939 	0.052217
35.39 	0.056421 	4945 	0.056065
35.41 	0.053999 	4926 	0.053048
35.43 	0.052301 	4933 	0.051588
35.45 	0.044561 	4937 	0.044087
35.47 	0.052322 	4931 	0.051966
35.49 	0.059063 	4910 	0.057989
35.51 	0.059074 	4926 	0.057409
35.53 	0.056173 	4949 	0.055108
35.55 	0.052376 	4945 	0.051310
35.57 	0.057977 	4933 	0.056908
35.59 	0.057432 	4945 	0.056366
35.61 	0.058883 	4942 	0.057579
35.63 	0.056241 	4943 	0.055274
35.65 	0.052781 	4945 	0.052188
35.67 	0.056050 	4942 	0.054865
35.69 	0.052163 	4946 	0.051571
35.71 	0.059955 	4937 	0.059362
35.73 	0.060778 	4936 	0.059473
35.75 	0.059623 	4931 	0.058415
35.77 	0.055948 	4951 	0.055712
35.79 	0.055353 	4932 	0.054146
35.81 	0.054531 	4933 	0.053917
35.83 	0.060453 	4946 	0.059624
35.85 	0.059574 	4935 	0.058981
35.87 	0.054032 	4923 	0.053299
35.89 	0.054722 	4934 	0.053773
35.91 	0.057642 	4927 	0.057047
35.93 	0.056018 	4927 	0.054591
35.95 	0.057555 	4917 	0.056583
35.97 	0.061279 	4912 	0.060444
35.99 	0.052237 	4939 	0.051288
36.01 	0.052738 	4930 	0.052025
36.03 	0.055027 	4943 	0.053487
36.05 	0.056623 	4945 	0.056031
36.07 	0.052642 	4939 	0.051693
36.09 	0.051417 	4940 	0.050350
36.11 	0.047474 	4929 	0.046623
36.13 	0.054027 	4942 	0.053059
36.15 	0.056287 	4939 	0.055219
36.17 	0.055838 	4925 	0.055243
36.19 	0.054049 	4940 	0.053337
36.21 	0.056401 	4929 	0.055450
36.23 	0.055927 	4935 	0.054977
36.25 	0.053026 	4941 	0.052433
36.27 	0.062741 	4925 	0.061552
36.29 	0.057798 	4931 	0.057322
36.31 	0.050528 	4928 	0.049696
36.33 	0.058382 	4933 	0.057432
36.35 	0.050314 	4929 	0.049958
36.37 	0.057892 	4923 	0.056801
36.39 	0.055883 	4921 	0.055169
36.41 	0.050654 	4896 	0.049218
36.43 	0.054180 	4928 	0.053229
36.45 	0.053955 	4930 	0.053005
36.47 	0.054903 	4936 	0.053716
36.49 	0.054229 	4942 	0.053755
36.51 	0.064058 	4933 	0.062990
36.53 	0.053207 	4943 	0.052496
36.55 	0.055003 	4927 	0.054290
36.57 	0.052493 	4934 	0.051662
36.59 	0.059526 	4939 	0.058577
36.61 	0.053133 	4931 	0.052420
36.63 	0.052119 	4931 	0.051149
36.65 	0.059813 	4932 	0.058863
36.67 	0.051927 	4930 	0.050976
36.69 	0.053966 	4929 	0.052540
36.71 	0.057915 	4921 	0.056844
36.73 	0.050558 	4925 	0.049488
36.75 	0.056028 	4944 	0.054724
36.77 	0.051637 	4919 	0.050446
36.79 	0.057712 	4921 	0.056283
36.81 	0.053295 	4916 	0.052342
36.83 	0.051272 	4915 	0.050676
36.85 	0.059616 	4898 	0.058659
36.87 	0.050566 	4944 	0.049599
36.89 	0.053499 	4916 	0.052665
36.91 	0.052621 	4941 	0.051791
36.93 	0.053955 	4930 	0.053005
36.95 	0.046422 	4933 	0.045828
36.97 	0.055533 	4934 	0.054821
36.99 	0.051469 	4935 	0.050401
37.01 	0.052504 	4933 	0.051910
37.03 	0.054630 	4924 	0.053540
37.05 	0.056830 	4927 	0.055997
37.07 	0.057345 	4935 	0.056633
37.09 	0.054992 	4928 	0.054398
37.11 	0.052685 	4935 	0.051735
37.13 	0.048741 	4924 	0.048146
37.15 	0.053779 	4909 	0.052943
37.17 	0.049655 	4934 	0.048924
37.19 	0.051371 	4925 	0.051133
37.21 	0.049014 	4917 	0.048299
37.23 	0.053477 	4918 	0.052881
37.25 	0.051110 	4911 	0.049917
37.27 	0.049653 	4894 	0.049054
37.29 	0.059432 	4930 	0.058125
37.31 	0.055522 	4935 	0.055047
37.33 	0.049523 	4927 	0.048810
37.35 	0.052653 	4938 	0.051922
37.37 	0.047899 	4927 	0.047067
37.39 	0.052119 	4931 	0.050793
37.41 	0.058609 	4931 	0.057183
37.43 	0.061030 	4932 	0.059961
37.45 	0.053006 	4924 	0.052292
37.47 	0.050314 	4929 	0.049958
37.49 	0.049157 	4923 	0.048800
37.51 	0.054125 	4933 	0.053294
37.53 	0.054483 	4919 	0.054364
37.55 	0.054158 	4930 	0.053326
37.57 	0.051371 	4925 	0.051252
37.59 	0.052492 	4915 	0.052373
37.61 	0.055262 	4922 	0.054548
37.63 	0.054686 	4919 	0.053971
37.65 	0.046970 	4918 	0.046494
37.67 	0.052202 	4904 	0.052083
37.69 	0.048795 	4898 	0.048317
37.71 	0.054169 	4929 	0.053218
37.73 	0.050314 	4929 	0.049720
37.75 	0.053441 	4940 	0.052730
37.77 	0.058537 	4920 	0.057941
37.79 	0.049290 	4930 	0.048815
37.81 	0.054733 	4933 	0.054140
37.83 	0.053659 	4920 	0.052706
37.85 	0.050183 	4922 	0.048636
37.87 	0.049403 	4939 	0.048335
37.89 	0.053604 	4925 	0.052771
37.91 	0.047667 	4930 	0.047430
37.93 	0.054279 	4919 	0.053803
37.95 	0.055680 	4921 	0.054708
37.97 	0.051735 	4929 	0.051259
37.99 	0.050896 	4912 	0.050061
38.01 	0.045657 	4928 	0.044944
38.03 	0.055816 	4909 	0.055458
38.05 	0.049746 	4925 	0.048676
38.07 	0.053371 	4909 	0.052536
38.09 	0.055966 	4878 	0.054885
38.11 	0.049443 	4935 	0.048493
38.13 	0.056107 	4937 	0.055276
38.15 	0.054087 	4918 	0.053372
38.17 	0.053753 	4930 	0.052307
38.19 	0.055172 	4930 	0.053965
38.21 	0.057079 	4923 	0.056365
38.23 	0.056501 	4938 	0.056145
38.25 	0.059182 	4917 	0.058348
38.27 	0.054564 	4930 	0.053732
38.29 	0.062145 	4924 	0.061074
38.31 	0.056221 	4927 	0.054556
38.33 	0.055849 	4924 	0.054897
38.35 	0.062297 	4928 	0.061227
38.37 	0.058895 	4924 	0.057943
38.39 	0.059075 	4909 	0.058359
38.41 	0.061548 	4923 	0.059763
38.43 	0.062653 	4916 	0.061342
38.45 	0.055714 	4918 	0.054999
38.47 	0.064194 	4907 	0.063239
38.49 	0.062538 	4877 	0.061457
38.51 	0.066099 	4932 	0.064535
38.53 	0.068980 	4929 	0.067791
38.55 	0.062804 	4936 	0.062092
38.57 	0.059110 	4923 	0.058277
38.59 	0.060114 	4924 	0.059142
38.61 	0.057739 	4936 	0.056039
38.63 	0.057880 	4924 	0.056333
38.65 	0.058560 	4918 	0.057846
38.67 	0.060158 	4937 	0.059446
38.69 	0.055872 	4922 	0.055138
38.71 	0.050975 	4924 	0.050618
38.73 	0.056934 	4918 	0.055961
38.75 	0.056018 	4927 	0.054829
38.77 	0.054032 	4923 	0.053556
38.79 	0.054317 	4934 	0.052892
38.81 	0.053746 	4912 	0.052911
38.83 	0.050417 	4919 	0.050059
38.85 	0.047638 	4912 	0.047281
38.87 	0.048055 	4911 	0.047340
38.89 	0.051664 	4897 	0.051425
38.91 	0.045482 	4903 	0.045004
38.93 	0.048805 	4938 	0.048212
38.95 	0.043514 	4918 	0.043275
38.97 	0.050091 	4931 	0.049260
38.99 	0.050233 	4937 	0.048790
39.01 	0.046767 	4918 	0.046052
39.03 	0.050061 	4934 	0.049467
39.05 	0.046701 	4925 	0.046225
39.07 	0.045491 	4924 	0.044897
39.09 	0.047126 	4923 	0.046769
39.11 	0.050497 	4931 	0.049646
39.13 	0.043266 	4923 	0.043028
39.15 	0.046389 	4915 	0.045793
39.17 	0.048410 	4937 	0.047579
39.19 	0.044946 	4917 	0.044350
39.21 	0.048880 	4910 	0.047210
39.23 	0.047107 	4925 	0.045441
39.25 	0.047542 	4922 	0.046947
39.27 	0.045621 	4910 	0.045263
39.29 	0.039992 	4901 	0.039753
39.31 	0.046478 	4884 	0.046118
39.33 	0.048063 	4931 	0.047707
39.35 	0.041540 	4935 	0.040947
39.37 	0.042402 	4929 	0.041689
39.39 	0.048286 	4929 	0.047929
39.41 	0.050091 	4931 	0.049497
39.43 	0.048449 	4933 	0.047618
39.45 	0.047310 	4925 	0.046358
39.47 	0.041032 	4923 	0.040080
39.49 	0.043381 	4933 	0.042788
39.51 	0.045898 	4924 	0.045184
39.53 	0.042657 	4923 	0.042419
39.55 	0.039439 	4919 	0.039082
39.57 	0.044395 	4933 	0.043801
39.59 	0.046824 	4912 	0.045989
39.61 	0.048345 	4923 	0.048107
39.63 	0.041853 	4922 	0.041258
39.65 	0.040398 	4926 	0.039903
39.67 	0.048646 	4913 	0.048050
39.69 	0.044955 	4916 	0.044598
39.71 	0.046374 	4895 	0.045656
39.73 	0.043806 	4908 	0.043329
39.75 	0.042208 	4928 	0.041732
39.77 	0.045187 	4935 	0.044456
39.79 	0.047706 	4926 	0.047468
39.81 	0.042419 	4927 	0.041825
39.83 	0.051074 	4934 	0.050481
39.85 	0.044246 	4927 	0.043176
39.87 	0.041827 	4925 	0.041708
39.89 	0.045602 	4934 	0.045008
39.91 	0.042666 	4922 	0.042309
39.93 	0.043954 	4937 	0.043242
39.95 	0.044761 	4915 	0.044046
39.97 	0.042208 	4928 	0.041495
39.99 	0.038727 	4932 	0.038489
40.01 	0.046970 	4918 	0.046137
40.03 	0.040787 	4928 	0.039955
40.05 	0.042912 	4917 	0.042793
40.07 	0.046923 	4923 	0.045951
40.09 	0.044345 	4916 	0.043511
40.11 	0.050244 	4916 	0.049172
40.13 	0.041258 	4896 	0.040540
40.15 	0.047425 	4913 	0.046571
40.17 	0.048904 	4928 	0.048310
40.19 	0.038750 	4929 	0.038018
40.21 	0.046606 	4935 	0.046012
40.23 	0.039538 	4932 	0.039063
40.25 	0.046138 	4920 	0.045543
40.27 	0.043346 	4937 	0.043228
40.29 	0.041202 	4927 	0.040607
40.31 	0.040292 	4939 	0.039580
40.33 	0.040754 	4932 	0.040398
40.35 	0.041472 	4919 	0.041115
40.37 	0.043417 	4929 	0.042822
40.39 	0.047860 	4931 	0.047623
40.41 	0.047919 	4925 	0.047086
40.43 	0.043885 	4922 	0.043052
40.45 	0.046017 	4933 	0.045423
40.47 	0.043920 	4918 	0.043206
40.49 	0.044661 	4926 	0.044066
40.51 	0.046932 	4922 	0.046317
40.53 	0.042311 	4916 	0.042073
40.55 	0.046251 	4908 	0.045535
40.57 	0.044990 	4890 	0.044750
40.59 	0.043144 	4937 	0.042313
40.61 	0.043161 	4935 	0.042568
40.63 	0.043611 	4930 	0.041928
40.65 	0.044967 	4937 	0.044235
40.67 	0.036902 	4932 	0.036427
40.69 	0.041118 	4937 	0.040762
40.71 	0.043998 	4932 	0.043761
40.73 	0.038774 	4926 	0.038536
40.75 	0.039749 	4931 	0.039392
40.77 	0.044746 	4939 	0.044153
40.79 	0.041836 	4924 	0.041717
40.81 	0.042299 	4941 	0.042181
40.83 	0.036932 	4928 	0.036813
40.85 	0.044476 	4924 	0.043881
40.87 	0.045049 	4928 	0.044217
40.89 	0.040560 	4931 	0.040065
40.91 	0.045094 	4923 	0.044737
40.93 	0.040332 	4934 	0.040214
40.95 	0.044983 	4913 	0.043790
40.97 	0.037165 	4924 	0.036808
40.99 	0.043258 	4924 	0.042306
41.01 	0.044992 	4912 	0.044396
41.03 	0.041182 	4905 	0.040824
41.05 	0.040924 	4936 	0.040568
41.07 	0.043205 	4930 	0.043086
41.09 	0.045353 	4939 	0.044879
41.11 	0.042148 	4935 	0.041673
41.13 	0.043355 	4936 	0.043118
41.15 	0.035418 	4941 	0.035299
41.17 	0.041751 	4934 	0.041039
41.19 	0.040568 	4930 	0.040093
41.21 	0.045777 	4937 	0.044472
41.23 	0.043936 	4939 	0.043462
41.25 	0.044395 	4933 	0.043920
41.27 	0.045630 	4931 	0.044798
41.29 	0.040990 	4928 	0.040753
41.31 	0.038111 	4933 	0.037754
41.33 	0.039295 	4937 	0.038821
41.35 	0.040705 	4938 	0.040349
41.37 	0.039805 	4924 	0.039567
41.39 	0.045003 	4933 	0.044172
41.41 	0.042225 	4926 	0.041868
41.43 	0.039156 	4929 	0.038799
41.45 	0.040497 	4914 	0.040020
41.47 	0.038977 	4926 	0.038620
41.49 	0.036182 	4892 	0.035942
41.51 	0.040891 	4940 	0.040179
41.53 	0.039442 	4944 	0.039205
41.55 	0.040527 	4935 	0.040289
41.57 	0.034608 	4941 	0.034253
41.59 	0.042976 	4933 	0.042501
41.61 	0.045023 	4953 	0.044550
41.63 	0.042730 	4938 	0.042137
41.65 	0.038953 	4929 	0.038121
41.67 	0.040486 	4940 	0.040130
41.69 	0.042046 	4947 	0.041335
41.71 	0.038508 	4934 	0.038152
41.73 	0.038493 	4936 	0.038255
41.75 	0.046054 	4929 	0.045579
41.77 	0.039263 	4941 	0.039145
41.79 	0.037419 	4944 	0.037419
41.81 	0.041734 	4936 	0.041497
41.83 	0.040990 	4928 	0.040871
41.85 	0.042114 	4939 	0.041501
41.87 	0.041743 	4935 	0.041387
41.89 	0.039530 	4933 	0.039055
41.91 	0.039506 	4936 	0.039031
41.93 	0.042376 	4932 	0.041782
41.95 	0.035084 	4931 	0.034728
41.97 	0.036020 	4914 	0.035781
41.99 	0.046279 	4905 	0.046040
42.01 	0.040267 	4942 	0.039437
42.03 	0.038267 	4939 	0.038148
42.05 	0.039378 	4952 	0.039141
42.07 	0.036054 	4937 	0.035817
42.09 	0.038601 	4948 	0.038365
42.11 	0.042467 	4945 	0.042112
42.13 	0.036198 	4945 	0.036080
42.15 	0.044147 	4938 	0.043317
42.17 	0.039244 	4918 	0.038767
42.19 	0.037694 	4908 	0.036858
42.21 	0.035707 	4901 	0.035587
42.23 	0.038021 	4892 	0.037662
42.25 	0.040295 	4889 	0.040055
42.27 	0.036725 	4874 	0.036725
42.29 	0.037014 	4863 	0.036532
42.31 	0.039753 	4855 	0.039029
42.33 	0.039926 	4834 	0.039804
42.35 	0.037412 	4838 	0.037291
42.37 	0.043685 	4830 	0.043079
42.39 	0.038718 	4804 	0.038230
42.41 	0.032681 	4804 	0.032315
42.43 	0.042780 	4792 	0.042413
42.45 	0.038526 	4776 	0.038281
42.47 	0.040504 	4765 	0.039746
42.49 	0.037775 	4765 	0.037530
42.51 	0.041535 	4743 	0.040917
42.53 	0.038071 	4728 	0.037575
42.55 	0.038445 	4708 	0.037927
42.57 	0.038689 	4730 	0.038070
42.59 	0.037852 	4729 	0.037356
42.61 	0.039507 	4708 	0.038885
42.63 	0.037800 	4709 	0.037551
42.65 	0.036286 	4685 	0.035411
42.67 	0.037361 	4684 	0.036861
42.69 	0.038297 	4674 	0.038046
42.71 	0.043320 	4663 	0.042817
42.73 	0.037284 	4640 	0.037284
42.75 	0.040719 	4617 	0.040085
42.77 	0.039783 	4600 	0.038891
42.79 	0.037756 	4582 	0.036989
42.81 	0.035292 	4562 	0.035035
42.83 	0.032628 	4536 	0.031982
42.85 	0.036882 	4528 	0.036364
42.87 	0.038675 	4499 	0.038154
42.89 	0.036830 	4480 	0.036700
42.91 	0.030521 	4456 	0.030126
42.93 	0.041161 	4446 	0.040502
42.95 	0.036911 	4416 	0.036646
42.97 	0.040673 	4401 	0.040406
42.99 	0.042417 	4385 	0.042284
43.01 	0.043090 	4363 	0.042284
43.03 	0.040388 	4333 	0.040253
43.05 	0.037457 	4325 	0.036915
43.07 	0.039804 	4296 	0.039395
43.09 	0.031753 	4283 	0.031753
43.11 	0.036898 	4255 	0.036898
43.13 	0.038943 	4237 	0.038390
43.15 	0.034475 	4206 	0.034057
43.17 	0.037569 	4179 	0.037429
43.19 	0.035289 	4194 	0.034869
43.21 	0.034516 	4172 	0.033954
43.23 	0.036110 	4154 	0.035969
43.25 	0.044982 	4135 	0.044274
43.27 	0.035079 	4105 	0.034794
43.29 	0.033659 	4100 	0.033087
43.31 	0.036529 	4079 	0.036098
43.33 	0.040237 	4051 	0.039803
43.35 	0.035962 	4032 	0.035526
43.37 	0.040598 	4015 	0.040160
43.39 	0.038731 	4002 	0.038292
43.41 	0.037764 	3972 	0.037322
43.43 	0.039646 	3960 	0.039351
43.45 	0.033545 	3935 	0.032950
43.47 	0.038001 	3921 	0.036955
43.49 	0.037208 	3897 	0.036757
43.51 	0.031468 	3877 	0.031014
43.53 	0.039089 	3863 	0.038482
43.55 	0.039811 	2964 	0.039218
43.57 	0.041108 	2238 	0.041108
43.59 	0.038373 	1746 	0.037702
43.61 	0.037750 	1351 	0.037750
43.63 	0.046953 	1001 	0.046953
43.65 	0.033479 	687 	0.032626
43.67 	0.045817 	502 	0.045817
43.69 	0.038147 	367 	0.038147
43.71 	0.041841 	239 	0.041841
43.73 	0.033333 	120 	0.033333
43.75 	0.125000 	16 	0.125000