File: Example_Data/25SC_s1_0019.002.dat
#F C:\frames\spec\25SC_s1_0019.002
#C title =s:19 frm:2 25SC_s1
#C wavelength =0.15406

#S 1  fr_average C:\frames\spec\25SC_s1_0019.002 C:\win32app\speccom\mask.axs chi 0 180 0 360 0.02
#C 2 theta =0.000000 to 180 deg
#C   q   =0.000000 to 81.568 nm^-1
#C  chi  =0.000000 to 360 deg
#C collumns:
#C  1 position (2theta or chi in degrees)
#C  2 average intensity (sum of all counts in the region divided with number of pixels)
#C  3 Number of pixels in region)
#C  4 error (sum of sqrt(intensity) for all pixels divided by number)
#N 4
#L TTh  Int  N_pix  Err
32.99 	0.114754 	61 	0.105151
33.01 	0.051546 	873 	0.050875
33.03 	0.061826 	1391 	0.061826
33.05 	0.059192 	1757 	0.058192
33.07 	0.058049 	2050 	0.058049
33.09 	0.051981 	2347 	0.051232
33.11 	0.067468 	2579 	0.066332
33.13 	0.059076 	2793 	0.058237
33.15 	0.057352 	2999 	0.056571
33.17 	0.066542 	3201 	0.064895
33.19 	0.063136 	3342 	0.062084
33.21 	0.058207 	3436 	0.056673
33.23 	0.062447 	3523 	0.060784
33.25 	0.056755 	3612 	0.055782
33.27 	0.062810 	3630 	0.061842
33.29 	0.061404 	3648 	0.059958
33.31 	0.055738 	3660 	0.055098
33.33 	0.056430 	3686 	0.055317
33.35 	0.062805 	3694 	0.060902
33.37 	0.061120 	3714 	0.060016
33.39 	0.057388 	3729 	0.056760
33.41 	0.058289 	3740 	0.057036
33.43 	0.058229 	3761 	0.057295
33.45 	0.063875 	3773 	0.063099
33.47 	0.064771 	3798 	0.063203
33.49 	0.059596 	3809 	0.059134
33.51 	0.056094 	3815 	0.055327
33.53 	0.058839 	3841 	0.057771
33.55 	0.051522 	3843 	0.051065
33.57 	0.059582 	3877 	0.058525
33.59 	0.058763 	3880 	0.057379
33.61 	0.065234 	3909 	0.064934
33.63 	0.056647 	3919 	0.056348
33.65 	0.063343 	3931 	0.062300
33.67 	0.060698 	3954 	0.059957
33.69 	0.058184 	3953 	0.056850
33.71 	0.060881 	3975 	0.059702
33.73 	0.060689 	4004 	0.060104
33.75 	0.058765 	3999 	0.057422
33.77 	0.065839 	4025 	0.064820
33.79 	0.055184 	4041 	0.054605
33.81 	0.058445 	4038 	0.056994
33.83 	0.055556 	4050 	0.054977
33.85 	0.056355 	4099 	0.055212
33.87 	0.055461 	4111 	0.054321
33.89 	0.054598 	4121 	0.053746
33.91 	0.058327 	4149 	0.056915
33.93 	0.064081 	4151 	0.062529
33.95 	0.056924 	4181 	0.056364
33.97 	0.057041 	4190 	0.055503
33.99 	0.056190 	4200 	0.055633
34.01 	0.062426 	4213 	0.062009
34.03 	0.062677 	4244 	0.061550
34.05 	0.062559 	4252 	0.061319
34.07 	0.059044 	4268 	0.057809
34.09 	0.054596 	4286 	0.053503
34.11 	0.059972 	4302 	0.058747
34.13 	0.058032 	4308 	0.056808
34.15 	0.055645 	4331 	0.055240
34.17 	0.063908 	4350 	0.063100
34.19 	0.059835 	4362 	0.058358
34.21 	0.058797 	4371 	0.057993
34.23 	0.061006 	4393 	0.060073
34.25 	0.053588 	4404 	0.053056
34.27 	0.060380 	4422 	0.058504
34.29 	0.062007 	4435 	0.060686
34.31 	0.054060 	4458 	0.053009
34.33 	0.059718 	4471 	0.058539
34.35 	0.061329 	4484 	0.059762
34.37 	0.057448 	4491 	0.056013
34.39 	0.057086 	4502 	0.056826
34.41 	0.060097 	4526 	0.059062
34.43 	0.060806 	4539 	0.059107
34.45 	0.052922 	4535 	0.051759
34.47 	0.056402 	4592 	0.056147
34.49 	0.059822 	4597 	0.059439
34.51 	0.060356 	4606 	0.059211
34.53 	0.053629 	4643 	0.053251
34.55 	0.058152 	4643 	0.057017
34.57 	0.060944 	4660 	0.059939
34.59 	0.060107 	4675 	0.058708
34.61 	0.063232 	4697 	0.061985
34.63 	0.058599 	4710 	0.057459
34.65 	0.058674 	4721 	0.057309
34.67 	0.059692 	4741 	0.058704
34.69 	0.055743 	4754 	0.055126
34.71 	0.060428 	4766 	0.059445
34.73 	0.052434 	4787 	0.051210
34.75 	0.051581 	4808 	0.050606
34.77 	0.060606 	4818 	0.059390
34.79 	0.059287 	4824 	0.058558
34.81 	0.055728 	4845 	0.054639
34.83 	0.057384 	4862 	0.056299
34.85 	0.056274 	4869 	0.055793
34.87 	0.059367 	4868 	0.058044
34.89 	0.056329 	4882 	0.055729
34.91 	0.053871 	4882 	0.052791
34.93 	0.059196 	4899 	0.057861
34.95 	0.055215 	4890 	0.054256
34.97 	0.058344 	4902 	0.057507
34.99 	0.053911 	4897 	0.053073
35.01 	0.052204 	4923 	0.051371
35.03 	0.054218 	4943 	0.053270
35.05 	0.050738 	4947 	0.050264
35.07 	0.057490 	4940 	0.056304
35.09 	0.060367 	4953 	0.059894
35.11 	0.062058 	4947 	0.060992
35.13 	0.056071 	4958 	0.055008
35.15 	0.062184 	4937 	0.061353
35.17 	0.066316 	4946 	0.064658
35.19 	0.052408 	4942 	0.051223
35.21 	0.056421 	4945 	0.055335
35.23 	0.062083 	4945 	0.060898
35.25 	0.057050 	4943 	0.056221
35.27 	0.057801 	4948 	0.056854
35.29 	0.062083 	4945 	0.060879
35.31 	0.058180 	4933 	0.056873
35.33 	0.055027 	4943 	0.054316
35.35 	0.058276 	4942 	0.057091
35.37 	0.057299 	4939 	0.055757
35.39 	0.053387 	4945 	0.051847
35.41 	0.053796 	4926 	0.053439
35.43 	0.057977 	4933 	0.057027
35.45 	0.061981 	4937 	0.061269
35.47 	0.052322 	4931 	0.051609
35.49 	0.056415 	4910 	0.055819
35.51 	0.052781 	4926 	0.051691
35.53 	0.057587 	4949 	0.056029
35.55 	0.059858 	4945 	0.059266
35.57 	0.060612 	4933 	0.059662
35.59 	0.058847 	4945 	0.057663
35.61 	0.050384 	4942 	0.050029
35.63 	0.057253 	4943 	0.056897
35.65 	0.057230 	4945 	0.056282
35.67 	0.061918 	4942 	0.059647
35.69 	0.056207 	4946 	0.055378
35.71 	0.055499 	4937 	0.054511
35.73 	0.057334 	4936 	0.056266
35.75 	0.060434 	4931 	0.059365
35.77 	0.058372 	4951 	0.057643
35.79 	0.060827 	4932 	0.059521
35.81 	0.061220 	4933 	0.059895
35.83 	0.059038 	4946 	0.058090
35.85 	0.058967 	4935 	0.058116
35.87 	0.053423 	4923 	0.052709
35.89 	0.057154 	4934 	0.056680
35.91 	0.062716 	4927 	0.061646
35.93 	0.062310 	4927 	0.061240
35.95 	0.061826 	4917 	0.060377
35.97 	0.055578 	4912 	0.055340
35.99 	0.058919 	4939 	0.057970
36.01 	0.058824 	4930 	0.058348
36.03 	0.058264 	4943 	0.057553
36.05 	0.060263 	4945 	0.059789
36.07 	0.052845 	4939 	0.052014
36.09 	0.057287 	4940 	0.056457
36.11 	0.053966 	4929 	0.053234
36.13 	0.065763 	4942 	0.064558
36.15 	0.061753 	4939 	0.060805
36.17 	0.056041 	4925 	0.055089
36.19 	0.048583 	4940 	0.047990
36.21 	0.057821 	4929 	0.057346
36.23 	0.058359 	4935 	0.057152
36.25 	0.059097 	4941 	0.058505
36.27 	0.059898 	4925 	0.058828
36.29 	0.061854 	4931 	0.060784
36.31 	0.065544 	4928 	0.063880
36.33 	0.061829 	4933 	0.061472
36.35 	0.058227 	4929 	0.057038
36.37 	0.063782 	4923 	0.062711
36.39 	0.066247 	4921 	0.064799
36.41 	0.060866 	4896 	0.059789
36.43 	0.054992 	4928 	0.054140
36.45 	0.058215 	4930 	0.056789
36.47 	0.058752 	4936 	0.057447
36.49 	0.059085 	4942 	0.058374
36.51 	0.056963 	4933 	0.055420
36.53 	0.055027 	4943 	0.054198
36.55 	0.061498 	4927 	0.060666
36.57 	0.054722 	4934 	0.053872
36.59 	0.052237 	4939 	0.051763
36.61 	0.056581 	4931 	0.055749
36.63 	0.057392 	4931 	0.056679
36.65 	0.056569 	4932 	0.055263
36.67 	0.056187 	4930 	0.055236
36.69 	0.057618 	4929 	0.057143
36.71 	0.061979 	4921 	0.060432
36.73 	0.055431 	4925 	0.054718
36.75 	0.055623 	4944 	0.054083
36.77 	0.057939 	4919 	0.056748
36.79 	0.054664 	4921 	0.053711
36.81 	0.058177 	4916 	0.057343
36.83 	0.059410 	4915 	0.058337
36.85 	0.052470 	4898 	0.051753
36.87 	0.057646 	4944 	0.057271
36.89 	0.056550 	4916 	0.055716
36.91 	0.053633 	4941 	0.052447
36.93 	0.053144 	4930 	0.052312
36.95 	0.046219 	4933 	0.045626
36.97 	0.052898 	4934 	0.052186
36.99 	0.057143 	4935 	0.056549
37.01 	0.053923 	4933 	0.052735
37.03 	0.057271 	4924 	0.056319
37.05 	0.059265 	4927 	0.058671
37.07 	0.053090 	4935 	0.052259
37.09 	0.056006 	4928 	0.055531
37.11 	0.050861 	4935 	0.050149
37.13 	0.055240 	4924 	0.054169
37.15 	0.055612 	4909 	0.054658
37.17 	0.056749 	4934 	0.056393
37.19 	0.054010 	4925 	0.053772
37.21 	0.054505 	4917 	0.053075
37.23 	0.055104 	4918 	0.054389
37.25 	0.055386 	4911 	0.055028
37.27 	0.055578 	4894 	0.054621
37.29 	0.053347 	4930 	0.052139
37.31 	0.056535 	4935 	0.055111
37.33 	0.059265 	4927 	0.058057
37.35 	0.049615 	4938 	0.048903
37.37 	0.055815 	4927 	0.055220
37.39 	0.056986 	4931 	0.055561
37.41 	0.056378 	4931 	0.055190
37.43 	0.054339 	4932 	0.053626
37.45 	0.052396 	4924 	0.051445
37.47 	0.055184 	4929 	0.053876
37.49 	0.058704 	4923 	0.057990
37.51 	0.049868 	4933 	0.049156
37.53 	0.051027 	4919 	0.050193
37.55 	0.055781 	4930 	0.054830
37.57 	0.060711 	4925 	0.060116
37.59 	0.049644 	4915 	0.048929
37.61 	0.055059 	4922 	0.054345
37.63 	0.053060 	4919 	0.052345
37.65 	0.051037 	4918 	0.049707
37.67 	0.058728 	4904 	0.057891
37.69 	0.055125 	4898 	0.053929
37.71 	0.049706 	4929 	0.048993
37.73 	0.053561 	4929 	0.052610
37.75 	0.051619 	4940 	0.050789
37.77 	0.053659 	4920 	0.053182
37.79 	0.049290 	4930 	0.048577
37.81 	0.056558 	4933 	0.055727
37.83 	0.050203 	4920 	0.049846
37.85 	0.052011 	4922 	0.051178
37.87 	0.052440 	4939 	0.051491
37.89 	0.053604 	4925 	0.053247
37.91 	0.047059 	4930 	0.046346
37.93 	0.057939 	4919 	0.056748
37.95 	0.054664 	4921 	0.054307
37.97 	0.056807 	4929 	0.055955
37.99 	0.056393 	4912 	0.055915
38.01 	0.052354 	4928 	0.051641
38.03 	0.055001 	4909 	0.054643
38.05 	0.051371 	4925 	0.050300
38.07 	0.051945 	4909 	0.050871
38.09 	0.059451 	4878 	0.058710
38.11 	0.056535 	4935 	0.055823
38.13 	0.055094 	4937 	0.054620
38.15 	0.052460 	4918 	0.051269
38.17 	0.055781 	4930 	0.054593
38.19 	0.058012 	4930 	0.057299
38.21 	0.054641 	4923 	0.053690
38.23 	0.054475 	4938 	0.053388
38.25 	0.053691 	4917 	0.052599
38.27 	0.050710 	4930 	0.050235
38.29 	0.056661 	4924 	0.055353
38.31 	0.054800 	4927 	0.054087
38.33 	0.057067 	4924 	0.055997
38.35 	0.056209 	4928 	0.055377
38.37 	0.062551 	4924 	0.060290
38.39 	0.057853 	4909 	0.057018
38.41 	0.065407 	4923 	0.064336
38.43 	0.062856 	4916 	0.061545
38.45 	0.063847 	4918 	0.062636
38.47 	0.055023 	4907 	0.053949
38.49 	0.064794 	4877 	0.063713
38.51 	0.053933 	4932 	0.052746
38.53 	0.062082 	4929 	0.060755
38.55 	0.064425 	4936 	0.062644
38.57 	0.065610 	4923 	0.063945
38.59 	0.059504 	4924 	0.058434
38.61 	0.057536 	4936 	0.056468
38.63 	0.067425 	4924 	0.065859
38.65 	0.055104 	4918 	0.054151
38.67 	0.059753 	4937 	0.059041
38.69 	0.059732 	4922 	0.059117
38.71 	0.055849 	4924 	0.055235
38.73 	0.070760 	4918 	0.069093
38.75 	0.062919 	4927 	0.062086
38.77 	0.061345 	4923 	0.060373
38.79 	0.054722 	4934 	0.053891
38.81 	0.059853 	4912 	0.058899
38.83 	0.055906 	4919 	0.054596
38.85 	0.054560 	4912 	0.053587
38.87 	0.053757 	4911 	0.052445
38.89 	0.057586 	4897 	0.056510
38.91 	0.055884 	4903 	0.054809
38.93 	0.051033 	4938 	0.050440
38.95 	0.052664 	4918 	0.052068
38.97 	0.045630 	4931 	0.044917
38.99 	0.048410 	4937 	0.047817
39.01 	0.051850 	4918 	0.050897
39.03 	0.046615 	4934 	0.046259
39.05 	0.051371 	4925 	0.050181
39.07 	0.045491 	4924 	0.044421
39.09 	0.047532 	4923 	0.047056
39.11 	0.055567 	4931 	0.054379
39.13 	0.052204 	4923 	0.051371
39.15 	0.051475 	4915 	0.050402
39.17 	0.046587 	4937 	0.046468
39.19 	0.051861 	4917 	0.051027
39.21 	0.045214 	4910 	0.044856
39.23 	0.047310 	4925 	0.045744
39.25 	0.050792 	4922 	0.050078
39.27 	0.044399 	4910 	0.044041
39.29 	0.047337 	4901 	0.046142
39.31 	0.045455 	4884 	0.044975
39.33 	0.046035 	4931 	0.045204
39.35 	0.046809 	4935 	0.046334
39.37 	0.044228 	4929 	0.043753
39.39 	0.044837 	4929 	0.044599
39.41 	0.043196 	4931 	0.042840
39.43 	0.049260 	4933 	0.048647
39.45 	0.046904 	4925 	0.046785
39.47 	0.046516 	4923 	0.045921
39.49 	0.046017 	4933 	0.045304
39.51 	0.048132 	4924 	0.047537
39.53 	0.043266 	4923 	0.042790
39.55 	0.045741 	4919 	0.044907
39.57 	0.042976 	4933 	0.042382
39.59 	0.042142 	4912 	0.041307
39.61 	0.047329 	4923 	0.046853
39.63 	0.040431 	4922 	0.039955
39.65 	0.042631 	4926 	0.042374
39.67 	0.041726 	4913 	0.041130
39.69 	0.046989 	4916 	0.046394
39.71 	0.040858 	4895 	0.040260
39.73 	0.048900 	4908 	0.047925
39.75 	0.049513 	4928 	0.048899
39.77 	0.052077 	4935 	0.051365
39.79 	0.046285 	4926 	0.045809
39.81 	0.042622 	4927 	0.041790
39.83 	0.051885 	4934 	0.051291
39.85 	0.042013 	4927 	0.041895
39.87 	0.043655 	4925 	0.043179
39.89 	0.043981 	4934 	0.043130
39.91 	0.048761 	4922 	0.047928
39.93 	0.052258 	4937 	0.051784
39.95 	0.046999 	4915 	0.046403
39.97 	0.041599 	4928 	0.041124
39.99 	0.043187 	4932 	0.042950
40.01 	0.045547 	4918 	0.044694
40.03 	0.042411 	4928 	0.041698
40.05 	0.047387 	4917 	0.046672
40.07 	0.037172 	4923 	0.036578
40.09 	0.044752 	4916 	0.044394
40.11 	0.044142 	4916 	0.043307
40.13 	0.046773 	4896 	0.046055
40.15 	0.043151 	4913 	0.042197
40.17 	0.043831 	4928 	0.043118
40.19 	0.045040 	4929 	0.044564
40.21 	0.046403 	4935 	0.046047
40.23 	0.044201 	4932 	0.043013
40.25 	0.048577 	4920 	0.047982
40.27 	0.044764 	4937 	0.044171
40.29 	0.048711 	4927 	0.048117
40.31 	0.041709 	4939 	0.040879
40.33 	0.044404 	4932 	0.043929
40.35 	0.039642 	4919 	0.039047
40.37 	0.047271 	4929 	0.046420
40.39 	0.045832 	4931 	0.045239
40.41 	0.046294 	4925 	0.045581
40.43 	0.045307 	4922 	0.044811
40.45 	0.045611 	4933 	0.045136
40.47 	0.038634 	4918 	0.038395
40.49 	0.044052 	4926 	0.043101
40.51 	0.047338 	4922 	0.046505
40.53 	0.044752 	4916 	0.044037
40.55 	0.043195 	4908 	0.042837
40.57 	0.047648 	4890 	0.047528
40.59 	0.045372 	4937 	0.044778
40.61 	0.048632 	4935 	0.048157
40.63 	0.046045 	4930 	0.045332
40.65 	0.041118 	4937 	0.040762
40.67 	0.041565 	4932 	0.040714
40.69 	0.041321 	4937 	0.041083
40.71 	0.045823 	4932 	0.045229
40.73 	0.045879 	4926 	0.045047
40.75 	0.043196 	4931 	0.042840
40.77 	0.038267 	4939 	0.037555
40.79 	0.044882 	4924 	0.044525
40.81 	0.046549 	4941 	0.046075
40.83 	0.040787 	4928 	0.040193
40.85 	0.044273 	4924 	0.043678
40.87 	0.040990 	4928 	0.040376
40.89 	0.036504 	4931 	0.036147
40.91 	0.045907 	4923 	0.045669
40.93 	0.044589 	4934 	0.043045
40.95 	0.043151 	4913 	0.042912
40.97 	0.048335 	4924 	0.047978
40.99 	0.046710 	4924 	0.046591
41.01 	0.039902 	4912 	0.039664
41.03 	0.041182 	4905 	0.040824
41.05 	0.043152 	4936 	0.042559
41.07 	0.045030 	4930 	0.044318
41.09 	0.040494 	4939 	0.040138
41.11 	0.045390 	4935 	0.044915
41.13 	0.048217 	4936 	0.047742
41.15 	0.044525 	4941 	0.043676
41.17 	0.041751 	4934 	0.041395
41.19 	0.044828 	4930 	0.044352
41.21 	0.046384 	4937 	0.046028
41.23 	0.039482 	4939 	0.038889
41.25 	0.043179 	4933 	0.042466
41.27 	0.044616 	4931 	0.044141
41.29 	0.042005 	4928 	0.041153
41.31 	0.039732 	4933 	0.039376
41.33 	0.045372 	4937 	0.044660
41.35 	0.041515 	4938 	0.040803
41.37 	0.045898 	4924 	0.045422
41.39 	0.041962 	4933 	0.041725
41.41 	0.044255 	4926 	0.042947
41.43 	0.042808 	4929 	0.041857
41.45 	0.039479 	4914 	0.039102
41.47 	0.040601 	4926 	0.039887
41.49 	0.045585 	4892 	0.044387
41.51 	0.041700 	4940 	0.040989
41.53 	0.043083 	4944 	0.042727
41.55 	0.042148 	4935 	0.041436
41.57 	0.041894 	4941 	0.041657
41.59 	0.043584 	4933 	0.042872
41.61 	0.045629 	4953 	0.044564
41.63 	0.043742 	4938 	0.043268
41.65 	0.040779 	4929 	0.039591
41.67 	0.040688 	4940 	0.040095
41.69 	0.043259 	4947 	0.042666
41.71 	0.039522 	4934 	0.039047
41.73 	0.042747 	4936 	0.042628
41.75 	0.043214 	4929 	0.042719
41.77 	0.043109 	4941 	0.042378
41.79 	0.042273 	4944 	0.041326
41.81 	0.041329 	4936 	0.040498
41.83 	0.035106 	4928 	0.034749
41.85 	0.041304 	4939 	0.040929
41.87 	0.043972 	4935 	0.043359
41.89 	0.039327 	4933 	0.039089
41.91 	0.043355 	4936 	0.042999
41.93 	0.034672 	4932 	0.033939
41.95 	0.043805 	4931 	0.043329
41.97 	0.037851 	4914 	0.037374
41.99 	0.044444 	4905 	0.044325
42.01 	0.046338 	4942 	0.045745
42.03 	0.040696 	4939 	0.040578
42.05 	0.040994 	4952 	0.040165
42.07 	0.040105 	4937 	0.039275
42.09 	0.042643 	4948 	0.042052
42.11 	0.038423 	4945 	0.038067
42.13 	0.038018 	4945 	0.037426
42.15 	0.042122 	4938 	0.041411
42.17 	0.037617 	4918 	0.037021
42.19 	0.041157 	4908 	0.040422
42.21 	0.042032 	4901 	0.041196
42.23 	0.042110 	4892 	0.041271
42.25 	0.044590 	4889 	0.044230
42.27 	0.040008 	4874 	0.039287
42.29 	0.039071 	4863 	0.038589
42.31 	0.035633 	4855 	0.035030
42.33 	0.041374 	4834 	0.041131
42.35 	0.039479 	4838 	0.039116
42.37 	0.043271 	4830 	0.042786
42.39 	0.035803 	4804 	0.035194
42.41 	0.035803 	4804 	0.035438
42.43 	0.036102 	4792 	0.035735
42.45 	0.041876 	4776 	0.041508
42.47 	0.034208 	4765 	0.033716
42.49 	0.034837 	4765 	0.034591
42.51 	0.042167 	4743 	0.041550
42.53 	0.035744 	4728 	0.035229
42.55 	0.039932 	4708 	0.039932
42.57 	0.040803 	4730 	0.040184
42.59 	0.041023 	4729 	0.040156
42.61 	0.040357 	4708 	0.040232
42.63 	0.038437 	4709 	0.037566
42.65 	0.042689 	4685 	0.041689
42.67 	0.040991 	4684 	0.040740
42.69 	0.038725 	4674 	0.038224
42.71 	0.039888 	4663 	0.039386
42.73 	0.045259 	4640 	0.045006
42.75 	0.034871 	4617 	0.034490
42.77 	0.040217 	4600 	0.039963
42.79 	0.039502 	4582 	0.039375
42.81 	0.041429 	4562 	0.040787
42.83 	0.044092 	4536 	0.043059
42.85 	0.036661 	4528 	0.036531
42.87 	0.040453 	4499 	0.039802
42.89 	0.045536 	4480 	0.045013
42.91 	0.038600 	4456 	0.038205
42.93 	0.043635 	4446 	0.043108
42.95 	0.043931 	4416 	0.043666
42.97 	0.037719 	4401 	0.037319
42.99 	0.043558 	4385 	0.043290
43.01 	0.037130 	4363 	0.036862
43.03 	0.036003 	4333 	0.035327
43.05 	0.038382 	4325 	0.037975
43.07 	0.042598 	4296 	0.042052
43.09 	0.039925 	4283 	0.039652
43.11 	0.036898 	4255 	0.036898
43.13 	0.039179 	4237 	0.038626
43.15 	0.039943 	4206 	0.039247
43.17 	0.040680 	4179 	0.040119
43.19 	0.043395 	4194 	0.043395
43.21 	0.040029 	4172 	0.039467
43.23 	0.037073 	4154 	0.036791
43.25 	0.033132 	4135 	0.032990
43.27 	0.039464 	4105 	0.039036
43.29 	0.036098 	4100 	0.035503
43.31 	0.037754 	4079 	0.037467
43.33 	0.041965 	4051 	0.041218
43.35 	0.038194 	4032 	0.037468
43.37 	0.036115 	4015 	0.035823
43.39 	0.037231 	4002 	0.036792
43.41 	0.037513 	3972 	0.037365
43.43 	0.039394 	3960 	0.038950
43.45 	0.037103 	3935 	0.036656
43.47 	0.042336 	3921 	0.041739
43.49 	0.043880 	3897 	0.043429
43.51 	0.042817 	3877 	0.042514
43.53 	0.045302 	3863 	0.044392
43.55 	0.040823 	2964 	0.040230
43.57 	0.037980 	2238 	0.037719
43.59 	0.034364 	1746 	0.034364
43.61 	0.039970 	1351 	0.039537
43.63 	0.034965 	1001 	0.034380
43.65 	0.039301 	687 	0.037596
43.67 	0.053785 	502 	0.052618
43.69 	0.046322 	367 	0.046322
43.71 	0.062762 	239 	0.062762
43.73 	0.050000 	120 	0.045118
43.75 	0.000000 	16 	0.000000