File: Example_Data/25SC_s1_0016.004.dat
#F C:\frames\spec\25SC_s1_0016.004
#C title =s:16 frm:4 25SC_s1
#C wavelength =0.15406

#S 1  fr_average C:\frames\spec\25SC_s1_0016.004 C:\win32app\speccom\mask.axs chi 0 180 0 360 0.02
#C 2 theta =0.000000 to 180 deg
#C   q   =0.000000 to 81.568 nm^-1
#C  chi  =0.000000 to 360 deg
#C collumns:
#C  1 position (2theta or chi in degrees)
#C  2 average intensity (sum of all counts in the region divided with number of pixels)
#C  3 Number of pixels in region)
#C  4 error (sum of sqrt(intensity) for all pixels divided by number)
#N 4
#L TTh  Int  N_pix  Err
32.99 	0.081967 	61 	0.081967
33.01 	0.052692 	873 	0.052692
33.03 	0.051761 	1391 	0.051340
33.05 	0.058623 	1757 	0.057956
33.07 	0.062927 	2050 	0.062355
33.09 	0.056668 	2347 	0.055670
33.11 	0.054285 	2579 	0.053149
33.13 	0.063731 	2793 	0.062682
33.15 	0.052017 	2999 	0.051627
33.17 	0.060294 	3201 	0.059562
33.19 	0.051765 	3342 	0.051590
33.21 	0.054424 	3436 	0.053742
33.23 	0.057337 	3523 	0.056340
33.25 	0.062569 	3612 	0.061434
33.27 	0.056749 	3630 	0.056104
33.29 	0.056195 	3648 	0.055392
33.31 	0.057377 	3660 	0.056577
33.33 	0.067824 	3686 	0.066076
33.35 	0.056849 	3694 	0.056215
33.37 	0.044965 	3714 	0.044492
33.39 	0.059533 	3729 	0.057962
33.41 	0.057487 	3740 	0.056390
33.43 	0.056634 	3761 	0.055699
33.45 	0.066260 	3773 	0.063621
33.47 	0.056609 	3798 	0.055683
33.49 	0.058020 	3809 	0.057098
33.51 	0.056356 	3815 	0.055742
33.53 	0.063265 	3841 	0.061740
33.55 	0.060890 	3843 	0.059213
33.57 	0.058808 	3877 	0.057449
33.59 	0.055412 	3880 	0.054808
33.61 	0.056536 	3909 	0.055637
33.63 	0.065323 	3919 	0.063953
33.65 	0.058764 	3931 	0.057870
33.67 	0.055387 	3954 	0.054942
33.69 	0.059449 	3953 	0.058411
33.71 	0.058868 	3975 	0.058131
33.73 	0.058691 	4004 	0.057643
33.75 	0.056014 	3999 	0.055135
33.77 	0.059627 	4025 	0.058609
33.79 	0.060629 	4041 	0.060194
33.81 	0.062159 	4038 	0.060854
33.83 	0.059506 	4050 	0.058470
33.85 	0.057087 	4099 	0.056230
33.87 	0.057893 	4111 	0.056896
33.89 	0.060422 	4121 	0.059854
33.91 	0.055676 	4149 	0.054970
33.93 	0.060949 	4151 	0.059515
33.95 	0.063860 	4181 	0.061432
33.97 	0.059905 	4190 	0.059066
33.99 	0.058333 	4200 	0.056916
34.01 	0.056967 	4213 	0.056271
34.03 	0.059614 	4244 	0.058095
34.05 	0.063029 	4252 	0.061514
34.07 	0.060684 	4268 	0.059723
34.09 	0.059263 	4286 	0.058306
34.11 	0.061367 	4302 	0.059869
34.13 	0.053157 	4308 	0.052341
34.15 	0.054491 	4331 	0.053950
34.17 	0.054943 	4350 	0.053731
34.19 	0.055708 	4362 	0.054478
34.21 	0.060398 	4371 	0.059058
34.23 	0.060323 	4393 	0.059123
34.25 	0.055404 	4404 	0.054074
34.27 	0.061058 	4422 	0.059601
34.29 	0.063134 	4435 	0.062320
34.31 	0.061014 	4458 	0.059415
34.33 	0.057034 	4471 	0.055462
34.35 	0.064005 	4484 	0.062960
34.37 	0.065910 	4491 	0.064062
34.39 	0.064194 	4502 	0.062632
34.41 	0.066726 	4526 	0.065690
34.43 	0.055078 	4539 	0.053917
34.45 	0.059537 	4535 	0.058224
34.47 	0.058580 	4592 	0.057560
34.49 	0.059822 	4597 	0.058930
34.51 	0.054494 	4606 	0.053456
34.53 	0.060306 	4643 	0.059549
34.55 	0.058798 	4643 	0.058167
34.57 	0.066524 	4660 	0.065644
34.59 	0.055401 	4675 	0.054399
34.61 	0.055142 	4697 	0.054019
34.63 	0.054140 	4710 	0.053270
34.65 	0.057191 	4721 	0.055682
34.67 	0.059059 	4741 	0.057824
34.69 	0.055532 	4754 	0.055039
34.71 	0.054763 	4766 	0.054394
34.73 	0.057238 	4787 	0.056749
34.75 	0.053245 	4808 	0.052026
34.77 	0.059153 	4818 	0.057451
34.79 	0.053068 	4824 	0.051975
34.81 	0.056347 	4845 	0.055219
34.83 	0.052859 	4862 	0.052136
34.85 	0.060177 	4869 	0.059194
34.87 	0.058751 	4868 	0.057187
34.89 	0.057763 	4882 	0.057283
34.91 	0.061655 	4882 	0.060795
34.93 	0.061441 	4899 	0.060843
34.95 	0.054601 	4890 	0.054002
34.97 	0.056100 	4902 	0.055502
34.99 	0.053094 	4897 	0.052137
35.01 	0.056876 	4923 	0.056400
35.03 	0.053611 	4943 	0.053019
35.05 	0.058015 	4947 	0.056831
35.07 	0.060121 	4940 	0.059291
35.09 	0.056733 	4953 	0.055157
35.11 	0.059632 	4947 	0.058448
35.13 	0.064946 	4958 	0.064237
35.15 	0.062589 	4937 	0.060690
35.17 	0.056409 	4946 	0.055462
35.19 	0.059085 	4942 	0.058374
35.21 	0.058241 	4945 	0.057175
35.23 	0.053589 	4945 	0.052879
35.25 	0.061299 	4943 	0.060351
35.27 	0.061641 	4948 	0.059747
35.29 	0.065521 	4945 	0.064336
35.31 	0.058585 	4933 	0.057398
35.33 	0.060692 	4943 	0.059270
35.35 	0.061514 	4942 	0.060921
35.37 	0.061146 	4939 	0.059960
35.39 	0.062690 	4945 	0.061604
35.41 	0.062119 	4926 	0.060554
35.43 	0.060207 	4933 	0.058901
35.45 	0.062184 	4937 	0.061234
35.47 	0.056784 	4931 	0.056071
35.49 	0.064155 	4910 	0.063558
35.51 	0.060292 	4926 	0.059817
35.53 	0.059608 	4949 	0.058779
35.55 	0.060667 	4945 	0.059463
35.57 	0.060004 	4933 	0.058460
35.59 	0.062487 	4945 	0.061540
35.61 	0.053824 	4942 	0.052876
35.63 	0.062108 	4943 	0.060923
35.65 	0.058443 	4945 	0.057495
35.67 	0.059692 	4942 	0.058488
35.69 	0.057016 	4946 	0.055713
35.71 	0.059348 	4937 	0.058280
35.73 	0.054498 	4936 	0.053904
35.75 	0.053336 	4931 	0.052148
35.77 	0.060594 	4951 	0.059411
35.79 	0.056164 	4932 	0.055214
35.81 	0.056963 	4933 	0.056370
35.83 	0.060655 	4946 	0.059708
35.85 	0.062817 	4935 	0.060799
35.87 	0.061142 	4923 	0.059357
35.89 	0.055533 	4934 	0.054821
35.91 	0.052770 	4927 	0.052414
35.93 	0.051553 	4927 	0.050839
35.95 	0.059182 	4917 	0.058229
35.97 	0.062907 	4912 	0.062192
35.99 	0.063981 	4939 	0.062676
36.01 	0.060446 	4930 	0.059100
36.03 	0.060692 	4943 	0.059507
36.05 	0.052983 	4945 	0.052509
36.07 	0.059526 	4939 	0.058340
36.09 	0.062551 	4940 	0.061108
36.11 	0.063299 	4929 	0.062229
36.13 	0.057669 	4942 	0.056721
36.15 	0.061956 	4939 	0.060533
36.17 	0.055635 	4925 	0.055040
36.19 	0.063968 	4940 	0.062426
36.21 	0.057618 	4929 	0.056667
36.23 	0.056940 	4935 	0.056228
36.25 	0.052216 	4941 	0.051505
36.27 	0.063147 	4925 	0.061819
36.29 	0.058203 	4931 	0.057966
36.31 	0.056818 	4928 	0.055867
36.33 	0.057774 	4933 	0.057180
36.35 	0.062082 	4929 	0.060537
36.37 	0.060126 	4923 	0.058817
36.39 	0.065637 	4921 	0.064685
36.41 	0.061275 	4896 	0.059958
36.43 	0.058644 	4928 	0.058169
36.45 	0.058418 	4930 	0.057348
36.47 	0.060170 	4936 	0.058983
36.49 	0.057062 	4942 	0.055995
36.51 	0.054936 	4933 	0.053511
36.53 	0.057860 	4943 	0.057149
36.55 	0.053988 	4927 	0.052304
36.57 	0.060195 	4934 	0.058532
36.59 	0.062158 	4939 	0.061209
36.61 	0.057595 	4931 	0.056526
36.63 	0.058000 	4931 	0.056931
36.65 	0.062247 	4932 	0.061396
36.67 	0.054361 	4930 	0.053410
36.69 	0.061676 	4929 	0.060250
36.71 	0.059134 	4921 	0.058658
36.73 	0.059492 	4925 	0.058640
36.75 	0.060680 	4944 	0.059613
36.77 	0.056719 	4919 	0.055766
36.79 	0.057915 	4921 	0.056725
36.81 	0.056957 	4916 	0.056103
36.83 	0.063683 	4915 	0.062610
36.85 	0.062679 	4898 	0.061602
36.87 	0.056634 	4944 	0.055568
36.89 	0.057364 	4916 	0.056053
36.91 	0.049383 	4941 	0.049027
36.93 	0.053144 	4930 	0.052550
36.95 	0.053720 	4933 	0.052414
36.97 	0.052898 	4934 	0.051948
36.99 	0.063627 	4935 	0.062559
37.01 	0.050882 	4933 	0.050644
37.03 	0.052193 	4924 	0.051480
37.05 	0.051553 	4927 	0.050720
37.07 	0.059169 	4935 	0.057626
37.09 	0.054992 	4928 	0.053803
37.11 	0.052888 	4935 	0.052175
37.13 	0.055646 	4924 	0.054575
37.15 	0.059075 	4909 	0.058598
37.17 	0.055330 	4934 	0.053649
37.19 	0.056244 	4925 	0.055530
37.21 	0.053081 	4917 	0.050917
37.23 	0.055714 	4918 	0.054741
37.25 	0.046834 	4911 	0.045999
37.27 	0.064365 	4894 	0.063287
37.29 	0.052535 	4930 	0.051941
37.31 	0.050861 	4935 	0.049892
37.33 	0.052162 	4927 	0.051567
37.35 	0.060956 	4938 	0.059888
37.37 	0.054191 	4927 	0.053953
37.39 	0.061651 	4931 	0.060463
37.41 	0.058406 	4931 	0.057555
37.43 	0.052717 	4932 	0.052123
37.45 	0.059504 	4924 	0.058910
37.47 	0.048286 	4929 	0.047691
37.49 	0.059110 	4923 	0.058515
37.51 	0.054328 	4933 	0.053616
37.53 	0.055702 	4919 	0.054154
37.55 	0.053347 	4930 	0.052872
37.57 	0.057259 	4925 	0.056664
37.59 	0.046796 	4915 	0.045842
37.61 	0.053027 	4922 	0.051956
37.63 	0.059158 	4919 	0.058206
37.65 	0.051850 	4918 	0.051017
37.67 	0.052610 	4904 	0.052013
37.69 	0.055125 	4898 	0.054287
37.71 	0.050517 	4929 	0.049448
37.73 	0.053966 	4929 	0.053491
37.75 	0.055668 	4940 	0.054364
37.77 	0.055081 	4920 	0.054129
37.79 	0.052535 	4930 	0.052417
37.81 	0.057369 	4933 	0.056419
37.83 	0.053252 	4920 	0.052657
37.85 	0.053434 	4922 	0.052719
37.87 	0.047580 	4939 	0.047106
37.89 	0.052995 	4925 	0.051568
37.91 	0.055578 	4930 	0.054509
37.93 	0.048790 	4919 	0.048195
37.95 	0.057712 	4921 	0.056521
37.97 	0.059647 	4929 	0.058696
37.99 	0.055171 	4912 	0.054217
38.01 	0.054383 	4928 	0.053551
38.03 	0.060705 	4909 	0.059870
38.05 	0.060102 	4925 	0.058674
38.07 	0.056020 	4909 	0.055184
38.09 	0.053916 	4878 	0.053055
38.11 	0.062209 	4935 	0.061378
38.13 	0.059955 	4937 	0.059125
38.15 	0.061204 	4918 	0.060013
38.17 	0.054970 	4930 	0.054138
38.19 	0.059432 	4930 	0.058363
38.21 	0.058704 	4923 	0.057514
38.23 	0.056096 	4938 	0.055265
38.25 	0.065080 	4917 	0.064127
38.27 	0.060446 	4930 	0.060090
38.29 	0.063769 	4924 	0.062342
38.31 	0.059671 	4927 	0.058582
38.33 	0.065394 	4924 	0.063610
38.35 	0.067167 	4928 	0.065741
38.37 	0.063363 	4924 	0.062887
38.39 	0.070890 	4909 	0.068742
38.41 	0.067845 	4923 	0.067131
38.43 	0.061229 	4916 	0.059799
38.45 	0.061204 	4918 	0.060251
38.47 	0.067251 	4907 	0.065679
38.49 	0.056592 	4877 	0.055391
38.51 	0.060827 	4932 	0.059877
38.53 	0.064516 	4929 	0.062971
38.55 	0.058752 	4936 	0.057328
38.57 	0.061954 	4923 	0.060526
38.59 	0.060926 	4924 	0.059955
38.61 	0.052877 	4936 	0.052402
38.63 	0.062754 	4924 	0.061445
38.65 	0.064050 	4918 	0.063078
38.67 	0.062994 	4937 	0.062045
38.69 	0.063389 	4922 	0.062298
38.71 	0.062957 	4924 	0.061748
38.73 	0.060797 	4918 	0.058753
38.75 	0.058859 	4927 	0.057314
38.77 	0.054641 	4923 	0.053571
38.79 	0.051480 	4934 	0.050648
38.81 	0.058836 	4912 	0.058001
38.83 	0.056719 	4919 	0.055647
38.85 	0.056800 	4912 	0.055369
38.87 	0.058644 	4911 	0.057570
38.89 	0.056157 	4897 	0.055798
38.91 	0.054660 	4903 	0.053705
38.93 	0.058728 	4938 	0.058135
38.95 	0.054697 	4918 	0.053605
38.97 	0.049888 	4931 	0.049294
38.99 	0.053879 	4937 	0.052811
39.01 	0.050020 	4918 	0.049544
39.03 	0.051480 	4934 	0.051005
39.05 	0.055025 	4925 	0.054193
39.07 	0.050569 	4924 	0.049498
39.09 	0.052610 	4923 	0.051539
39.11 	0.051105 	4931 	0.049798
39.13 	0.053626 	4923 	0.052555
39.15 	0.053510 	4915 	0.052795
39.17 	0.051043 	4937 	0.049619
39.19 	0.054708 	4917 	0.053259
39.21 	0.053360 	4910 	0.052406
39.23 	0.058477 	4925 	0.057288
39.25 	0.048354 	4922 	0.047640
39.27 	0.046436 	4910 	0.045601
39.29 	0.050398 	4901 	0.050039
39.31 	0.056511 	4884 	0.055552
39.33 	0.057595 	4931 	0.056506
39.35 	0.060993 	4935 	0.059806
39.37 	0.054981 	4929 	0.054030
39.39 	0.055995 	4929 	0.054688
39.41 	0.059014 	4931 	0.057450
39.43 	0.060612 	4933 	0.059662
39.45 	0.054619 	4925 	0.053906
39.47 	0.060735 	4923 	0.059902
39.49 	0.053517 	4933 	0.052686
39.51 	0.054833 	4924 	0.053129
39.53 	0.045907 	4923 	0.045312
39.55 	0.053263 	4919 	0.052787
39.57 	0.056152 	4933 	0.054609
39.59 	0.055171 	4912 	0.053740
39.61 	0.054032 	4923 	0.053556
39.63 	0.049370 	4922 	0.048656
39.65 	0.060698 	4926 	0.059133
39.67 	0.052107 	4913 	0.051272
39.69 	0.052075 	4916 	0.051598
39.71 	0.053933 	4895 	0.052975
39.73 	0.056846 	4908 	0.056010
39.75 	0.062703 	4928 	0.061871
39.77 	0.060182 	4935 	0.058639
39.79 	0.051157 	4926 	0.050444
39.81 	0.062513 	4927 	0.061443
39.83 	0.057560 	4934 	0.056610
39.85 	0.055815 	4927 	0.054626
39.87 	0.055635 	4925 	0.054683
39.89 	0.055736 	4934 	0.055023
39.91 	0.057091 	4922 	0.056258
39.93 	0.049018 	4937 	0.047792
39.95 	0.053713 	4915 	0.052879
39.97 	0.058442 	4928 	0.057847
39.99 	0.057786 	4932 	0.056361
40.01 	0.055104 	4918 	0.053674
40.03 	0.055398 	4928 	0.055041
40.05 	0.047590 	4917 	0.046399
40.07 	0.056673 	4923 	0.055344
40.09 	0.055533 	4916 	0.055056
40.11 	0.050854 	4916 	0.050020
40.13 	0.053309 	4896 	0.052112
40.15 	0.060248 	4913 	0.059533
40.17 	0.054180 	4928 	0.053824
40.19 	0.058633 	4929 	0.057920
40.21 	0.054914 	4935 	0.054063
40.23 	0.049676 	4932 	0.049200
40.25 	0.054065 	4920 	0.053351
40.27 	0.051043 	4937 	0.050213
40.29 	0.053176 	4927 	0.052681
40.31 	0.043329 	4939 	0.042617
40.33 	0.052514 	4932 	0.051445
40.35 	0.051230 	4919 	0.050396
40.37 	0.052546 	4929 	0.051833
40.39 	0.049888 	4931 	0.049176
40.41 	0.052183 	4925 	0.051945
40.43 	0.050386 	4922 	0.049077
40.45 	0.055747 	4933 	0.055153
40.47 	0.056934 	4918 	0.055623
40.49 	0.046691 	4926 	0.046215
40.51 	0.053434 	4922 	0.052600
40.53 	0.056143 	4916 	0.055667
40.55 	0.051345 	4908 	0.050867
40.57 	0.051738 	4890 	0.050900
40.59 	0.053069 	4937 	0.052594
40.61 	0.054103 	4935 	0.053510
40.63 	0.056592 	4930 	0.055998
40.65 	0.053474 	4937 	0.053236
40.67 	0.052514 	4932 	0.051445
40.69 	0.054284 	4937 	0.053691
40.71 	0.053325 	4932 	0.052375
40.73 	0.048924 	4926 	0.048092
40.75 	0.050091 	4931 	0.049616
40.77 	0.049808 	4939 	0.049215
40.79 	0.057474 	4924 	0.056403
40.81 	0.053835 	4941 	0.053242
40.83 	0.060268 	4928 	0.059674
40.85 	0.050569 	4924 	0.049855
40.87 	0.055195 	4928 	0.054363
40.89 	0.053944 	4931 	0.053350
40.91 	0.047329 	4923 	0.046853
40.93 	0.050669 	4934 	0.050313
40.95 	0.050478 	4913 	0.049882
40.97 	0.051990 	4924 	0.051039
40.99 	0.046710 	4924 	0.045977
41.01 	0.056393 	4912 	0.055200
41.03 	0.044037 	4905 	0.043798
41.05 	0.053485 	4936 	0.052634
41.07 	0.050101 	4930 	0.049864
41.09 	0.054060 	4939 	0.052518
41.11 	0.055117 	4935 	0.054404
41.13 	0.047609 	4936 	0.047372
41.15 	0.048978 	4941 	0.048029
41.17 	0.052088 	4934 	0.050663
41.19 	0.050913 	4930 	0.049962
41.21 	0.048815 	4937 	0.048103
41.23 	0.050213 	4939 	0.049620
41.25 	0.051085 	4933 	0.050728
41.27 	0.050294 	4931 	0.049344
41.29 	0.053977 	4928 	0.052907
41.31 	0.048449 	4933 	0.048212
41.33 	0.056715 	4937 	0.056003
41.35 	0.051640 	4938 	0.050435
41.37 	0.058692 	4924 	0.057859
41.39 	0.046219 	4933 	0.045982
41.41 	0.048518 	4926 	0.047805
41.43 	0.048691 	4929 	0.048097
41.45 	0.052096 	4914 	0.050785
41.47 	0.049127 	4926 	0.048176
41.49 	0.050082 	4892 	0.049124
41.51 	0.041700 	4940 	0.041345
41.53 	0.050364 	4944 	0.049298
41.55 	0.048430 	4935 	0.048311
41.57 	0.056264 	4941 	0.054841
41.59 	0.053517 	4933 	0.052092
41.61 	0.048455 	4953 	0.047628
41.63 	0.055083 	4938 	0.054134
41.65 	0.054169 	4929 	0.053456
41.67 	0.050607 	4940 	0.048908
41.69 	0.050131 	4947 	0.049165
41.71 	0.049858 	4934 	0.049146
41.73 	0.048217 	4936 	0.047624
41.75 	0.046054 	4929 	0.044984
41.77 	0.047966 	4941 	0.047492
41.79 	0.048139 	4944 	0.047665
41.81 	0.044976 	4936 	0.044501
41.83 	0.047484 	4928 	0.047127
41.85 	0.052845 	4939 	0.051540
41.87 	0.049443 	4935 	0.048731
41.89 	0.048247 	4933 	0.047534
41.91 	0.051256 	4936 	0.050544
41.93 	0.045823 	4932 	0.045348
41.95 	0.049483 	4931 	0.048602
41.97 	0.045584 	4914 	0.044988
41.99 	0.042610 	4905 	0.042251
42.01 	0.047552 	4942 	0.046722
42.03 	0.043329 	4939 	0.042973
42.05 	0.049273 	4952 	0.048682
42.07 	0.046992 	4937 	0.046280
42.09 	0.051132 	4948 	0.050421
42.11 	0.046309 	4945 	0.046191
42.13 	0.048332 	4945 	0.048213
42.15 	0.047995 	4938 	0.047283
42.17 	0.051037 	4918 	0.050322
42.19 	0.044010 	4908 	0.043413
42.21 	0.047949 	4901 	0.046993
42.23 	0.043336 	4892 	0.042358
42.25 	0.042954 	4889 	0.042714
42.27 	0.048420 	4874 	0.048300
42.29 	0.048530 	4863 	0.047566
42.31 	0.047168 	4855 	0.045841
42.33 	0.049441 	4834 	0.048452
42.35 	0.046507 	4838 	0.045659
42.37 	0.042236 	4830 	0.041630
42.39 	0.043714 	4804 	0.043226
42.41 	0.050375 	4804 	0.050009
42.43 	0.051336 	4792 	0.050847
42.45 	0.043342 	4776 	0.042360
42.47 	0.045750 	4765 	0.045381
42.49 	0.048478 	4765 	0.047598
42.51 	0.048282 	4743 	0.048035
42.53 	0.050338 	4728 	0.049719
42.55 	0.047791 	4708 	0.046920
42.57 	0.043763 	4730 	0.043392
42.59 	0.047790 	4729 	0.047171
42.61 	0.042693 	4708 	0.042569
42.63 	0.052877 	4709 	0.051882
42.65 	0.048666 	4685 	0.047291
42.67 	0.049103 	4684 	0.048728
42.69 	0.054343 	4674 	0.053591
42.71 	0.042891 	4663 	0.042640
42.73 	0.047414 	4640 	0.046656
42.75 	0.047217 	4617 	0.046582
42.77 	0.042609 	4600 	0.042354
42.79 	0.049323 	4582 	0.048812
42.81 	0.039456 	4562 	0.039200
42.83 	0.047619 	4536 	0.046973
42.85 	0.048807 	4528 	0.048031
42.87 	0.042009 	4499 	0.040968
42.89 	0.045089 	4480 	0.044697
42.91 	0.044659 	4456 	0.043870
42.93 	0.050832 	4446 	0.050305
42.95 	0.045063 	4416 	0.044798
42.97 	0.046580 	4401 	0.046181
42.99 	0.049031 	4385 	0.048096
43.01 	0.044923 	4363 	0.044386
43.03 	0.045465 	4333 	0.045059
43.05 	0.051561 	4325 	0.050883
43.07 	0.046788 	4296 	0.046242
43.09 	0.049965 	4283 	0.049281
43.11 	0.039483 	4255 	0.039070
43.13 	0.043899 	4237 	0.043323
43.15 	0.047076 	4206 	0.046379
43.17 	0.048576 	4179 	0.048296
43.19 	0.045541 	4194 	0.044983
43.21 	0.045781 	4172 	0.045079
43.23 	0.048387 	4154 	0.047964
43.25 	0.043047 	4135 	0.042622
43.27 	0.043118 	4105 	0.042690
43.29 	0.046341 	4100 	0.045627
43.31 	0.047316 	4079 	0.046167
43.33 	0.051839 	4051 	0.051261
43.35 	0.049107 	4032 	0.048381
43.37 	0.046824 	4015 	0.046824
43.39 	0.039730 	4002 	0.038998
43.41 	0.043303 	3972 	0.042713
43.43 	0.043434 	3960 	0.042547
43.45 	0.042186 	3935 	0.041441
43.47 	0.049732 	3921 	0.048214
43.49 	0.046703 	3897 	0.045801
43.51 	0.047201 	3877 	0.046446
43.53 	0.054103 	3863 	0.053496
43.55 	0.049258 	2964 	0.048862
43.57 	0.037980 	2238 	0.037719
43.59 	0.041810 	1746 	0.041139
43.61 	0.044412 	1351 	0.043978
43.63 	0.048951 	1001 	0.048366
43.65 	0.042213 	687 	0.041360
43.67 	0.053785 	502 	0.053785
43.69 	0.054496 	367 	0.054496
43.71 	0.050209 	239 	0.050209
43.73 	0.066667 	120 	0.061785
43.75 	0.000000 	16 	0.000000