File: Example_Data/25SC_s1_0038.003.dat
#F C:\frames\spec\25SC_s1_0038.003
#C title =s:38 frm:3 25SC_s1
#C wavelength =0.15406

#S 1  fr_average C:\frames\spec\25SC_s1_0038.003 C:\win32app\speccom\mask.axs chi 0 180 0 360 0.02
#C 2 theta =0.000000 to 180 deg
#C   q   =0.000000 to 81.568 nm^-1
#C  chi  =0.000000 to 360 deg
#C collumns:
#C  1 position (2theta or chi in degrees)
#C  2 average intensity (sum of all counts in the region divided with number of pixels)
#C  3 Number of pixels in region)
#C  4 error (sum of sqrt(intensity) for all pixels divided by number)
#N 4
#L TTh  Int  N_pix  Err
32.99 	0.049180 	61 	0.049180
33.01 	0.064147 	873 	0.064147
33.03 	0.065421 	1391 	0.062052
33.05 	0.051793 	1757 	0.051126
33.07 	0.061951 	2050 	0.059951
33.09 	0.062633 	2347 	0.061136
33.11 	0.057774 	2579 	0.056601
33.13 	0.058718 	2793 	0.058089
33.15 	0.056352 	2999 	0.055180
33.17 	0.061231 	3201 	0.060316
33.19 	0.047876 	3342 	0.047146
33.21 	0.068102 	3436 	0.066029
33.23 	0.060176 	3523 	0.059511
33.25 	0.057309 	3612 	0.056336
33.27 	0.057025 	3630 	0.056379
33.29 	0.054825 	3648 	0.053514
33.31 	0.055464 	3660 	0.054824
33.33 	0.064026 	3686 	0.063549
33.35 	0.054683 	3694 	0.053890
33.37 	0.063274 	3714 	0.062144
33.39 	0.051488 	3729 	0.050703
33.41 	0.066845 	3740 	0.065592
33.43 	0.060888 	3761 	0.059954
33.45 	0.061224 	3773 	0.060603
33.47 	0.060032 	3798 	0.059415
33.49 	0.060121 	3809 	0.059506
33.51 	0.051114 	3815 	0.050500
33.53 	0.056235 	3841 	0.055295
33.55 	0.061410 	3843 	0.060801
33.57 	0.065257 	3877 	0.064048
33.59 	0.060052 	3880 	0.059448
33.61 	0.059606 	3909 	0.058707
33.63 	0.062261 	3919 	0.061065
33.65 	0.067667 	3931 	0.066028
33.67 	0.059686 	3954 	0.059094
33.69 	0.061472 	3953 	0.060880
33.71 	0.055094 	3975 	0.053915
33.73 	0.062937 	4004 	0.061157
33.75 	0.062516 	3999 	0.061197
33.77 	0.062857 	4025 	0.061256
33.79 	0.057164 	4041 	0.056584
33.81 	0.054730 	4038 	0.054005
33.83 	0.057778 	4050 	0.057199
33.85 	0.058307 	4099 	0.057735
33.87 	0.057164 	4111 	0.056879
33.89 	0.058966 	4121 	0.057687
33.91 	0.059291 	4149 	0.058585
33.93 	0.060467 	4151 	0.059197
33.95 	0.059794 	4181 	0.058814
33.97 	0.053222 	4190 	0.052243
33.99 	0.059524 	4200 	0.059245
34.01 	0.063850 	4213 	0.062181
34.03 	0.053487 	4244 	0.052222
34.05 	0.055503 	4252 	0.054378
34.07 	0.055998 	4268 	0.055037
34.09 	0.059963 	4286 	0.059143
34.11 	0.056950 	4302 	0.056406
34.13 	0.058032 	4308 	0.057216
34.15 	0.060956 	4331 	0.059333
34.17 	0.058851 	4350 	0.058312
34.19 	0.059606 	4362 	0.058644
34.21 	0.055594 	4371 	0.054120
34.23 	0.065104 	4393 	0.063860
34.25 	0.060627 	4404 	0.059142
34.27 	0.055179 	4422 	0.054384
34.29 	0.059977 	4435 	0.058657
34.31 	0.061238 	4458 	0.060713
34.33 	0.058600 	4471 	0.058076
34.35 	0.056200 	4484 	0.055285
34.37 	0.054554 	4491 	0.053380
34.39 	0.058863 	4502 	0.058082
34.41 	0.055678 	4526 	0.054083
34.43 	0.068077 	4539 	0.066765
34.45 	0.060639 	4535 	0.059994
34.47 	0.055749 	4592 	0.054601
34.49 	0.059169 	4597 	0.058404
34.51 	0.057751 	4606 	0.056840
34.53 	0.052768 	4643 	0.051632
34.55 	0.057506 	4643 	0.055992
34.57 	0.059227 	4660 	0.058348
34.59 	0.053690 	4675 	0.052186
34.61 	0.058974 	4697 	0.058600
34.63 	0.058811 	4710 	0.058438
34.65 	0.057191 	4721 	0.056323
34.67 	0.059481 	4741 	0.058740
34.69 	0.059739 	4754 	0.058384
34.71 	0.056861 	4766 	0.055878
34.73 	0.052643 	4787 	0.052031
34.75 	0.056572 	4808 	0.055598
34.77 	0.065587 	4818 	0.064615
34.79 	0.058043 	4824 	0.057193
34.81 	0.057379 	4845 	0.056895
34.83 	0.060469 	4862 	0.059264
34.85 	0.054221 	4869 	0.053017
34.87 	0.058956 	4868 	0.058475
34.89 	0.056329 	4882 	0.054890
34.91 	0.060631 	4882 	0.059551
34.93 	0.056950 	4899 	0.055735
34.95 	0.063599 	4890 	0.062162
34.97 	0.057528 	4902 	0.056691
34.99 	0.055953 	4897 	0.054996
35.01 	0.056876 	4923 	0.055805
35.03 	0.057860 	4943 	0.056774
35.05 	0.057206 	4947 	0.056141
35.07 	0.056883 	4940 	0.055460
35.09 	0.060569 	4953 	0.059978
35.11 	0.056196 	4947 	0.054893
35.13 	0.061920 	4958 	0.060502
35.15 	0.059955 	4937 	0.058888
35.17 	0.053983 	4946 	0.053628
35.19 	0.059288 	4942 	0.058695
35.21 	0.058443 	4945 	0.057851
35.23 	0.058847 	4945 	0.057544
35.25 	0.061501 	4943 	0.060909
35.27 	0.062449 	4948 	0.060161
35.29 	0.057634 	4945 	0.056923
35.31 	0.059801 	4933 	0.058614
35.33 	0.055634 	4943 	0.054686
35.35 	0.057669 	4942 	0.056839
35.37 	0.057097 	4939 	0.056148
35.39 	0.060465 	4945 	0.059754
35.41 	0.057247 	4926 	0.056772
35.43 	0.054125 	4933 	0.053175
35.45 	0.057727 	4937 	0.056778
35.47 	0.058609 	4931 	0.057064
35.49 	0.053768 	4910 	0.052794
35.51 	0.057653 	4926 	0.056345
35.53 	0.055971 	4949 	0.055379
35.55 	0.055410 	4945 	0.054106
35.57 	0.058382 	4933 	0.057076
35.59 	0.055410 	4945 	0.054817
35.61 	0.060502 	4942 	0.059435
35.63 	0.058264 	4943 	0.057316
35.65 	0.058847 	4945 	0.058018
35.67 	0.057871 	4942 	0.056449
35.69 	0.063688 	4946 	0.062602
35.71 	0.060766 	4937 	0.060172
35.73 	0.060575 	4936 	0.059745
35.75 	0.057798 	4931 	0.056828
35.77 	0.048879 	4951 	0.048169
35.79 	0.053933 	4932 	0.052865
35.81 	0.053923 	4933 	0.052716
35.83 	0.059240 	4946 	0.058016
35.85 	0.053293 	4935 	0.052462
35.87 	0.056063 	4923 	0.054279
35.89 	0.056141 	4934 	0.054954
35.91 	0.055409 	4927 	0.054339
35.93 	0.055612 	4927 	0.054066
35.95 	0.052878 	4917 	0.052163
35.97 	0.054967 	4912 	0.054133
35.99 	0.055679 	4939 	0.054948
36.01 	0.054767 	4930 	0.053321
36.03 	0.054825 	4943 	0.054114
36.05 	0.056421 	4945 	0.055473
36.07 	0.057097 	4939 	0.055535
36.09 	0.052834 	4940 	0.052360
36.11 	0.053966 	4929 	0.052778
36.13 	0.052003 	4942 	0.051055
36.15 	0.049403 	4939 	0.048810
36.17 	0.056244 	4925 	0.055054
36.19 	0.057692 	4940 	0.056862
36.21 	0.053763 	4929 	0.053288
36.23 	0.054914 	4935 	0.054202
36.25 	0.055657 	4941 	0.054590
36.27 	0.055228 	4925 	0.054515
36.29 	0.055567 	4931 	0.054735
36.31 	0.058036 	4928 	0.056966
36.33 	0.051287 	4933 	0.050555
36.35 	0.059444 	4929 	0.058256
36.37 	0.055048 	4923 	0.054334
36.39 	0.057712 	4921 	0.056402
36.41 	0.052288 	4896 	0.051450
36.43 	0.049107 	4928 	0.048275
36.45 	0.057606 	4930 	0.055943
36.47 	0.054092 	4936 	0.052886
36.49 	0.053824 	4942 	0.053113
36.51 	0.054328 	4933 	0.053497
36.53 	0.056848 	4943 	0.056019
36.55 	0.059265 	4927 	0.057443
36.57 	0.054114 	4934 	0.052927
36.59 	0.053047 	4939 	0.052573
36.61 	0.053742 	4931 	0.053148
36.63 	0.059420 	4931 	0.058351
36.65 	0.053122 	4932 	0.052529
36.67 	0.057809 	4930 	0.057453
36.69 	0.050314 	4929 	0.049483
36.71 	0.051616 	4921 	0.051020
36.73 	0.054822 	4925 	0.053871
36.75 	0.053803 	4944 	0.053092
36.77 	0.059768 	4919 	0.058696
36.79 	0.051412 	4921 	0.050579
36.81 	0.049837 	4916 	0.049361
36.83 	0.055137 	4915 	0.054541
36.85 	0.051245 	4898 	0.050767
36.87 	0.053398 	4944 	0.053161
36.89 	0.061229 	4916 	0.060275
36.91 	0.058085 	4941 	0.057018
36.93 	0.049696 	4930 	0.049339
36.95 	0.057369 	4933 	0.057131
36.97 	0.053304 	4934 	0.052591
36.99 	0.056332 	4935 	0.055225
37.01 	0.055544 	4933 	0.054713
37.03 	0.056458 	4924 	0.055011
37.05 	0.044855 	4927 	0.044379
37.07 	0.055117 	4935 	0.054523
37.09 	0.050325 	4928 	0.049017
37.11 	0.054914 	4935 	0.054063
37.13 	0.049959 	4924 	0.048770
37.15 	0.052964 	4909 	0.052009
37.17 	0.051277 	4934 	0.050802
37.19 	0.054416 	4925 	0.053822
37.21 	0.049827 	4917 	0.049351
37.23 	0.053274 	4918 	0.052916
37.25 	0.052739 	4911 	0.052142
37.27 	0.049857 	4894 	0.049378
37.29 	0.054564 	4930 	0.053851
37.31 	0.050456 	4935 	0.049724
37.33 	0.058453 	4927 	0.057383
37.35 	0.048198 	4938 	0.047486
37.37 	0.054394 	4927 	0.053562
37.39 	0.049280 	4931 	0.048567
37.41 	0.053336 	4931 	0.052623
37.43 	0.048054 	4932 	0.047697
37.45 	0.055037 	4924 	0.054442
37.47 	0.051938 	4929 	0.050987
37.49 	0.052610 	4923 	0.051301
37.51 	0.053923 	4933 	0.053566
37.53 	0.048587 	4919 	0.047754
37.55 	0.054158 	4930 	0.052832
37.57 	0.056447 	4925 	0.055257
37.59 	0.052289 	4915 	0.051574
37.61 	0.053027 	4922 	0.051956
37.63 	0.045741 	4919 	0.045146
37.65 	0.050224 	4918 	0.049152
37.67 	0.045677 	4904 	0.045080
37.69 	0.050225 	4898 	0.049129
37.71 	0.050314 	4929 	0.049106
37.73 	0.052343 	4929 	0.051630
37.75 	0.050810 	4940 	0.049861
37.77 	0.048780 	4920 	0.048066
37.79 	0.052130 	4930 	0.051655
37.81 	0.049666 	4933 	0.049428
37.83 	0.053252 	4920 	0.052776
37.85 	0.053637 	4922 	0.053161
37.87 	0.052845 	4939 	0.052370
37.89 	0.048122 	4925 	0.047051
37.91 	0.053753 	4930 	0.053396
37.93 	0.049807 	4919 	0.048973
37.95 	0.048974 	4921 	0.048260
37.97 	0.054169 	4929 	0.053337
37.99 	0.050692 	4912 	0.050215
38.01 	0.055398 	4928 	0.054566
38.03 	0.051945 	4909 	0.051448
38.05 	0.053604 	4925 	0.052890
38.07 	0.049297 	4909 	0.048701
38.09 	0.057606 	4878 	0.056005
38.11 	0.055319 	4935 	0.054963
38.13 	0.049625 	4937 	0.049269
38.15 	0.055917 	4918 	0.055321
38.17 	0.050101 	4930 	0.049507
38.19 	0.054158 	4930 	0.053089
38.21 	0.053626 	4923 	0.052793
38.23 	0.059741 	4938 	0.057843
38.25 	0.049217 	4917 	0.048026
38.27 	0.049696 	4930 	0.049339
38.29 	0.053006 	4924 	0.052054
38.31 	0.049523 	4927 	0.048691
38.33 	0.056661 	4924 	0.056066
38.35 	0.058442 	4928 	0.057728
38.37 	0.060926 	4924 	0.059736
38.39 	0.064168 	4909 	0.063194
38.41 	0.054235 	4923 	0.053521
38.43 	0.067535 	4916 	0.066343
38.45 	0.059984 	4918 	0.058793
38.47 	0.056654 	4907 	0.055202
38.49 	0.059258 	4877 	0.058057
38.51 	0.057178 	4932 	0.055594
38.53 	0.062487 	4929 	0.061398
38.55 	0.060575 	4936 	0.060219
38.57 	0.060938 	4923 	0.059035
38.59 	0.057271 	4924 	0.056676
38.61 	0.055105 	4936 	0.054374
38.63 	0.054630 	4924 	0.053560
38.65 	0.057544 	4918 	0.056452
38.67 	0.056107 	4937 	0.055158
38.69 	0.055059 	4922 	0.054345
38.71 	0.059911 	4924 	0.059316
38.73 	0.052054 	4918 	0.051439
38.75 	0.049117 	4927 	0.048265
38.77 	0.057282 	4923 	0.055973
38.79 	0.047629 	4934 	0.047273
38.81 	0.046417 	4912 	0.046059
38.83 	0.049197 	4919 	0.048721
38.85 	0.049064 	4912 	0.048706
38.87 	0.051313 	4911 	0.050478
38.89 	0.044721 	4897 	0.044482
38.91 	0.052009 	4903 	0.051053
38.93 	0.046578 	4938 	0.045984
38.95 	0.047377 	4918 	0.046781
38.97 	0.052728 	4931 	0.051896
38.99 	0.045169 	4937 	0.044813
39.01 	0.051444 	4918 	0.051086
39.03 	0.050263 	4934 	0.050026
39.05 	0.051980 	4925 	0.051385
39.07 	0.050772 	4924 	0.050296
39.09 	0.043876 	4923 	0.043400
39.11 	0.044007 	4931 	0.043413
39.13 	0.050376 	4923 	0.049543
39.15 	0.052085 	4915 	0.051013
39.17 	0.050435 	4937 	0.049961
39.19 	0.047387 	4917 	0.046910
39.21 	0.044603 	4910 	0.043768
39.23 	0.051168 	4925 	0.051049
39.25 	0.048761 	4922 	0.048285
39.27 	0.045621 	4910 	0.045263
39.29 	0.048153 	4901 	0.047317
39.31 	0.047297 	4884 	0.046818
39.33 	0.047049 	4931 	0.046218
39.35 	0.045998 	4935 	0.045761
39.37 	0.045851 	4929 	0.045376
39.39 	0.046054 	4929 	0.045103
39.41 	0.049686 	4931 	0.049092
39.43 	0.042976 	4933 	0.042145
39.45 	0.041827 	4925 	0.041233
39.47 	0.045907 	4923 	0.045312
39.49 	0.045814 	4933 	0.045339
39.51 	0.047116 	4924 	0.046521
39.53 	0.043063 	4923 	0.042111
39.55 	0.045741 	4919 	0.045503
39.57 	0.050274 	4933 	0.049561
39.59 	0.048860 	4912 	0.048383
39.61 	0.048345 	4923 	0.047988
39.63 	0.044494 	4922 	0.044018
39.65 	0.049330 	4926 	0.048260
39.67 	0.050885 	4913 	0.050289
39.69 	0.045362 	4916 	0.045124
39.71 	0.044740 	4895 	0.044022
39.73 	0.045640 	4908 	0.045043
39.75 	0.049107 	4928 	0.048156
39.77 	0.050659 	4935 	0.050065
39.79 	0.047503 	4926 	0.047265
39.81 	0.045464 	4927 	0.045226
39.83 	0.044994 	4934 	0.044163
39.85 	0.046073 	4927 	0.045359
39.87 	0.047513 	4925 	0.047037
39.89 	0.049047 	4934 	0.048691
39.91 	0.048151 	4922 	0.047794
39.93 	0.049220 	4937 	0.048864
39.95 	0.049644 	4915 	0.048810
39.97 	0.045252 	4928 	0.044301
39.99 	0.044404 	4932 	0.044166
40.01 	0.047580 	4918 	0.046985
40.03 	0.047078 	4928 	0.046602
40.05 	0.045353 	4917 	0.044757
40.07 	0.048345 	4923 	0.047988
40.09 	0.049024 	4916 	0.048189
40.11 	0.051465 	4916 	0.050869
40.13 	0.046364 	4896 	0.045647
40.15 	0.046204 	4913 	0.045727
40.17 	0.051745 	4928 	0.051032
40.19 	0.043417 	4929 	0.042446
40.21 	0.042958 	4935 	0.042365
40.23 	0.045823 	4932 	0.045467
40.25 	0.045935 	4920 	0.044863
40.27 	0.045169 	4937 	0.044576
40.29 	0.044652 	4927 	0.043939
40.31 	0.041709 	4939 	0.041353
40.33 	0.038321 	4932 	0.038202
40.35 	0.044725 	4919 	0.043891
40.37 	0.045648 	4929 	0.045292
40.39 	0.040357 	4931 	0.039882
40.41 	0.040609 	4925 	0.040252
40.43 	0.049573 	4922 	0.048859
40.45 	0.038922 	4933 	0.038190
40.47 	0.041887 	4918 	0.041053
40.49 	0.049127 	4926 	0.048057
40.51 	0.046323 	4922 	0.045490
40.53 	0.049634 	4916 	0.048780
40.55 	0.040546 	4908 	0.039949
40.57 	0.050307 	4890 	0.049109
40.59 	0.046587 	4937 	0.045875
40.61 	0.049848 	4935 	0.049373
40.63 	0.044828 	4930 	0.044115
40.65 	0.045979 	4937 	0.045267
40.67 	0.048459 	4932 	0.047628
40.69 	0.040308 	4937 	0.039477
40.71 	0.046431 	4932 	0.046075
40.73 	0.045676 	4926 	0.044705
40.75 	0.042993 	4931 	0.042162
40.77 	0.044746 	4939 	0.043916
40.79 	0.048741 	4924 	0.047551
40.81 	0.044121 	4941 	0.042935
40.83 	0.050731 	4928 	0.049185
40.85 	0.046304 	4924 	0.045590
40.87 	0.049107 	4928 	0.048632
40.89 	0.044007 	4931 	0.043057
40.91 	0.044079 	4923 	0.043722
40.93 	0.043778 	4934 	0.043422
40.95 	0.044372 	4913 	0.044014
40.97 	0.046710 	4924 	0.045263
40.99 	0.041024 	4924 	0.040786
41.01 	0.039292 	4912 	0.038815
41.03 	0.043425 	4905 	0.042709
41.05 	0.044773 	4936 	0.044417
41.07 	0.043205 	4930 	0.042967
41.09 	0.044341 	4939 	0.043511
41.11 	0.048024 	4935 	0.047668
41.13 	0.045178 	4936 	0.044822
41.15 	0.043311 	4941 	0.042669
41.17 	0.046413 	4934 	0.045819
41.19 	0.043813 	4930 	0.042982
41.21 	0.039295 	4937 	0.039176
41.23 	0.041506 	4939 	0.041032
41.25 	0.045003 	4933 	0.044647
41.27 	0.043805 	4931 	0.043310
41.29 	0.046469 	4928 	0.045756
41.31 	0.044800 	4933 	0.043969
41.33 	0.046992 	4937 	0.046755
41.35 	0.042325 	4938 	0.041238
41.37 	0.043664 	4924 	0.043426
41.39 	0.047233 	4933 	0.046639
41.41 	0.041413 	4926 	0.040818
41.43 	0.039968 	4929 	0.039611
41.45 	0.045788 	4914 	0.045192
41.47 	0.039992 	4926 	0.039278
41.49 	0.042518 	4892 	0.041920
41.51 	0.041093 	4940 	0.040619
41.53 	0.045105 	4944 	0.044631
41.55 	0.044174 	4935 	0.043818
41.57 	0.045942 	4941 	0.045112
41.59 	0.041354 	4933 	0.040760
41.61 	0.043408 	4953 	0.042698
41.63 	0.045768 	4938 	0.045293
41.65 	0.045648 	4929 	0.045054
41.67 	0.040891 	4940 	0.040654
41.69 	0.035577 	4947 	0.035340
41.71 	0.044791 	4934 	0.044673
41.73 	0.040519 	4936 	0.040044
41.75 	0.044228 	4929 	0.043753
41.77 	0.040275 	4941 	0.040038
41.79 	0.041464 	4944 	0.040872
41.81 	0.045178 	4936 	0.044585
41.83 	0.041396 	4928 	0.040921
41.85 	0.040292 	4939 	0.040173
41.87 	0.043161 	4935 	0.042449
41.89 	0.039530 	4933 	0.038698
41.91 	0.039708 	4936 	0.039590
41.93 	0.040146 	4932 	0.039790
41.95 	0.037721 	4931 	0.037483
41.97 	0.040497 	4914 	0.039543
41.99 	0.039551 	4905 	0.039432
42.01 	0.041481 	4942 	0.040889
42.03 	0.039279 	4939 	0.038568
42.05 	0.043215 	4952 	0.042860
42.07 	0.040916 	4937 	0.040560
42.09 	0.042037 	4948 	0.041208
42.11 	0.042467 	4945 	0.041875
42.13 	0.040243 	4945 	0.039769
42.15 	0.036655 	4938 	0.036536
42.17 	0.043717 	4918 	0.043241
42.19 	0.041361 	4908 	0.041122
42.21 	0.041216 	4901 	0.040738
42.23 	0.045380 	4892 	0.044901
42.25 	0.042135 	4889 	0.041896
42.27 	0.034469 	4874 	0.033868
42.29 	0.041949 	4863 	0.041708
42.31 	0.038929 	4855 	0.038205
42.33 	0.039305 	4834 	0.038457
42.35 	0.039066 	4838 	0.038824
42.37 	0.040994 	4830 	0.040266
42.39 	0.038926 	4804 	0.038560
42.41 	0.036636 	4804 	0.035905
42.43 	0.045075 	4792 	0.044464
42.45 	0.045017 	4776 	0.044403
42.47 	0.035887 	4765 	0.035272
42.49 	0.043442 	4765 	0.042950
42.51 	0.040481 	4743 	0.039987
42.53 	0.046320 	4728 	0.045700
42.55 	0.040569 	4708 	0.040072
42.57 	0.041649 	4730 	0.040638
42.59 	0.040601 	4729 	0.039857
42.61 	0.038445 	4708 	0.038196
42.63 	0.044808 	4709 	0.044683
42.65 	0.036499 	4685 	0.036124
42.67 	0.043766 	4684 	0.042995
42.69 	0.046427 	4674 	0.045926
42.71 	0.036886 	4663 	0.036635
42.73 	0.043534 	4640 	0.042903
42.75 	0.038986 	4617 	0.038225
42.77 	0.038478 	4600 	0.038096
42.79 	0.040157 	4582 	0.039774
42.81 	0.040772 	4562 	0.040386
42.83 	0.038139 	4536 	0.037494
42.85 	0.043286 	4528 	0.043157
42.87 	0.044454 	4499 	0.043803
42.89 	0.037500 	4480 	0.037238
42.91 	0.038375 	4456 	0.037981
42.93 	0.043860 	4446 	0.043047
42.95 	0.039402 	4416 	0.038850
42.97 	0.040900 	4401 	0.040767
42.99 	0.035120 	4385 	0.035120
43.01 	0.041714 	4363 	0.041580
43.03 	0.043619 	4333 	0.043078
43.05 	0.036763 	4325 	0.036628
43.07 	0.043296 	4296 	0.042751
43.09 	0.040626 	4283 	0.040215
43.11 	0.038308 	4255 	0.037735
43.13 	0.039179 	4237 	0.038626
43.15 	0.041369 	4206 	0.040812
43.17 	0.044748 	4179 	0.043907
43.19 	0.045780 	4194 	0.044942
43.21 	0.041467 	4172 	0.040765
43.23 	0.043572 	4154 	0.043008
43.25 	0.041596 	4135 	0.040746
43.27 	0.044580 	4105 	0.044152
43.29 	0.043415 	4100 	0.042986
43.31 	0.032116 	4079 	0.031972
43.33 	0.047889 	4051 	0.047166
43.35 	0.047867 	4032 	0.046995
43.37 	0.037111 	4015 	0.036673
43.39 	0.040730 	4002 	0.040144
43.41 	0.039778 	3972 	0.039041
43.43 	0.042677 	3960 	0.041937
43.45 	0.034307 	3935 	0.033712
43.47 	0.033410 	3921 	0.032812
43.49 	0.040544 	3897 	0.040093
43.51 	0.040753 	3877 	0.039847
43.53 	0.040383 	3863 	0.039777
43.55 	0.034413 	2964 	0.034018
43.57 	0.038427 	2238 	0.037904
43.59 	0.045246 	1746 	0.044911
43.61 	0.041451 	1351 	0.041017
43.63 	0.035964 	1001 	0.035964
43.65 	0.032023 	687 	0.030318
43.67 	0.047809 	502 	0.047809
43.69 	0.054496 	367 	0.052900
43.71 	0.037657 	239 	0.037657
43.73 	0.050000 	120 	0.050000
43.75 	0.062500 	16 	0.062500