File: Example_Data/25SC_s1_0025.004.dat
#F C:\frames\spec\25SC_s1_0025.004
#C title =s:25 frm:4 25SC_s1
#C wavelength =0.15406

#S 1  fr_average C:\frames\spec\25SC_s1_0025.004 C:\win32app\speccom\mask.axs chi 0 180 0 360 0.02
#C 2 theta =0.000000 to 180 deg
#C   q   =0.000000 to 81.568 nm^-1
#C  chi  =0.000000 to 360 deg
#C collumns:
#C  1 position (2theta or chi in degrees)
#C  2 average intensity (sum of all counts in the region divided with number of pixels)
#C  3 Number of pixels in region)
#C  4 error (sum of sqrt(intensity) for all pixels divided by number)
#N 4
#L TTh  Int  N_pix  Err
32.99 	0.032787 	61 	0.032787
33.01 	0.052692 	873 	0.052021
33.03 	0.070453 	1391 	0.070032
33.05 	0.060330 	1757 	0.058997
33.07 	0.053171 	2050 	0.052885
33.09 	0.057520 	2347 	0.056771
33.11 	0.056223 	2579 	0.055769
33.13 	0.066237 	2793 	0.063930
33.15 	0.061354 	2999 	0.060963
33.17 	0.060918 	3201 	0.059790
33.19 	0.059246 	3342 	0.058720
33.21 	0.058498 	3436 	0.056964
33.23 	0.059892 	3523 	0.058562
33.25 	0.060631 	3612 	0.059334
33.27 	0.053994 	3630 	0.052542
33.29 	0.056469 	3648 	0.056122
33.31 	0.054098 	3660 	0.052978
33.33 	0.055073 	3686 	0.054438
33.35 	0.047645 	3694 	0.047169
33.37 	0.060043 	3714 	0.058781
33.39 	0.054170 	3729 	0.053385
33.41 	0.068717 	3740 	0.067777
33.43 	0.059293 	3761 	0.057579
33.45 	0.060694 	3773 	0.059297
33.47 	0.059242 	3798 	0.058316
33.49 	0.053820 	3809 	0.053359
33.51 	0.058191 	3815 	0.057731
33.53 	0.056756 	3841 	0.056146
33.55 	0.054124 	3843 	0.053057
33.57 	0.056745 	3877 	0.056141
33.59 	0.057216 	3880 	0.056462
33.61 	0.054490 	3909 	0.053141
33.63 	0.060730 	3919 	0.059982
33.65 	0.062071 	3931 	0.060283
33.67 	0.064239 	3954 	0.063202
33.69 	0.062484 	3953 	0.061151
33.71 	0.057862 	3975 	0.056216
33.73 	0.060939 	4004 	0.059769
33.75 	0.064516 	3999 	0.062758
33.77 	0.050683 	4025 	0.049810
33.79 	0.060134 	4041 	0.058974
33.81 	0.061169 	4038 	0.060008
33.83 	0.058519 	4050 	0.057940
33.85 	0.052940 	4099 	0.052368
33.87 	0.064704 	4111 	0.063565
33.89 	0.058481 	4121 	0.057344
33.91 	0.060738 	4149 	0.059326
33.93 	0.073717 	4151 	0.072024
33.95 	0.063143 	4181 	0.061719
33.97 	0.061337 	4190 	0.060055
33.99 	0.058571 	4200 	0.057874
34.01 	0.063850 	4213 	0.062321
34.03 	0.057022 	4244 	0.055917
34.05 	0.055738 	4252 	0.054636
34.07 	0.061153 	4268 	0.059506
34.09 	0.062063 	4286 	0.060696
34.11 	0.056950 	4302 	0.055861
34.13 	0.060353 	4308 	0.058585
34.15 	0.065112 	4331 	0.064165
34.17 	0.063218 	4350 	0.061737
34.19 	0.059147 	4362 	0.058073
34.21 	0.063143 	4371 	0.062071
34.23 	0.052811 	4393 	0.052145
34.25 	0.055631 	4404 	0.054700
34.27 	0.063772 	4422 	0.062712
34.29 	0.059301 	4435 	0.058112
34.31 	0.055406 	4458 	0.054223
34.33 	0.064862 	4471 	0.063421
34.35 	0.059322 	4484 	0.058016
34.37 	0.054776 	4491 	0.054254
34.39 	0.054420 	4502 	0.053640
34.41 	0.054132 	4526 	0.053355
34.43 	0.060586 	4539 	0.059812
34.45 	0.065491 	4535 	0.064070
34.47 	0.053789 	4592 	0.053024
34.49 	0.058516 	4597 	0.058389
34.51 	0.056665 	4606 	0.055521
34.53 	0.057506 	4643 	0.056623
34.55 	0.057075 	4643 	0.056697
34.57 	0.059013 	4660 	0.058384
34.59 	0.062032 	4675 	0.061030
34.61 	0.058122 	4697 	0.057374
34.63 	0.065180 	4710 	0.064434
34.65 	0.056556 	4721 	0.056059
34.67 	0.060536 	4741 	0.059403
34.69 	0.058267 	4754 	0.057527
34.71 	0.059799 	4766 	0.058815
34.73 	0.053687 	4787 	0.053198
34.75 	0.057820 	4808 	0.056724
34.77 	0.053342 	4818 	0.052977
34.79 	0.059494 	4824 	0.057896
34.81 	0.054489 	4845 	0.053643
34.83 	0.056355 	4862 	0.055151
34.85 	0.054221 	4869 	0.053499
34.87 	0.057108 	4868 	0.055744
34.89 	0.057558 	4882 	0.056958
34.91 	0.060426 	4882 	0.059586
34.93 	0.066544 	4899 	0.065946
34.95 	0.061554 	4890 	0.060596
34.97 	0.053652 	4902 	0.052815
34.99 	0.058812 	4897 	0.057974
35.01 	0.054438 	4923 	0.053605
35.03 	0.060692 	4943 	0.059250
35.05 	0.064484 	4947 	0.063142
35.07 	0.062753 	4940 	0.061093
35.09 	0.067030 	4953 	0.065966
35.11 	0.057813 	4947 	0.056747
35.13 	0.062929 	4958 	0.062102
35.15 	0.054892 	4937 	0.054061
35.17 	0.054994 	4946 	0.054283
35.19 	0.054634 	4942 	0.054160
35.21 	0.058038 	4945 	0.056972
35.23 	0.054803 	4945 	0.053855
35.25 	0.058062 	4943 	0.056521
35.27 	0.057195 	4948 	0.056366
35.29 	0.053792 	4945 	0.052962
35.31 	0.058990 	4933 	0.057427
35.33 	0.057455 	4943 	0.056270
35.35 	0.062525 	4942 	0.061696
35.37 	0.062361 	4939 	0.060206
35.39 	0.053994 	4945 	0.053283
35.41 	0.056638 	4926 	0.055449
35.43 	0.060207 	4933 	0.059257
35.45 	0.058943 	4937 	0.057282
35.47 	0.058203 	4931 	0.057372
35.49 	0.061507 	4910 	0.060433
35.51 	0.058059 	4926 	0.056870
35.53 	0.051526 	4949 	0.051170
35.55 	0.061881 	4945 	0.060341
35.57 	0.058382 	4933 	0.057076
35.59 	0.060263 	4945 	0.059789
35.61 	0.057264 	4942 	0.056435
35.63 	0.054016 	4943 	0.052475
35.65 	0.059656 	4945 	0.058590
35.67 	0.058074 	4942 	0.056869
35.69 	0.057016 	4946 	0.056068
35.71 	0.063196 	4937 	0.062128
35.73 	0.058955 	4936 	0.058005
35.75 	0.061854 	4931 	0.060903
35.77 	0.058170 	4951 	0.056869
35.79 	0.059813 	4932 	0.058606
35.81 	0.056152 	4933 	0.055559
35.83 	0.061262 	4946 	0.059939
35.85 	0.064438 	4935 	0.063251
35.87 	0.056673 	4923 	0.055939
35.89 	0.055938 	4934 	0.055345
35.91 	0.061498 	4927 	0.060071
35.93 	0.059874 	4927 	0.059280
35.95 	0.053691 	4917 	0.052500
35.97 	0.054357 	4912 	0.054237
35.99 	0.064386 	4939 	0.063318
36.01 	0.059026 	4930 	0.057719
36.03 	0.060490 	4943 	0.059404
36.05 	0.059050 	4945 	0.057983
36.07 	0.060539 	4939 	0.059353
36.09 	0.055061 	4940 	0.053875
36.11 	0.055184 	4929 	0.054589
36.13 	0.060502 	4942 	0.059435
36.15 	0.054869 	4939 	0.053921
36.17 	0.051980 	4925 	0.051246
36.19 	0.056275 	4940 	0.056038
36.21 	0.060053 	4929 	0.058270
36.23 	0.053293 	4935 	0.052343
36.25 	0.059705 	4941 	0.058519
36.27 	0.054619 	4925 	0.053906
36.29 	0.056378 	4931 	0.055903
36.31 	0.058239 	4928 	0.056456
36.33 	0.050476 	4933 	0.049764
36.35 	0.060459 	4929 	0.059508
36.37 	0.059517 	4923 	0.058327
36.39 	0.062386 	4921 	0.061176
36.41 	0.064747 	4896 	0.063909
36.43 	0.059659 	4928 	0.058470
36.45 	0.056187 	4930 	0.054998
36.47 	0.052877 	4936 	0.051690
36.49 	0.057062 	4942 	0.056351
36.51 	0.054733 	4933 	0.054377
36.53 	0.061299 	4943 	0.060114
36.55 	0.053988 	4927 	0.053037
36.57 	0.049858 	4934 	0.049265
36.59 	0.058311 	4939 	0.057718
36.61 	0.056986 	4931 	0.056274
36.63 	0.054756 	4931 	0.053686
36.65 	0.062044 	4932 	0.060975
36.67 	0.055172 	4930 	0.054459
36.69 	0.051938 	4929 	0.051224
36.71 	0.054460 	4921 	0.053627
36.73 	0.059898 	4925 	0.057976
36.75 	0.065129 	4944 	0.063471
36.77 	0.059362 	4919 	0.058389
36.79 	0.055070 	4921 	0.054594
36.81 	0.054923 	4916 	0.054208
36.83 	0.054323 	4915 	0.053708
36.85 	0.060637 	4898 	0.059561
36.87 	0.055421 	4944 	0.054710
36.89 	0.055126 	4916 	0.054411
36.91 	0.057478 	4941 	0.056411
36.93 	0.054970 	4930 	0.054494
36.95 	0.054328 	4933 	0.053616
36.97 	0.051682 	4934 	0.050851
36.99 	0.056738 	4935 	0.056025
37.01 	0.052909 	4933 	0.052196
37.03 	0.053412 	4924 	0.052579
37.05 	0.050944 	4927 	0.049398
37.07 	0.049037 	4935 	0.048563
37.09 	0.055398 	4928 	0.054447
37.11 	0.054711 	4935 	0.053880
37.13 	0.051381 	4924 	0.050667
37.15 	0.056631 	4909 	0.055557
37.17 	0.055533 	4934 	0.054702
37.19 	0.056853 	4925 	0.055663
37.21 	0.059182 	4917 	0.057872
37.23 	0.051240 	4918 	0.051002
37.25 	0.058644 	4911 	0.056835
37.27 	0.051900 	4894 	0.051781
37.29 	0.051318 	4930 	0.050487
37.31 	0.055927 	4935 	0.055215
37.33 	0.057845 	4927 	0.057012
37.35 	0.057311 	4938 	0.056836
37.37 	0.053988 	4927 	0.053275
37.39 	0.052119 	4931 	0.051288
37.41 	0.055972 	4931 	0.054547
37.43 	0.050081 	4932 	0.049368
37.45 	0.057271 	4924 	0.055843
37.47 	0.057415 	4929 	0.056227
37.49 	0.049360 	4923 	0.048646
37.51 	0.051490 	4933 	0.051134
37.53 	0.053060 	4919 	0.052107
37.55 	0.056795 	4930 	0.055369
37.57 	0.051980 	4925 	0.051742
37.59 	0.060224 	4915 	0.059151
37.61 	0.056684 	4922 	0.055356
37.63 	0.056109 	4919 	0.055633
37.65 	0.049207 	4918 	0.048850
37.67 	0.052814 	4904 	0.052097
37.69 	0.058187 	4898 	0.057709
37.71 	0.053561 	4929 	0.052353
37.73 	0.050314 	4929 	0.049483
37.75 	0.052834 	4940 	0.052360
37.77 	0.055894 	4920 	0.055299
37.79 	0.052738 	4930 	0.052025
37.81 	0.053517 	4933 	0.052686
37.83 	0.053659 	4920 	0.053182
37.85 	0.057091 	4922 	0.055662
37.87 	0.053655 	4939 	0.052706
37.89 	0.052589 	4925 	0.051637
37.91 	0.054158 	4930 	0.053683
37.93 	0.056516 	4919 	0.055920
37.95 	0.063808 	4921 	0.063094
37.97 	0.058633 	4929 	0.057920
37.99 	0.058021 	4912 	0.057067
38.01 	0.050528 	4928 	0.049933
38.03 	0.056020 	4909 	0.055184
38.05 	0.055025 	4925 	0.054669
38.07 	0.051945 	4909 	0.051587
38.09 	0.053916 	4878 	0.053435
38.11 	0.055319 	4935 	0.054370
38.13 	0.061373 	4937 	0.059831
38.15 	0.055917 	4918 	0.055083
38.17 	0.056592 	4930 	0.054929
38.19 	0.057606 	4930 	0.056418
38.21 	0.065001 	4923 	0.063692
38.23 	0.060348 	4938 	0.059637
38.25 	0.060403 	4917 	0.059192
38.27 	0.067748 	4930 	0.066660
38.29 	0.066003 	4924 	0.064576
38.31 	0.062919 	4927 	0.061135
38.33 	0.056052 	4924 	0.055100
38.35 	0.062906 	4928 	0.062074
38.37 	0.061535 	4924 	0.060941
38.39 	0.067223 	4909 	0.065792
38.41 	0.059110 	4923 	0.057920
38.43 	0.069569 	4916 	0.067881
38.45 	0.070557 	4918 	0.069962
38.47 	0.063379 	4907 	0.062424
38.49 	0.062128 	4877 	0.061648
38.51 	0.064477 	4932 	0.063408
38.53 	0.067356 	4929 	0.066168
38.55 	0.056321 	4936 	0.055134
38.57 	0.056876 	4923 	0.055190
38.59 	0.056661 	4924 	0.055472
38.61 	0.063817 	4936 	0.062867
38.63 	0.057271 	4924 	0.055328
38.65 	0.054494 	4918 	0.053779
38.67 	0.055702 	4937 	0.055227
38.69 	0.064405 	4922 	0.063334
38.71 	0.053209 	4924 	0.052138
38.73 	0.058764 	4918 	0.057930
38.75 	0.056627 	4927 	0.055794
38.77 	0.057485 	4923 	0.056414
38.79 	0.054520 	4934 	0.053570
38.81 	0.056596 	4912 	0.055761
38.83 	0.052043 	4919 	0.050852
38.85 	0.053746 	4912 	0.053030
38.87 	0.054164 	4911 	0.053091
38.89 	0.057586 	4897 	0.056370
38.91 	0.055476 	4903 	0.054759
38.93 	0.054273 	4938 	0.053798
38.95 	0.050224 	4918 	0.048913
38.97 	0.054147 	4931 	0.053078
38.99 	0.055904 	4937 	0.055054
39.01 	0.056934 	4918 	0.055981
39.03 	0.055736 	4934 	0.055142
39.05 	0.050964 	4925 	0.050132
39.07 	0.052193 	4924 	0.051480
39.09 	0.055454 	4923 	0.054859
39.11 	0.054958 	4931 	0.054127
39.13 	0.055860 	4923 	0.054789
39.15 	0.059613 	4915 	0.059018
39.17 	0.054081 	4937 	0.053370
39.19 	0.053488 	4917 	0.052416
39.21 	0.053971 	4910 	0.052778
39.23 	0.053604 	4925 	0.052771
39.25 	0.046729 	4922 	0.046253
39.27 	0.052342 	4910 	0.051626
39.29 	0.048562 	4901 	0.047964
39.31 	0.061835 	4884 	0.060155
39.33 	0.049483 	4931 	0.048532
39.35 	0.052077 	4935 	0.051721
39.37 	0.058024 	4929 	0.056954
39.39 	0.056198 	4929 	0.055604
39.41 	0.051511 	4931 	0.050442
39.43 	0.050071 	4933 	0.049240
39.45 	0.051371 	4925 	0.050756
39.47 	0.052204 	4923 	0.051728
39.49 	0.053720 	4933 	0.052770
39.51 	0.055646 	4924 	0.054456
39.53 	0.054032 	4923 	0.053199
39.55 	0.055702 	4919 	0.054750
39.57 	0.057571 	4933 	0.056978
39.59 	0.051710 	4912 	0.051233
39.61 	0.058704 	4923 	0.057138
39.63 	0.056887 	4922 	0.055578
39.65 	0.055014 	4926 	0.053825
39.67 	0.054142 	4913 	0.053069
39.69 	0.051261 	4916 	0.050407
39.71 	0.053933 	4895 	0.053334
39.73 	0.060310 	4908 	0.059474
39.75 	0.053977 	4928 	0.052789
39.77 	0.044580 	4935 	0.044105
39.79 	0.049330 	4926 	0.048617
39.81 	0.052365 	4927 	0.051413
39.83 	0.053304 	4934 	0.052473
39.85 	0.054191 	4927 	0.053478
39.87 	0.058477 	4925 	0.057288
39.89 	0.050466 	4934 	0.049873
39.91 	0.052215 	4922 	0.051262
39.93 	0.054892 	4937 	0.054180
39.95 	0.056562 	4915 	0.055966
39.97 	0.052354 	4928 	0.051878
39.99 	0.049067 	4932 	0.047998
40.01 	0.056934 	4918 	0.055623
40.03 	0.053571 	4928 	0.052502
40.05 	0.056132 	4917 	0.055298
40.07 	0.053423 	4923 	0.052828
40.09 	0.050041 	4916 	0.049564
40.11 	0.051871 	4916 	0.050561
40.13 	0.056985 	4896 	0.055908
40.15 	0.052921 	4913 	0.051828
40.17 	0.056412 	4928 	0.055224
40.19 	0.054778 	4929 	0.053827
40.21 	0.058967 	4935 	0.057305
40.23 	0.051298 	4932 	0.050823
40.25 	0.051626 	4920 	0.051031
40.27 	0.050435 	4937 	0.049961
40.29 	0.051959 	4927 	0.051007
40.31 	0.049200 	4939 	0.048370
40.33 	0.054542 	4932 	0.053810
40.35 	0.054483 	4919 	0.053868
40.37 	0.050923 	4929 	0.049854
40.39 	0.056784 	4931 	0.055457
40.41 	0.055635 	4925 	0.054802
40.43 	0.054043 	4922 	0.053567
40.45 	0.056355 	4933 	0.055524
40.47 	0.049207 	4918 	0.048016
40.49 	0.052578 	4926 	0.051627
40.51 	0.053027 	4922 	0.052432
40.53 	0.045159 	4916 	0.044563
40.55 	0.048492 	4908 	0.047776
40.57 	0.051943 	4890 	0.051224
40.59 	0.056917 	4937 	0.056205
40.61 	0.052685 	4935 	0.051973
40.63 	0.047465 	4930 	0.046514
40.65 	0.048613 	4937 	0.048494
40.67 	0.052717 	4932 	0.051866
40.69 	0.048207 	4937 	0.047614
40.71 	0.046026 	4932 	0.045551
40.73 	0.056029 	4926 	0.054959
40.75 	0.049888 	4931 	0.049176
40.77 	0.052440 	4939 	0.051610
40.79 	0.050772 	4924 	0.049463
40.81 	0.055050 	4941 	0.053983
40.83 	0.044846 	4928 	0.044608
40.85 	0.046507 	4924 	0.046031
40.87 	0.053571 	4928 	0.052363
40.89 	0.051308 	4931 	0.050714
40.91 	0.047735 	4923 	0.046545
40.93 	0.053506 	4934 	0.052913
40.95 	0.051700 	4913 	0.050746
40.97 	0.054630 	4924 	0.054036
40.99 	0.053412 	4924 	0.052341
41.01 	0.045399 	4912 	0.044683
41.03 	0.047299 	4905 	0.046702
41.05 	0.052877 	4936 	0.051927
41.07 	0.047059 	4930 	0.046584
41.09 	0.049808 	4939 	0.049215
41.11 	0.046403 	4935 	0.045197
41.13 	0.048217 	4936 	0.047624
41.15 	0.048978 	4941 	0.048267
41.17 	0.049250 	4934 	0.048775
41.19 	0.048479 	4930 	0.047766
41.21 	0.050638 	4937 	0.050045
41.23 	0.047378 	4939 	0.047022
41.25 	0.058382 	4933 	0.057076
41.27 	0.051105 	4931 	0.050392
41.29 	0.047890 	4928 	0.047414
41.31 	0.055950 	4933 	0.054743
41.33 	0.050233 	4937 	0.049402
41.35 	0.050223 	4938 	0.049630
41.37 	0.047319 	4924 	0.046724
41.39 	0.051490 	4933 	0.050777
41.41 	0.052578 	4926 	0.051627
41.43 	0.050720 	4929 	0.050126
41.45 	0.055352 	4914 	0.054279
41.47 	0.053593 	4926 	0.052404
41.49 	0.051717 	4892 	0.051118
41.51 	0.051417 	4940 	0.051298
41.53 	0.051780 	4944 	0.051424
41.55 	0.043972 	4935 	0.043616
41.57 	0.050395 	4941 	0.049802
41.59 	0.049057 	4933 	0.048701
41.61 	0.047042 	4953 	0.046569
41.63 	0.053260 	4938 	0.052311
41.65 	0.053763 	4929 	0.052813
41.67 	0.051619 	4940 	0.051027
41.69 	0.044674 	4947 	0.044437
41.71 	0.050466 	4934 	0.049991
41.73 	0.048622 	4936 	0.048148
41.75 	0.049909 	4929 	0.049077
41.77 	0.043109 	4941 	0.042279
41.79 	0.047128 	4944 	0.046180
41.81 	0.046799 	4936 	0.046087
41.83 	0.043222 	4928 	0.042390
41.85 	0.047378 	4939 	0.046429
41.87 	0.047619 	4935 	0.047382
41.89 	0.050274 	4933 	0.049561
41.91 	0.045786 	4936 	0.045311
41.93 	0.051298 	4932 	0.050229
41.95 	0.048672 	4931 	0.048196
41.97 	0.049451 	4914 	0.049093
41.99 	0.050561 	4905 	0.049725
42.01 	0.047349 	4942 	0.046520
42.03 	0.043329 	4939 	0.042854
42.05 	0.048061 	4952 	0.047825
42.07 	0.047195 	4937 	0.046720
42.09 	0.044058 	4948 	0.043466
42.11 	0.049343 	4945 	0.048632
42.13 	0.049141 	4945 	0.048311
42.15 	0.048198 	4938 	0.047723
42.17 	0.043514 	4918 	0.042561
42.19 	0.047881 	4908 	0.047404
42.21 	0.046521 	4901 	0.045804
42.23 	0.044767 	4892 	0.044527
42.25 	0.049090 	4889 	0.048611
42.27 	0.046163 	4874 	0.045923
42.29 	0.049352 	4863 	0.048630
42.31 	0.046756 	4855 	0.046394
42.33 	0.048200 	4834 	0.047716
42.35 	0.044853 	4838 	0.044369
42.37 	0.043271 	4830 	0.042786
42.39 	0.043922 	4804 	0.043556
42.41 	0.045171 	4804 	0.044805
42.43 	0.045492 	4792 	0.044637
42.45 	0.048367 	4776 	0.047754
42.47 	0.045540 	4765 	0.045417
42.49 	0.042392 	4765 	0.041655
42.51 	0.049336 	4743 	0.048471
42.53 	0.046108 	4728 	0.045613
42.55 	0.046729 	4708 	0.045609
42.57 	0.043340 	4730 	0.042597
42.59 	0.053288 	4729 	0.052545
42.61 	0.044393 	4708 	0.043770
42.63 	0.045870 	4709 	0.045372
42.65 	0.044610 	4685 	0.044235
42.67 	0.049103 	4684 	0.048353
42.69 	0.052632 	4674 	0.051504
42.71 	0.047609 	4663 	0.046729
42.73 	0.044612 	4640 	0.043855
42.75 	0.044401 	4617 	0.043513
42.77 	0.048043 	4600 	0.047534
42.79 	0.047359 	4582 	0.046720
42.81 	0.047128 	4562 	0.046358
42.83 	0.046296 	4536 	0.045521
42.85 	0.050574 	4528 	0.050315
42.87 	0.044010 	4499 	0.043359
42.89 	0.044866 	4480 	0.044212
42.91 	0.047352 	4456 	0.047089
42.93 	0.042735 	4446 	0.042472
42.95 	0.038949 	4416 	0.038551
42.97 	0.045671 	4401 	0.045139
42.99 	0.046066 	4385 	0.045398
43.01 	0.049966 	4363 	0.049026
43.03 	0.047081 	4333 	0.046269
43.05 	0.046243 	4325 	0.045836
43.07 	0.047486 	4296 	0.046668
43.09 	0.047163 	4283 	0.046890
43.11 	0.049824 	4255 	0.049411
43.13 	0.047203 	4237 	0.046512
43.15 	0.045887 	4206 	0.045469
43.17 	0.046662 	4179 	0.045961
43.19 	0.041965 	4194 	0.041243
43.21 	0.045542 	4172 	0.044278
43.23 	0.047906 	4154 	0.047483
43.25 	0.051511 	4135 	0.050945
43.27 	0.047259 	4105 	0.046118
43.29 	0.048537 	4100 	0.047679
43.31 	0.040451 	4079 	0.040307
43.33 	0.044680 	4051 	0.044102
43.35 	0.048859 	4032 	0.047987
43.37 	0.045330 	4015 	0.044892
43.39 	0.043228 	4002 	0.042497
43.41 	0.046828 	3972 	0.045943
43.43 	0.043182 	3960 	0.042294
43.45 	0.041931 	3935 	0.041485
43.47 	0.042081 	3921 	0.041633
43.49 	0.047472 	3897 	0.046871
43.51 	0.046944 	3877 	0.046490
43.53 	0.041419 	3863 	0.040964
43.55 	0.044534 	2964 	0.044534
43.57 	0.041108 	2238 	0.040846
43.59 	0.050401 	1746 	0.050065
43.61 	0.053294 	1351 	0.052427
43.63 	0.039960 	1001 	0.039375
43.65 	0.056769 	687 	0.055916
43.67 	0.033865 	502 	0.033865
43.69 	0.073569 	367 	0.073569
43.71 	0.033473 	239 	0.033473
43.73 	0.050000 	120 	0.050000
43.75 	0.062500 	16 	0.062500