File: Example_Data/25SC_s1_0029.000.dat
#F C:\frames\spec\25SC_s1_0029.000
#C title =s:29 frm:0 25SC_s1
#C wavelength =0.15406

#S 1  fr_average C:\frames\spec\25SC_s1_0029.000 C:\win32app\speccom\mask.axs chi 0 180 0 360 0.02
#C 2 theta =0.000000 to 180 deg
#C   q   =0.000000 to 81.568 nm^-1
#C  chi  =0.000000 to 360 deg
#C collumns:
#C  1 position (2theta or chi in degrees)
#C  2 average intensity (sum of all counts in the region divided with number of pixels)
#C  3 Number of pixels in region)
#C  4 error (sum of sqrt(intensity) for all pixels divided by number)
#N 4
#L TTh  Int  N_pix  Err
32.99 	0.016393 	61 	0.016393
33.01 	0.041237 	873 	0.041237
33.03 	0.062545 	1391 	0.061703
33.05 	0.069437 	1757 	0.068436
33.07 	0.073659 	2050 	0.072516
33.09 	0.062207 	2347 	0.061209
33.11 	0.063591 	2579 	0.063136
33.13 	0.066237 	2793 	0.064734
33.15 	0.067022 	2999 	0.066046
33.17 	0.063418 	3201 	0.061588
33.19 	0.058049 	3342 	0.056997
33.21 	0.060244 	3436 	0.059392
33.23 	0.062731 	3523 	0.062066
33.25 	0.059801 	3612 	0.059314
33.27 	0.056198 	3630 	0.055553
33.29 	0.061678 	3648 	0.060554
33.31 	0.069399 	3660 	0.067158
33.33 	0.068095 	3686 	0.066506
33.35 	0.065782 	3694 	0.064514
33.37 	0.067044 	3714 	0.065756
33.39 	0.061947 	3729 	0.061319
33.41 	0.062567 	3740 	0.061470
33.43 	0.057432 	3761 	0.056341
33.45 	0.055129 	3773 	0.054663
33.47 	0.057399 	3798 	0.056473
33.49 	0.066684 	3809 	0.065454
33.51 	0.055308 	3815 	0.054694
33.53 	0.056235 	3841 	0.055473
33.55 	0.069997 	3843 	0.069235
33.57 	0.058808 	3877 	0.058355
33.59 	0.062371 	3880 	0.061465
33.61 	0.059350 	3909 	0.058451
33.63 	0.056647 	3919 	0.056049
33.65 	0.069448 	3931 	0.067486
33.67 	0.061710 	3954 	0.059932
33.69 	0.060207 	3953 	0.059022
33.71 	0.062893 	3975 	0.061395
33.73 	0.062438 	4004 	0.061413
33.75 	0.061015 	3999 	0.060283
33.77 	0.062112 	4025 	0.060632
33.79 	0.056174 	4041 	0.054725
33.81 	0.060178 	4038 	0.059163
33.83 	0.062716 	4050 	0.061993
33.85 	0.065626 	4099 	0.064625
33.87 	0.064218 	4111 	0.062912
33.89 	0.057268 	4121 	0.055988
33.91 	0.057363 	4149 	0.056940
33.93 	0.055890 	4151 	0.054479
33.95 	0.058120 	4181 	0.057560
33.97 	0.063484 	4190 	0.062785
33.99 	0.063571 	4200 	0.062177
34.01 	0.062901 	4213 	0.061510
34.03 	0.058671 	4244 	0.057843
34.05 	0.056679 	4252 	0.055990
34.07 	0.056935 	4268 	0.056249
34.09 	0.063462 	4286 	0.062506
34.11 	0.053928 	4302 	0.052975
34.13 	0.053853 	4308 	0.052630
34.15 	0.053798 	4331 	0.052987
34.17 	0.059770 	4350 	0.058558
34.19 	0.054333 	4362 	0.053371
34.21 	0.054450 	4371 	0.053110
34.23 	0.058502 	4393 	0.056747
34.25 	0.058810 	4404 	0.057480
34.27 	0.059475 	4422 	0.058813
34.29 	0.057723 	4435 	0.057062
34.31 	0.056752 	4458 	0.056226
34.33 	0.053903 	4471 	0.053510
34.35 	0.055977 	4484 	0.055585
34.37 	0.053440 	4491 	0.052918
34.39 	0.052199 	4502 	0.050898
34.41 	0.057446 	4526 	0.056799
34.43 	0.055739 	4539 	0.054815
34.45 	0.054906 	4535 	0.054131
34.47 	0.058580 	4592 	0.057304
34.49 	0.058299 	4597 	0.057662
34.51 	0.055797 	4606 	0.054398
34.53 	0.052552 	4643 	0.051921
34.55 	0.052983 	4643 	0.052478
34.57 	0.054936 	4660 	0.053930
34.59 	0.057326 	4675 	0.056198
34.61 	0.058974 	4697 	0.057831
34.63 	0.061359 	4710 	0.060613
34.65 	0.059733 	4721 	0.057996
34.67 	0.055263 	4741 	0.054768
34.69 	0.055532 	4754 	0.054793
34.71 	0.054763 	4766 	0.053391
34.73 	0.052016 	4787 	0.051404
34.75 	0.049709 	4808 	0.048612
34.77 	0.057700 	4818 	0.056971
34.79 	0.053897 	4824 	0.052561
34.81 	0.059443 	4845 	0.058355
34.83 	0.052653 	4862 	0.051810
34.85 	0.050524 	4869 	0.049561
34.87 	0.065530 	4868 	0.064808
34.89 	0.053257 	4882 	0.052657
34.91 	0.054281 	4882 	0.053681
34.93 	0.058583 	4899 	0.057627
34.95 	0.056442 	4890 	0.055483
34.97 	0.054264 	4902 	0.053905
34.99 	0.050439 	4897 	0.049602
35.01 	0.057282 	4923 	0.056568
35.03 	0.053611 	4943 	0.052900
35.05 	0.053164 	4947 	0.052690
35.07 	0.054049 	4940 	0.053456
35.09 	0.058752 	4953 	0.058161
35.11 	0.054983 	4947 	0.053917
35.13 	0.057281 	4958 	0.055706
35.15 	0.055904 	4937 	0.055074
35.17 	0.058027 	4946 	0.057435
35.19 	0.057871 	4942 	0.056330
35.21 	0.062892 	4945 	0.061944
35.23 	0.048938 	4945 	0.048228
35.25 	0.055432 	4943 	0.054010
35.27 	0.051536 	4948 	0.050589
35.29 	0.062690 	4945 	0.062097
35.31 	0.057571 	4933 	0.056978
35.33 	0.056646 	4943 	0.055579
35.35 	0.053824 	4942 	0.052876
35.37 	0.059931 	4939 	0.059220
35.39 	0.058241 	4945 	0.057411
35.41 	0.057044 	4926 	0.056212
35.43 	0.055544 	4933 	0.055069
35.45 	0.060361 	4937 	0.058680
35.47 	0.060637 	4931 	0.059073
35.49 	0.061100 	4910 	0.059549
35.51 	0.055420 	4926 	0.054350
35.53 	0.059204 	4949 	0.058375
35.55 	0.059656 	4945 	0.058334
35.57 	0.056558 	4933 	0.055608
35.59 	0.051365 	4945 	0.050299
35.61 	0.060907 	4942 	0.059484
35.63 	0.056848 	4943 	0.055663
35.65 	0.057432 	4945 	0.056484
35.67 	0.055443 	4942 	0.054613
35.69 	0.057218 	4946 	0.056863
35.71 	0.056715 	4937 	0.055884
35.73 	0.055105 	4936 	0.054037
35.75 	0.056784 	4931 	0.056071
35.77 	0.062816 	4951 	0.061751
35.79 	0.059408 	4932 	0.058339
35.81 	0.061829 	4933 	0.060879
35.83 	0.062273 	4946 	0.060832
35.85 	0.058359 	4935 	0.057528
35.87 	0.059720 	4923 	0.058768
35.89 	0.060600 	4934 	0.059393
35.91 	0.063730 	4927 	0.062779
35.93 	0.060280 	4927 	0.059567
35.95 	0.057962 	4917 	0.057247
35.97 	0.061075 	4912 	0.060479
35.99 	0.059121 	4939 	0.058528
36.01 	0.060041 	4930 	0.059446
36.03 	0.057253 	4943 	0.055949
36.05 	0.060061 	4945 	0.059350
36.07 	0.064386 	4939 	0.063318
36.09 	0.062955 	4940 	0.062007
36.11 	0.059241 	4929 	0.058053
36.13 	0.058681 	4942 	0.057732
36.15 	0.057704 	4939 	0.056637
36.17 	0.059289 	4925 	0.058437
36.19 	0.056073 	4940 	0.054650
36.21 	0.051735 	4929 	0.051022
36.23 	0.052482 	4935 	0.051414
36.25 	0.051407 	4941 	0.050102
36.27 	0.052386 	4925 	0.051672
36.29 	0.057392 	4931 	0.056442
36.31 	0.054789 	4928 	0.054076
36.33 	0.059599 	4933 	0.059005
36.35 	0.060256 	4929 	0.058235
36.37 	0.057079 	4923 	0.056127
36.39 	0.053851 	4921 	0.053137
36.41 	0.056985 	4896 	0.056148
36.43 	0.054789 	4928 	0.054076
36.45 	0.060852 	4930 	0.060020
36.47 	0.059562 	4936 	0.058712
36.49 	0.055645 	4942 	0.054816
36.51 	0.059801 	4933 	0.058495
36.53 	0.056848 	4943 	0.055663
36.55 	0.062107 	4927 	0.060442
36.57 	0.053101 	4934 	0.052507
36.59 	0.051832 	4939 	0.051239
36.61 	0.058406 	4931 	0.058050
36.63 	0.057392 	4931 	0.055729
36.65 	0.059002 	4932 	0.058409
36.67 	0.057809 	4930 	0.057096
36.69 	0.061473 	4929 	0.060027
36.71 	0.053444 	4921 	0.053087
36.73 	0.062741 	4925 	0.061790
36.75 	0.054409 	4944 	0.053462
36.77 	0.064241 	4919 	0.062911
36.79 	0.060354 	4921 	0.059144
36.81 	0.062856 	4916 	0.062022
36.83 	0.052899 	4915 	0.052045
36.85 	0.055533 	4898 	0.054337
36.87 	0.056230 	4944 	0.055756
36.89 	0.053295 	4916 	0.052342
36.91 	0.058288 	4941 	0.057221
36.93 	0.052738 	4930 	0.051649
36.95 	0.059193 	4933 	0.057867
36.97 	0.059992 	4934 	0.058805
36.99 	0.059169 	4935 	0.057745
37.01 	0.058990 	4933 	0.057565
37.03 	0.061332 	4924 	0.060024
37.05 	0.054800 	4927 	0.053849
37.07 	0.054103 	4935 	0.053154
37.09 	0.054789 	4928 	0.053600
37.11 	0.055319 	4935 	0.055082
37.13 	0.058692 	4924 	0.057840
37.15 	0.052760 	4909 	0.052044
37.17 	0.054520 	4934 	0.053214
37.19 	0.059086 	4925 	0.057778
37.21 	0.062436 	4917 	0.060649
37.23 	0.052867 	4918 	0.052014
37.25 	0.052535 	4911 	0.051700
37.27 	0.064160 	4894 	0.062963
37.29 	0.055172 	4930 	0.054103
37.31 	0.059980 	4935 	0.058793
37.33 	0.056018 	4927 	0.055305
37.35 	0.061563 	4938 	0.060377
37.37 	0.053379 	4927 	0.052666
37.39 	0.060637 	4931 	0.059805
37.41 	0.057392 	4931 	0.056679
37.43 	0.054745 	4932 	0.054032
37.45 	0.057880 	4924 	0.056809
37.47 	0.051329 	4929 	0.049784
37.49 	0.055454 	4923 	0.054859
37.51 	0.056558 	4933 	0.055608
37.53 	0.056109 	4919 	0.055037
37.55 	0.055984 	4930 	0.055390
37.57 	0.051371 	4925 	0.050538
37.59 	0.053103 	4915 	0.051534
37.61 	0.056887 	4922 	0.055697
37.63 	0.058142 	4919 	0.057427
37.65 	0.053680 	4918 	0.052608
37.67 	0.057096 	4904 	0.055763
37.69 	0.057779 	4898 	0.056822
37.71 	0.062284 	4929 	0.060858
37.73 	0.052140 	4929 	0.051784
37.75 	0.064170 	4940 	0.062866
37.77 	0.053862 	4920 	0.053624
37.79 	0.055781 	4930 	0.054236
37.81 	0.054531 	4933 	0.053581
37.83 	0.055691 	4920 	0.054619
37.85 	0.057091 	4922 	0.056377
37.87 	0.052237 	4939 	0.051407
37.89 	0.053401 	4925 	0.052925
37.91 	0.056592 	4930 	0.055166
37.93 	0.057939 	4919 	0.057105
37.95 	0.057509 	4921 	0.056318
37.97 	0.058430 	4929 	0.057717
37.99 	0.053950 	4912 	0.053234
38.01 	0.053571 	4928 	0.052383
38.03 	0.057242 	4909 	0.056526
38.05 	0.057665 	4925 	0.057070
38.07 	0.057649 	4909 	0.056933
38.09 	0.061091 	4878 	0.060610
38.11 	0.057751 	4935 	0.056920
38.13 	0.056715 	4937 	0.055765
38.15 	0.061204 	4918 	0.059973
38.17 	0.059838 	4930 	0.059006
38.19 	0.061663 	4930 	0.060119
38.21 	0.060329 	4923 	0.059020
38.23 	0.063386 	4938 	0.061587
38.25 	0.058776 	4917 	0.057426
38.27 	0.064909 	4930 	0.064315
38.29 	0.074330 	4924 	0.072050
38.31 	0.069008 	4927 	0.067937
38.33 	0.069253 	4924 	0.068063
38.35 	0.064529 	4928 	0.063341
38.37 	0.071690 	4924 	0.069767
38.39 	0.068853 	4909 	0.068018
38.41 	0.072111 	4923 	0.070881
38.43 	0.081774 	4916 	0.080106
38.45 	0.073404 	4918 	0.071359
38.47 	0.079275 	4907 	0.077603
38.49 	0.073406 	4877 	0.072085
38.51 	0.082522 	4932 	0.080820
38.53 	0.077298 	4929 	0.075158
38.55 	0.081037 	4936 	0.079594
38.57 	0.077798 	4923 	0.075061
38.59 	0.073314 	4924 	0.072125
38.61 	0.079417 	4936 	0.077636
38.63 	0.077985 	4924 	0.076439
38.65 	0.074827 	4918 	0.072902
38.67 	0.078590 	4937 	0.076454
38.69 	0.082893 	4922 	0.081346
38.71 	0.072299 	4924 	0.070395
38.73 	0.074420 	4918 	0.073229
38.75 	0.071037 	4927 	0.069115
38.77 	0.070689 	4923 	0.069856
38.79 	0.063843 	4934 	0.062774
38.81 	0.069015 	4912 	0.067941
38.83 	0.065867 	4919 	0.063723
38.85 	0.055985 	4912 	0.054674
38.87 	0.058033 	4911 	0.057178
38.89 	0.057586 	4897 	0.057586
38.91 	0.047318 	4903 	0.046243
38.93 	0.056703 	4938 	0.055379
38.95 	0.053274 	4918 	0.052202
38.97 	0.052322 	4931 	0.051134
38.99 	0.052461 	4937 	0.052224
39.01 	0.049614 	4918 	0.048542
39.03 	0.053304 	4934 	0.052829
39.05 	0.055431 	4925 	0.054837
39.07 	0.050772 	4924 	0.050058
39.09 	0.048548 	4923 	0.047953
39.11 	0.049077 	4931 	0.047969
39.13 	0.050173 	4923 	0.049459
39.15 	0.049034 	4915 	0.048557
39.17 	0.050435 	4937 	0.049842
39.19 	0.054505 	4917 	0.053194
39.21 	0.048065 	4910 	0.047827
39.23 	0.045279 	4925 	0.045041
39.25 	0.050792 	4922 	0.050316
39.27 	0.048065 	4910 	0.047707
39.29 	0.047745 	4901 	0.046909
39.31 	0.047297 	4884 	0.046578
39.33 	0.043196 	4931 	0.042721
39.35 	0.045795 	4935 	0.044727
39.37 	0.041388 	4929 	0.040912
39.39 	0.048489 	4929 	0.047775
39.41 	0.046238 	4931 	0.045288
39.43 	0.047436 	4933 	0.047198
39.45 	0.041624 	4925 	0.041624
39.47 	0.049970 	4923 	0.049256
39.49 	0.046827 	4933 	0.046234
39.51 	0.047725 	4924 	0.046774
39.53 	0.044485 	4923 	0.043890
39.55 	0.046961 	4919 	0.046008
39.57 	0.046219 	4933 	0.045982
39.59 	0.038681 	4912 	0.038562
39.61 	0.050173 	4923 	0.048626
39.63 	0.050589 	4922 	0.049260
39.65 	0.045270 	4926 	0.044556
39.67 	0.044169 	4913 	0.043930
39.69 	0.047193 	4916 	0.046001
39.71 	0.047600 	4895 	0.046882
39.73 	0.043399 	4908 	0.043040
39.75 	0.041193 	4928 	0.040955
39.77 	0.047214 	4935 	0.046502
39.79 	0.047097 	4926 	0.046740
39.81 	0.048508 	4927 	0.048033
39.83 	0.047021 	4934 	0.046190
39.85 	0.052770 	4927 	0.051938
39.87 	0.043046 	4925 	0.042332
39.89 	0.045197 	4934 	0.044840
39.91 	0.046119 	4922 	0.045167
39.93 	0.047802 	4937 	0.046972
39.95 	0.043133 	4915 	0.043133
39.97 	0.038352 	4928 	0.037520
39.99 	0.049676 	4932 	0.049082
40.01 	0.050427 	4918 	0.049355
40.03 	0.045455 	4928 	0.045217
40.05 	0.050844 	4917 	0.049752
40.07 	0.042251 	4923 	0.041775
40.09 	0.046786 	4916 	0.045952
40.11 	0.040887 	4916 	0.039934
40.13 	0.045547 	4896 	0.045288
40.15 	0.044779 	4913 	0.044302
40.17 	0.046875 	4928 	0.046400
40.19 	0.046054 	4929 	0.045341
40.21 	0.044580 	4935 	0.043511
40.23 	0.038727 	4932 	0.038370
40.25 	0.045122 	4920 	0.044646
40.27 	0.039700 	4937 	0.039107
40.29 	0.041202 	4927 	0.040964
40.31 	0.038267 	4939 	0.037674
40.33 	0.043390 	4932 	0.043153
40.35 	0.042895 	4919 	0.042280
40.37 	0.044228 	4929 	0.043753
40.39 	0.045224 	4931 	0.044749
40.41 	0.044264 	4925 	0.044026
40.43 	0.040634 	4922 	0.040277
40.45 	0.048247 	4933 	0.047653
40.47 	0.041277 	4918 	0.041158
40.49 	0.039789 	4926 	0.039075
40.51 	0.042869 	4922 	0.042393
40.53 	0.045159 	4916 	0.044444
40.55 	0.044825 	4908 	0.043870
40.57 	0.044785 	4890 	0.044546
40.59 	0.041726 	4937 	0.041251
40.61 	0.041743 	4935 	0.041149
40.63 	0.045639 	4930 	0.045045
40.65 	0.038890 	4937 	0.038534
40.67 	0.043796 	4932 	0.043083
40.69 	0.043549 	4937 	0.042105
40.71 	0.050487 	4932 	0.050130
40.73 	0.041413 	4926 	0.040818
40.75 	0.049077 	4931 	0.048246
40.77 	0.042114 	4939 	0.041877
40.79 	0.045085 	4924 	0.044847
40.81 	0.042097 	4941 	0.041623
40.83 	0.040381 	4928 	0.040025
40.85 	0.043867 	4924 	0.043034
40.87 	0.044643 	4928 	0.043930
40.89 	0.042791 	4931 	0.042434
40.91 	0.042860 	4923 	0.042265
40.93 	0.041346 	4934 	0.040752
40.95 	0.038469 	4913 	0.037873
40.97 	0.040414 	4924 	0.040176
40.99 	0.038180 	4924 	0.037823
41.01 	0.043160 	4912 	0.042802
41.03 	0.043017 	4905 	0.042540
41.05 	0.044165 	4936 	0.043809
41.07 	0.039351 	4930 	0.038519
41.09 	0.041911 	4939 	0.041318
41.11 	0.039919 	4935 	0.038969
41.13 	0.041329 	4936 	0.041210
41.15 	0.043918 	4941 	0.043207
41.17 	0.042764 	4934 	0.041933
41.19 	0.042394 	4930 	0.042275
41.21 	0.040916 	4937 	0.040678
41.23 	0.041709 	4939 	0.041116
41.25 	0.040746 	4933 	0.040034
41.27 	0.042385 	4931 	0.042029
41.29 	0.043425 	4928 	0.042593
41.31 	0.042368 	4933 	0.041299
41.33 	0.048815 	4937 	0.048459
41.35 	0.040907 	4938 	0.040057
41.37 	0.037977 	4924 	0.037501
41.39 	0.038719 	4933 	0.038600
41.41 	0.043443 	4926 	0.042967
41.43 	0.038344 	4929 	0.037869
41.45 	0.036427 	4914 	0.036188
41.47 	0.038165 	4926 	0.037570
41.49 	0.039043 	4892 	0.038205
41.51 	0.042915 	4940 	0.042204
41.53 	0.035396 	4944 	0.034567
41.55 	0.040527 	4935 	0.039558
41.57 	0.042502 	4941 	0.041909
41.59 	0.042368 	4933 	0.041893
41.61 	0.043206 	4953 	0.042714
41.63 	0.041312 	4938 	0.040838
41.65 	0.041591 	4929 	0.041234
41.67 	0.041093 	4940 	0.040619
41.69 	0.035981 	4947 	0.035626
41.71 	0.040535 	4934 	0.040298
41.73 	0.037480 	4936 	0.037242
41.75 	0.034490 	4929 	0.034252
41.77 	0.041490 	4941 	0.040423
41.79 	0.034183 	4944 	0.033472
41.81 	0.038493 	4936 	0.038137
41.83 	0.036323 	4928 	0.035848
41.85 	0.040292 	4939 	0.039580
41.87 	0.038906 	4935 	0.038668
41.89 	0.041760 	4933 	0.041403
41.91 	0.040113 	4936 	0.039995
41.93 	0.037713 	4932 	0.037238
41.95 	0.039951 	4931 	0.039714
41.97 	0.036834 	4914 	0.036476
41.99 	0.044852 	4905 	0.044494
42.01 	0.042291 	4942 	0.042054
42.03 	0.035837 	4939 	0.035126
42.05 	0.036551 	4952 	0.036196
42.07 	0.036864 	4937 	0.036509
42.09 	0.037389 	4948 	0.037270
42.11 	0.036603 	4945 	0.036366
42.13 	0.040849 	4945 	0.040612
42.15 	0.039692 	4938 	0.038980
42.17 	0.044124 	4918 	0.043885
42.19 	0.044621 	4908 	0.043905
42.21 	0.043256 	4901 	0.042659
42.23 	0.037612 	4892 	0.037373
42.25 	0.038658 	4889 	0.038658
42.27 	0.038777 	4874 	0.038296
42.29 	0.039687 	4863 	0.039206
42.31 	0.038723 	4855 	0.038120
42.33 	0.040339 	4834 	0.039855
42.35 	0.041339 	4838 	0.040976
42.37 	0.039959 	4830 	0.039473
42.39 	0.036844 	4804 	0.036357
42.41 	0.040799 	4804 	0.040312
42.43 	0.040275 	4792 	0.039909
42.45 	0.038735 	4776 	0.038613
42.47 	0.040923 	4765 	0.040800
42.49 	0.034627 	4765 	0.034136
42.51 	0.033312 	4743 	0.033312
42.53 	0.034264 	4728 	0.033768
42.55 	0.043543 	4708 	0.043418
42.57 	0.035307 	4730 	0.034687
42.59 	0.041446 	4729 	0.040703
42.61 	0.039720 	4708 	0.039471
42.63 	0.036101 	4709 	0.035852
42.65 	0.039915 	4685 	0.039540
42.67 	0.040991 	4684 	0.040365
42.69 	0.040223 	4674 	0.039972
42.71 	0.040532 	4663 	0.040406
42.73 	0.032759 	4640 	0.032380
42.75 	0.042668 	4617 	0.042161
42.77 	0.040217 	4600 	0.039581
42.79 	0.038411 	4582 	0.038155
42.81 	0.036388 	4562 	0.035617
42.83 	0.038360 	4536 	0.037843
42.85 	0.039753 	4528 	0.039106
42.87 	0.039342 	4499 	0.038951
42.89 	0.046429 	4480 	0.045513
42.91 	0.037702 	4456 	0.037308
42.93 	0.035088 	4446 	0.035088
42.95 	0.031476 	4416 	0.031078
42.97 	0.035446 	4401 	0.035180
42.99 	0.038084 	4385 	0.037684
43.01 	0.038735 	4363 	0.037929
43.03 	0.037157 	4333 	0.036346
43.05 	0.037225 	4325 	0.036413
43.07 	0.038873 	4296 	0.038464
43.09 	0.037124 	4283 	0.036850
43.11 	0.039248 	4255 	0.038835
43.13 	0.040595 	4237 	0.040318
43.15 	0.039705 	4206 	0.039287
43.17 	0.039483 	4179 	0.038619
43.19 	0.036242 	4194 	0.035963
43.21 	0.038111 	4172 	0.037409
43.23 	0.040924 	4154 	0.039773
43.25 	0.038452 	4135 	0.038169
43.27 	0.038490 	4105 	0.038204
43.29 	0.036098 	4100 	0.035526
43.31 	0.034567 	4079 	0.034567
43.33 	0.035794 	4051 	0.035360
43.35 	0.039435 	4032 	0.038853
43.37 	0.037360 	4015 	0.036485
43.39 	0.034233 	4002 	0.033770
43.41 	0.039778 	3972 	0.039336
43.43 	0.035859 	3960 	0.035563
43.45 	0.035070 	3935 	0.034772
43.47 	0.037235 	3921 	0.036190
43.49 	0.039774 	3897 	0.039023
43.51 	0.038174 	3877 	0.037872
43.53 	0.040901 	3863 	0.040446
43.55 	0.034413 	2964 	0.034215
43.57 	0.037980 	2238 	0.037719
43.59 	0.042955 	1746 	0.042955
43.61 	0.042191 	1351 	0.042191
43.63 	0.031968 	1001 	0.031968
43.65 	0.039301 	687 	0.039301
43.67 	0.039841 	502 	0.038674
43.69 	0.035422 	367 	0.035422
43.71 	0.041841 	239 	0.039390
43.73 	0.041667 	120 	0.041667
43.75 	0.000000 	16 	0.000000