File: Example_Data/25SC_s1_0017.002.dat
#F C:\frames\spec\25SC_s1_0017.002
#C title =s:17 frm:2 25SC_s1
#C wavelength =0.15406

#S 1  fr_average C:\frames\spec\25SC_s1_0017.002 C:\win32app\speccom\mask.axs chi 0 180 0 360 0.02
#C 2 theta =0.000000 to 180 deg
#C   q   =0.000000 to 81.568 nm^-1
#C  chi  =0.000000 to 360 deg
#C collumns:
#C  1 position (2theta or chi in degrees)
#C  2 average intensity (sum of all counts in the region divided with number of pixels)
#C  3 Number of pixels in region)
#C  4 error (sum of sqrt(intensity) for all pixels divided by number)
#N 4
#L TTh  Int  N_pix  Err
32.99 	0.049180 	61 	0.039577
33.01 	0.048110 	873 	0.047439
33.03 	0.057513 	1391 	0.055828
33.05 	0.064314 	1757 	0.063981
33.07 	0.057073 	2050 	0.056216
33.09 	0.062207 	2347 	0.060710
33.11 	0.058938 	2579 	0.057348
33.13 	0.059076 	2793 	0.058447
33.15 	0.058019 	2999 	0.057043
33.17 	0.061856 	3201 	0.060575
33.19 	0.057451 	3342 	0.056224
33.21 	0.061991 	3436 	0.061309
33.23 	0.059892 	3523 	0.058562
33.25 	0.049280 	3612 	0.048794
33.27 	0.058402 	3630 	0.057273
33.29 	0.060855 	3648 	0.058607
33.31 	0.058197 	3660 	0.057717
33.33 	0.060499 	3686 	0.059864
33.35 	0.061992 	3694 	0.060565
33.37 	0.060582 	3714 	0.059162
33.39 	0.053097 	3729 	0.051841
33.41 	0.055080 	3740 	0.053514
33.43 	0.060622 	3761 	0.058597
33.45 	0.061490 	3773 	0.060558
33.47 	0.057925 	3798 	0.056537
33.49 	0.057758 	3809 	0.057143
33.51 	0.061075 	3815 	0.059693
33.53 	0.060661 	3841 	0.059441
33.55 	0.057507 	3843 	0.056568
33.57 	0.054424 	3877 	0.053819
33.59 	0.050258 	3880 	0.049503
33.61 	0.059862 	3909 	0.058363
33.63 	0.054606 	3919 	0.054008
33.65 	0.054948 	3931 	0.054054
33.67 	0.057916 	3954 	0.057175
33.69 	0.062990 	3953 	0.061632
33.71 	0.054340 	3975 	0.053898
33.73 	0.062188 	4004 	0.060871
33.75 	0.057264 	3999 	0.056385
33.77 	0.061118 	4025 	0.060827
33.79 	0.061866 	4041 	0.061286
33.81 	0.058445 	4038 	0.056849
33.83 	0.062469 	4050 	0.061457
33.85 	0.064406 	4099 	0.062834
33.87 	0.055704 	4111 	0.054707
33.89 	0.055084 	4121 	0.054065
33.91 	0.049892 	4149 	0.049186
33.93 	0.056131 	4151 	0.055002
33.95 	0.053337 	4181 	0.052356
33.97 	0.057041 	4190 	0.056481
33.99 	0.060000 	4200 	0.059582
34.01 	0.057204 	4213 	0.055953
34.03 	0.057493 	4244 	0.056527
34.05 	0.055503 	4252 	0.054539
34.07 	0.051781 	4268 	0.051232
34.09 	0.059029 	4286 	0.057526
34.11 	0.059972 	4302 	0.058610
34.13 	0.054318 	4308 	0.053343
34.15 	0.059571 	4331 	0.057812
34.17 	0.060000 	4350 	0.058384
34.19 	0.058918 	4362 	0.057284
34.21 	0.058339 	4371 	0.056999
34.23 	0.056909 	4393 	0.055842
34.25 	0.053815 	4404 	0.052485
34.27 	0.052691 	4422 	0.051896
34.29 	0.061330 	4435 	0.060538
34.31 	0.061238 	4458 	0.060187
34.33 	0.055916 	4471 	0.054999
34.35 	0.053970 	4484 	0.052271
34.37 	0.059675 	4491 	0.058501
34.39 	0.054642 	4502 	0.053471
34.41 	0.054795 	4526 	0.054018
34.43 	0.056400 	4539 	0.055497
34.45 	0.060198 	4535 	0.059165
34.47 	0.063153 	4592 	0.062260
34.49 	0.051773 	4597 	0.050499
34.51 	0.067738 	4606 	0.066466
34.53 	0.052768 	4643 	0.051758
34.55 	0.061167 	4643 	0.060032
34.57 	0.053648 	4660 	0.052894
34.59 	0.052620 	4675 	0.052244
34.61 	0.065361 	4697 	0.063989
34.63 	0.061571 	4710 	0.060058
34.65 	0.050413 	4721 	0.049793
34.67 	0.056106 	4741 	0.055489
34.69 	0.056163 	4754 	0.055424
34.71 	0.053294 	4766 	0.052434
34.73 	0.053478 	4787 	0.052377
34.75 	0.057612 	4808 	0.056394
34.77 	0.059568 	4818 	0.058352
34.79 	0.056592 	4824 	0.056106
34.81 	0.060268 	4845 	0.059059
34.83 	0.063143 	4862 	0.062420
34.85 	0.057507 	4869 	0.056785
34.87 	0.062449 	4868 	0.061486
34.89 	0.061860 	4882 	0.061020
34.91 	0.058173 	4882 	0.056833
34.93 	0.056746 	4899 	0.056029
34.95 	0.056442 	4890 	0.055703
34.97 	0.054672 	4902 	0.053955
34.99 	0.054319 	4897 	0.053462
35.01 	0.061142 	4923 	0.059952
35.03 	0.056241 	4943 	0.055293
35.05 	0.059228 	4947 	0.057787
35.07 	0.059109 	4940 	0.058023
35.09 	0.056935 	4953 	0.056344
35.11 	0.060239 	4947 	0.058818
35.13 	0.058895 	4958 	0.057241
35.15 	0.057727 	4937 	0.056778
35.17 	0.058835 	4946 	0.057533
35.19 	0.060907 	4942 	0.060432
35.21 	0.056825 	4945 	0.056351
35.23 	0.058443 	4945 	0.057614
35.25 	0.050374 	4943 	0.049545
35.27 	0.056386 	4948 	0.055321
35.29 	0.060061 	4945 	0.058995
35.31 	0.054936 	4933 	0.054105
35.33 	0.064940 	4943 	0.063518
35.35 	0.060704 	4942 	0.060112
35.37 	0.059121 	4939 	0.057935
35.39 	0.060061 	4945 	0.058876
35.41 	0.059683 	4926 	0.058970
35.43 	0.063045 	4933 	0.061857
35.45 	0.058740 	4937 	0.057672
35.47 	0.053539 	4931 	0.052826
35.49 	0.058045 	4910 	0.056951
35.51 	0.058668 	4926 	0.057598
35.53 	0.062033 	4949 	0.060612
35.55 	0.053185 	4945 	0.052356
35.57 	0.059396 	4933 	0.057852
35.59 	0.062285 	4945 	0.060745
35.61 	0.061311 	4942 	0.059988
35.63 	0.055432 	4943 	0.054839
35.65 	0.053589 	4945 	0.053116
35.67 	0.059288 	4942 	0.058221
35.69 	0.057218 	4946 	0.056340
35.71 	0.053271 	4937 	0.052085
35.73 	0.054700 	4936 	0.053988
35.75 	0.057189 	4931 	0.055625
35.77 	0.060190 	4951 	0.059007
35.79 	0.058191 	4932 	0.057598
35.81 	0.053517 	4933 	0.051973
35.83 	0.056005 	4946 	0.055176
35.85 	0.054914 	4935 	0.054676
35.87 	0.061954 	4923 	0.060407
35.89 	0.060803 	4934 	0.060209
35.91 	0.058656 	4927 	0.057824
35.93 	0.059671 	4927 	0.058720
35.95 	0.061013 	4917 	0.060060
35.97 	0.057614 	4912 	0.056779
35.99 	0.052642 	4939 	0.052405
36.01 	0.064503 	4930 	0.062582
36.03 	0.060894 	4943 	0.060183
36.05 	0.058241 	4945 	0.057056
36.07 	0.057906 	4939 	0.056365
36.09 	0.060729 	4940 	0.059780
36.11 	0.054372 	4929 	0.053065
36.13 	0.057264 	4942 	0.056297
36.15 	0.058311 	4939 	0.057837
36.17 	0.060711 	4925 	0.059997
36.19 	0.053036 	4940 	0.052088
36.21 	0.061270 	4929 	0.060319
36.23 	0.060182 	4935 	0.059589
36.25 	0.061121 	4941 	0.060054
36.27 	0.055431 	4925 	0.054718
36.29 	0.060231 	4931 	0.058449
36.31 	0.055195 	4928 	0.054343
36.33 	0.062234 	4933 	0.061403
36.35 	0.056198 	4929 	0.055841
36.37 	0.056876 	4923 	0.056023
36.39 	0.061573 	4921 	0.060224
36.41 	0.058007 	4896 	0.057169
36.43 	0.058036 	4928 	0.057085
36.45 	0.053955 	4930 	0.052648
36.47 	0.063412 	4936 	0.062700
36.49 	0.052610 	4942 	0.051188
36.51 	0.056963 	4933 	0.056013
36.53 	0.050374 	4943 	0.049663
36.55 	0.057236 	4927 	0.056166
36.57 	0.055938 	4934 	0.055107
36.59 	0.055072 	4939 	0.054104
36.61 	0.057595 	4931 	0.056882
36.63 	0.060434 	4931 	0.059226
36.65 	0.056569 	4932 	0.055619
36.67 	0.055375 	4930 	0.054900
36.69 	0.060053 	4929 	0.058745
36.71 	0.055477 	4921 	0.054762
36.73 	0.051574 	4925 	0.050979
36.75 	0.056432 	4944 	0.055721
36.77 	0.054076 	4919 	0.052885
36.79 	0.056289 	4921 	0.055932
36.81 	0.054719 	4916 	0.052932
36.83 	0.053510 	4915 	0.052437
36.85 	0.055125 	4898 	0.053689
36.87 	0.052184 	4944 	0.051474
36.89 	0.061432 	4916 	0.060121
36.91 	0.062740 	4941 	0.061318
36.93 	0.054158 	4930 	0.052574
36.95 	0.053923 	4933 	0.053448
36.97 	0.058370 	4934 	0.057302
36.99 	0.055319 	4935 	0.054251
37.01 	0.056558 	4933 	0.055845
37.03 	0.059301 	4924 	0.058350
37.05 	0.057642 	4927 	0.057404
37.07 	0.057345 	4935 	0.056020
37.09 	0.057224 	4928 	0.055916
37.11 	0.056130 	4935 	0.055536
37.13 	0.055037 	4924 	0.053966
37.15 	0.059483 	4909 	0.058647
37.17 	0.058370 	4934 	0.057777
37.19 	0.055635 	4925 	0.053850
37.21 	0.058776 	4917 	0.058061
37.23 	0.059780 	4918 	0.059066
37.25 	0.052942 	4911 	0.051630
37.27 	0.061708 	4894 	0.060511
37.29 	0.056389 	4930 	0.055082
37.31 	0.055927 	4935 	0.055571
37.33 	0.055409 	4927 	0.054696
37.35 	0.054475 	4938 	0.053171
37.37 	0.049929 	4927 	0.049216
37.39 	0.059014 	4931 	0.057589
37.41 	0.057189 	4931 	0.056239
37.43 	0.056164 	4932 	0.055214
37.45 	0.050162 	4924 	0.049211
37.47 	0.058430 	4929 	0.058073
37.49 	0.052813 	4923 	0.051861
37.51 	0.055747 	4933 	0.054678
37.53 	0.052450 	4919 	0.051378
37.55 	0.055375 	4930 	0.054662
37.57 	0.056447 	4925 	0.055971
37.59 	0.056765 	4915 	0.055692
37.61 	0.053027 	4922 	0.051718
37.63 	0.052450 	4919 	0.051735
37.65 	0.055104 	4918 	0.054250
37.67 	0.056485 	4904 	0.055648
37.69 	0.058187 	4898 	0.057230
37.71 	0.048691 	4929 	0.047978
37.73 	0.052749 	4929 	0.051917
37.75 	0.050000 	4940 	0.049763
37.77 	0.053455 	4920 	0.052741
37.79 	0.053347 	4930 	0.052872
37.81 	0.051287 	4933 	0.050694
37.83 	0.049390 	4920 	0.048676
37.85 	0.058919 	4922 	0.057729
37.87 	0.057097 	4939 	0.055792
37.89 	0.048325 	4925 	0.048087
37.91 	0.054361 	4930 	0.053410
37.93 	0.055296 	4919 	0.054581
37.95 	0.056493 	4921 	0.055302
37.97 	0.051938 	4929 	0.050749
37.99 	0.056596 	4912 	0.055881
38.01 	0.053774 	4928 	0.052942
38.03 	0.055001 	4909 	0.054046
38.05 	0.050761 	4925 	0.050048
38.07 	0.048890 	4909 	0.048174
38.09 	0.053711 	4878 	0.053230
38.11 	0.054103 	4935 	0.053747
38.13 	0.051246 	4937 	0.050771
38.15 	0.059780 	4918 	0.059185
38.17 	0.055984 	4930 	0.055508
38.19 	0.054970 	4930 	0.054494
38.21 	0.056063 	4923 	0.054854
38.23 	0.051235 	4938 	0.049575
38.25 	0.053081 	4917 	0.052485
38.27 	0.057809 	4930 	0.056502
38.29 	0.056661 	4924 	0.055591
38.31 	0.058453 	4927 	0.057264
38.33 	0.059301 	4924 	0.057874
38.35 	0.056209 	4928 	0.055496
38.37 	0.059504 	4924 	0.058315
38.39 	0.058464 	4909 	0.057748
38.41 	0.055454 	4923 	0.054264
38.43 	0.058584 	4916 	0.057512
38.45 	0.065880 	4918 	0.064808
38.47 	0.054412 	4907 	0.053796
38.49 	0.064999 	4877 	0.064278
38.51 	0.051298 	4932 	0.050941
38.53 	0.057821 	4929 	0.057583
38.55 	0.065032 	4936 	0.063371
38.57 	0.055251 	4923 	0.054299
38.59 	0.062551 	4924 	0.061599
38.61 	0.068882 	4936 	0.066864
38.63 	0.065191 	4924 	0.063644
38.65 	0.067710 	4918 	0.065785
38.67 	0.061576 	4937 	0.060389
38.69 	0.064202 	4922 	0.062516
38.71 	0.059301 	4924 	0.057497
38.73 	0.061407 	4918 	0.060216
38.75 	0.056830 	4927 	0.055126
38.77 	0.052813 	4923 	0.052337
38.79 	0.058979 	4934 	0.057910
38.81 	0.056800 	4912 	0.055726
38.83 	0.053466 	4919 	0.052871
38.85 	0.057410 	4912 	0.056814
38.87 	0.054571 	4911 	0.053498
38.89 	0.050439 	4897 	0.049243
38.91 	0.054252 	4903 	0.053536
38.93 	0.054678 	4938 	0.053848
38.95 	0.051647 	4918 	0.050694
38.97 	0.054958 	4931 	0.054483
38.99 	0.052461 	4937 	0.052342
39.01 	0.050630 	4918 	0.050273
39.03 	0.051074 	4934 	0.050124
39.05 	0.047513 	4925 	0.046442
39.07 	0.048132 	4924 	0.047656
39.09 	0.047329 	4923 	0.046734
39.11 	0.046441 	4931 	0.045491
39.13 	0.041844 	4923 	0.041487
39.15 	0.047813 	4915 	0.047098
39.17 	0.048410 	4937 	0.047817
39.19 	0.052878 	4917 	0.052282
39.21 	0.047862 	4910 	0.047265
39.23 	0.046294 	4925 	0.046175
39.25 	0.047948 	4922 	0.047234
39.27 	0.046640 	4910 	0.046043
39.29 	0.050194 	4901 	0.049835
39.31 	0.047297 	4884 	0.046698
39.33 	0.047860 	4931 	0.047504
39.35 	0.049848 	4935 	0.049255
39.37 	0.046054 	4929 	0.045579
39.39 	0.048894 	4929 	0.048181
39.41 	0.048063 	4931 	0.047588
39.43 	0.046827 	4933 	0.046590
39.45 	0.045482 	4925 	0.044650
39.47 	0.052610 	4923 	0.052134
39.49 	0.046422 	4933 	0.045710
39.51 	0.046507 	4924 	0.046031
39.53 	0.050579 	4923 	0.049270
39.55 	0.044115 	4919 	0.043500
39.57 	0.044192 	4933 	0.043480
39.59 	0.050285 	4912 	0.049450
39.61 	0.045704 	4923 	0.045228
39.63 	0.043072 	4922 	0.042358
39.65 	0.048924 	4926 	0.048211
39.67 	0.048850 	4913 	0.048254
39.69 	0.048210 	4916 	0.046899
39.71 	0.047600 	4895 	0.046283
39.73 	0.046047 	4908 	0.045092
39.75 	0.048093 	4928 	0.047479
39.77 	0.043972 	4935 	0.043378
39.79 	0.038165 	4926 	0.037808
39.81 	0.045464 	4927 	0.044869
39.83 	0.045805 	4934 	0.044736
39.85 	0.044652 	4927 	0.044414
39.87 	0.043858 	4925 	0.042649
39.89 	0.047426 	4934 	0.047189
39.91 	0.042869 	4922 	0.042631
39.93 	0.043751 	4937 	0.043277
39.95 	0.043744 	4915 	0.042790
39.97 	0.047078 	4928 	0.046365
39.99 	0.045215 	4932 	0.044502
40.01 	0.047784 	4918 	0.047307
40.03 	0.046266 	4928 	0.045553
40.05 	0.042709 	4917 	0.042113
40.07 	0.046313 	4923 	0.045599
40.09 	0.045159 	4916 	0.044563
40.11 	0.047193 	4916 	0.046120
40.13 	0.042279 	4896 	0.041562
40.15 	0.040912 	4913 	0.040793
40.17 	0.042817 	4928 	0.041866
40.19 	0.045040 	4929 	0.044564
40.21 	0.048024 	4935 	0.047550
40.23 	0.049878 	4932 	0.049047
40.25 	0.039837 	4920 	0.039718
40.27 	0.045169 	4937 	0.044220
40.29 	0.040796 	4927 	0.040677
40.31 	0.038267 	4939 	0.038030
40.33 	0.038727 	4932 	0.038489
40.35 	0.041472 	4919 	0.040996
40.37 	0.039359 	4929 	0.038765
40.39 	0.044818 	4931 	0.044462
40.41 	0.043452 	4925 	0.042857
40.43 	0.042259 	4922 	0.041783
40.45 	0.045408 	4933 	0.045171
40.47 	0.036804 	4918 	0.036446
40.49 	0.042631 	4926 	0.041917
40.51 	0.042666 	4922 	0.042309
40.53 	0.039870 	4916 	0.039393
40.55 	0.047677 	4908 	0.046961
40.57 	0.042536 	4890 	0.042057
40.59 	0.042536 	4937 	0.041824
40.61 	0.043769 	4935 	0.043136
40.63 	0.041785 	4930 	0.041547
40.65 	0.043751 	4937 	0.042921
40.67 	0.048865 	4932 	0.047914
40.69 	0.042333 	4937 	0.041621
40.71 	0.042579 	4932 	0.041985
40.73 	0.044458 	4926 	0.043863
40.75 	0.041371 	4931 	0.041015
40.77 	0.047783 	4939 	0.047427
40.79 	0.043054 	4924 	0.042698
40.81 	0.044930 	4941 	0.044318
40.83 	0.043425 	4928 	0.042950
40.85 	0.044070 	4924 	0.043099
40.87 	0.043831 	4928 	0.043237
40.89 	0.044616 	4931 	0.044141
40.91 	0.042657 	4923 	0.042300
40.93 	0.044589 	4934 	0.043876
40.95 	0.040912 	4913 	0.040077
40.97 	0.045288 	4924 	0.044694
40.99 	0.045288 	4924 	0.044931
41.01 	0.043974 	4912 	0.043735
41.03 	0.039755 	4905 	0.038919
41.05 	0.040721 	4936 	0.040484
41.07 	0.044219 	4930 	0.043863
41.09 	0.044746 	4939 	0.044509
41.11 	0.040932 	4935 	0.040576
41.13 	0.039100 	4936 	0.038626
41.15 	0.042502 	4941 	0.041672
41.17 	0.039927 	4934 	0.039808
41.19 	0.041176 	4930 	0.040107
41.21 	0.042333 	4937 	0.042096
41.23 	0.043531 	4939 	0.042938
41.25 	0.049463 	4933 	0.048632
41.27 	0.043399 	4931 	0.042924
41.29 	0.040584 	4928 	0.039990
41.31 	0.039327 	4933 	0.038971
41.33 	0.042536 	4937 	0.041943
41.35 	0.046780 	4938 	0.046424
41.37 	0.040414 	4924 	0.039938
41.39 	0.047436 	4933 	0.047317
41.41 	0.045676 	4926 	0.045438
41.43 	0.048894 	4929 	0.048399
41.45 	0.041718 	4914 	0.041360
41.47 	0.042631 	4926 	0.041442
41.49 	0.042723 	4892 	0.042364
41.51 	0.035830 	4940 	0.034980
41.53 	0.045914 	4944 	0.045085
41.55 	0.044782 	4935 	0.044307
41.57 	0.043109 	4941 	0.043109
41.59 	0.041151 	4933 	0.040676
41.61 	0.040783 	4953 	0.039955
41.63 	0.041515 	4938 	0.041278
41.65 	0.045040 	4929 	0.044564
41.67 	0.040486 	4940 	0.039893
41.69 	0.039822 	4947 	0.039348
41.71 	0.046007 	4934 	0.045176
41.73 	0.038290 	4936 	0.038053
41.75 	0.038547 	4929 	0.038191
41.77 	0.040680 	4941 	0.040206
41.79 	0.048746 	4944 	0.048154
41.81 	0.045381 	4936 	0.045025
41.83 	0.042208 	4928 	0.041376
41.85 	0.042114 	4939 	0.041639
41.87 	0.044985 	4935 	0.044273
41.89 	0.040341 	4933 	0.040222
41.91 	0.039911 	4936 	0.038961
41.93 	0.035280 	4932 	0.035161
41.95 	0.040154 	4931 	0.039323
41.97 	0.032357 	4914 	0.032237
41.99 	0.042813 	4905 	0.042216
42.01 	0.037434 	4942 	0.037197
42.03 	0.035837 	4939 	0.035600
42.05 	0.045032 	4952 	0.044559
42.07 	0.037270 	4937 	0.037270
42.09 	0.043250 	4948 	0.042421
42.11 	0.038220 	4945 	0.037865
42.13 	0.040040 	4945 	0.039211
42.15 	0.045160 	4938 	0.044804
42.17 	0.039854 	4918 	0.039139
42.19 	0.044010 	4908 	0.043652
42.21 	0.041828 	4901 	0.040852
42.23 	0.040270 	4892 	0.040150
42.25 	0.037022 	4889 	0.036902
42.27 	0.035905 	4874 	0.035785
42.29 	0.043800 	4863 	0.043198
42.31 	0.039135 	4855 	0.039014
42.33 	0.039098 	4834 	0.038735
42.35 	0.039686 	4838 	0.038596
42.37 	0.036439 	4830 	0.035813
42.39 	0.040591 	4804 	0.039981
42.41 	0.036636 	4804 	0.036026
42.43 	0.035267 	4792 	0.035023
42.45 	0.037270 	4776 	0.037024
42.47 	0.038405 	4765 	0.038405
42.49 	0.041763 	4765 	0.041271
42.51 	0.040692 	4743 	0.040054
42.53 	0.038283 	4728 	0.038159
42.55 	0.045242 	4708 	0.044122
42.57 	0.037844 	4730 	0.037348
42.59 	0.040389 	4729 	0.040017
42.61 	0.045667 	4708 	0.045045
42.63 	0.042047 	4709 	0.041550
42.65 	0.039915 	4685 	0.039289
42.67 	0.033732 	4684 	0.033482
42.69 	0.036799 	4674 	0.036298
42.71 	0.043963 	4663 	0.043586
42.73 	0.034914 	4640 	0.034535
42.75 	0.042019 	4617 	0.041765
42.77 	0.042391 	4600 	0.041882
42.79 	0.044522 	4582 	0.044011
42.81 	0.043621 	4562 	0.042979
42.83 	0.040564 	4536 	0.040306
42.85 	0.040857 	4528 	0.040469
42.87 	0.042009 	4499 	0.041619
42.89 	0.040179 	4480 	0.039525
42.91 	0.036355 	4456 	0.036093
42.93 	0.044759 	4446 	0.044364
42.95 	0.036005 	4416 	0.035342
42.97 	0.041581 	4401 	0.040916
42.99 	0.037172 	4385 	0.036638
43.01 	0.038506 	4363 	0.038237
43.03 	0.038080 	4333 	0.037404
43.05 	0.035838 	4325 	0.035703
43.07 	0.035847 	4296 	0.035575
43.09 	0.037824 	4283 	0.037277
43.11 	0.043243 	4255 	0.042830
43.13 	0.040359 	4237 	0.040220
43.15 	0.043985 	4206 	0.043567
43.17 	0.040919 	4179 	0.039797
43.19 	0.035289 	4194 	0.035149
43.21 	0.040988 	4172 	0.040566
43.23 	0.038517 	4154 	0.038235
43.25 	0.035792 	4135 	0.035225
43.27 	0.038490 	4105 	0.037491
43.29 	0.040488 	4100 	0.040488
43.31 	0.037754 	4079 	0.037180
43.33 	0.041718 	4051 	0.041429
43.35 	0.038938 	4032 	0.038212
43.37 	0.040349 	4015 	0.039765
43.39 	0.038731 	4002 	0.038145
43.41 	0.037513 	3972 	0.036628
43.43 	0.039646 	3960 	0.039055
43.45 	0.035324 	3935 	0.034877
43.47 	0.039276 	3921 	0.039126
43.49 	0.040031 	3897 	0.039880
43.51 	0.034305 	3877 	0.033852
43.53 	0.037018 	3863 	0.036563
43.55 	0.041835 	2964 	0.040650
43.57 	0.038874 	2238 	0.038612
43.59 	0.032073 	1746 	0.031738
43.61 	0.039230 	1351 	0.038797
43.63 	0.040959 	1001 	0.040374
43.65 	0.036390 	687 	0.036390
43.67 	0.035857 	502 	0.035857
43.69 	0.046322 	367 	0.044725
43.71 	0.016736 	239 	0.016736
43.73 	0.025000 	120 	0.025000
43.75 	0.062500 	16 	0.062500