File: Example_Data/25SC_s1_0007.003.dat
#F C:\frames\spec\25SC_s1_0007.003
#C title =s:7 frm:3 25SC_s1
#C wavelength =0.15406

#S 1  fr_average C:\frames\spec\25SC_s1_0007.003 C:\win32app\speccom\mask.axs chi 0 180 0 360 0.02
#C 2 theta =0.000000 to 180 deg
#C   q   =0.000000 to 81.568 nm^-1
#C  chi  =0.000000 to 360 deg
#C collumns:
#C  1 position (2theta or chi in degrees)
#C  2 average intensity (sum of all counts in the region divided with number of pixels)
#C  3 Number of pixels in region)
#C  4 error (sum of sqrt(intensity) for all pixels divided by number)
#N 4
#L TTh  Int  N_pix  Err
32.99 	0.065574 	61 	0.065574
33.01 	0.050401 	873 	0.050401
33.03 	0.057513 	1391 	0.056249
33.05 	0.064883 	1757 	0.062883
33.07 	0.059512 	2050 	0.058655
33.09 	0.063911 	2347 	0.063412
33.11 	0.061652 	2579 	0.060289
33.13 	0.065879 	2793 	0.064411
33.15 	0.069023 	2999 	0.068437
33.17 	0.064355 	3201 	0.062708
33.19 	0.055955 	3342 	0.055604
33.21 	0.057625 	3436 	0.056773
33.23 	0.061028 	3523 	0.060030
33.25 	0.058140 	3612 	0.056356
33.27 	0.063085 	3630 	0.061956
33.29 	0.059211 	3648 	0.058568
33.31 	0.058743 	3660 	0.058423
33.33 	0.054802 	3686 	0.053690
33.35 	0.056849 	3694 	0.056215
33.37 	0.062197 	3714 	0.061251
33.39 	0.068383 	3729 	0.067440
33.41 	0.054011 	3740 	0.052758
33.43 	0.061154 	3761 	0.059908
33.45 	0.060959 	3773 	0.060494
33.47 	0.057135 	3798 	0.056364
33.49 	0.058546 	3809 	0.057008
33.51 	0.055046 	3815 	0.054432
33.53 	0.055975 	3841 	0.055060
33.55 	0.061931 	3843 	0.061321
33.57 	0.060614 	3877 	0.059531
33.59 	0.060825 	3880 	0.059315
33.61 	0.059350 	3909 	0.057852
33.63 	0.058688 	3919 	0.057493
33.65 	0.056983 	3931 	0.056387
33.67 	0.060445 	3954 	0.058371
33.69 	0.072603 	3953 	0.071862
33.71 	0.055597 	3975 	0.054419
33.73 	0.060939 	4004 	0.060208
33.75 	0.071768 	3999 	0.070596
33.77 	0.053665 	4025 	0.052064
33.79 	0.055927 	4041 	0.055347
33.81 	0.060426 	4038 	0.059265
33.83 	0.060988 	4050 	0.060264
33.85 	0.062698 	4099 	0.060840
33.87 	0.061542 	4111 	0.060260
33.89 	0.054841 	4121 	0.054130
33.91 	0.057363 	4149 	0.056069
33.93 	0.064322 	4151 	0.062464
33.95 	0.062664 	4181 	0.061824
33.97 	0.060859 	4190 	0.059601
33.99 	0.065000 	4200 	0.064024
34.01 	0.056492 	4213 	0.055496
34.03 	0.052545 	4244 	0.051717
34.05 	0.065616 	4252 	0.063825
34.07 	0.057170 	4268 	0.056209
34.09 	0.060429 	4286 	0.059336
34.11 	0.053928 	4302 	0.053111
34.13 	0.067781 	4308 	0.066285
34.15 	0.053106 	4331 	0.052294
34.17 	0.058621 	4350 	0.057678
34.19 	0.057542 	4362 	0.055797
34.21 	0.063143 	4371 	0.062071
34.23 	0.053039 	4393 	0.052106
34.25 	0.054496 	4404 	0.053676
34.27 	0.059928 	4422 	0.059265
34.29 	0.068997 	4435 	0.068072
34.31 	0.058098 	4458 	0.057178
34.33 	0.056811 	4471 	0.056024
34.35 	0.057092 	4484 	0.055633
34.37 	0.058116 	4491 	0.057203
34.39 	0.058863 	4502 	0.058082
34.41 	0.052143 	4526 	0.051108
34.43 	0.060586 	4539 	0.059425
34.45 	0.058875 	4535 	0.057584
34.47 	0.059451 	4592 	0.058048
34.49 	0.051338 	4597 	0.050191
34.51 	0.064481 	4606 	0.063295
34.53 	0.058583 	4643 	0.058204
34.55 	0.063321 	4643 	0.061534
34.57 	0.056652 	4660 	0.055647
34.59 	0.063957 	4675 	0.062955
34.61 	0.054716 	4697 	0.053698
34.63 	0.058386 	4710 	0.057267
34.65 	0.064817 	4721 	0.064072
34.67 	0.059692 	4741 	0.057962
34.69 	0.052377 	4754 	0.051268
34.71 	0.060638 	4766 	0.059266
34.73 	0.057865 	4787 	0.056764
34.75 	0.060732 	4808 	0.059494
34.77 	0.065795 	4818 	0.064458
34.79 	0.062396 	4824 	0.061911
34.81 	0.065841 	4845 	0.064511
34.83 	0.061703 	4862 	0.060378
34.85 	0.064284 	4869 	0.063322
34.87 	0.063887 	4868 	0.062443
34.89 	0.063499 	4882 	0.062059
34.91 	0.060016 	4882 	0.058697
34.93 	0.062258 	4899 	0.061062
34.95 	0.058078 	4890 	0.056520
34.97 	0.058548 	4902 	0.057691
34.99 	0.062691 	4897 	0.060897
35.01 	0.059923 	4923 	0.058733
35.03 	0.057657 	4943 	0.056117
35.05 	0.059430 	4947 	0.058483
35.07 	0.060121 	4940 	0.059647
35.09 	0.058550 	4953 	0.058196
35.11 	0.057611 	4947 	0.056900
35.13 	0.060307 	4958 	0.059106
35.15 	0.068260 	4937 	0.067311
35.17 	0.059846 	4946 	0.059017
35.19 	0.063739 	4942 	0.062752
35.21 	0.054601 	4945 	0.054008
35.23 	0.054196 	4945 	0.053367
35.25 	0.063524 	4943 	0.062557
35.27 	0.062449 	4948 	0.061009
35.29 	0.056016 	4945 	0.054832
35.31 	0.059396 	4933 	0.058446
35.33 	0.064536 	4943 	0.063114
35.35 	0.063537 	4942 	0.061759
35.37 	0.056894 	4939 	0.055945
35.39 	0.061072 	4945 	0.060006
35.41 	0.052578 	4926 	0.051627
35.43 	0.061220 	4933 	0.060270
35.45 	0.063399 	4937 	0.062450
35.47 	0.057392 	4931 	0.056323
35.49 	0.062525 	4910 	0.061571
35.51 	0.060495 	4926 	0.059425
35.53 	0.058598 	4949 	0.057395
35.55 	0.060263 	4945 	0.059296
35.57 	0.063045 	4933 	0.062095
35.59 	0.058847 	4945 	0.057900
35.61 	0.054634 	4942 	0.053448
35.63 	0.058669 	4943 	0.057839
35.65 	0.060263 	4945 	0.059078
35.67 	0.059692 	4942 	0.058152
35.69 	0.059038 	4946 	0.057597
35.71 	0.062184 	4937 	0.060997
35.73 	0.060981 	4936 	0.060031
35.75 	0.057798 	4931 	0.056491
35.77 	0.060594 	4951 	0.059529
35.79 	0.063869 	4932 	0.062443
35.81 	0.060004 	4933 	0.059173
35.83 	0.061059 	4946 	0.060704
35.85 	0.053901 	4935 	0.053070
35.87 	0.060126 	4923 	0.058460
35.89 	0.062627 	4934 	0.061558
35.91 	0.065354 	4927 	0.064403
35.93 	0.056830 	4927 	0.055502
35.95 	0.061013 	4917 	0.060298
35.97 	0.061482 	4912 	0.060409
35.99 	0.053655 	4939 	0.053180
36.01 	0.055984 	4930 	0.055508
36.03 	0.064333 	4943 	0.062556
36.05 	0.057634 	4945 	0.056212
36.07 	0.060336 	4939 	0.059506
36.09 	0.063765 	4940 	0.063291
36.11 	0.060459 	4929 	0.059389
36.13 	0.064751 	4942 	0.063447
36.15 	0.059931 	4939 	0.058113
36.17 	0.056447 	4925 	0.055376
36.19 	0.059919 	4940 	0.059445
36.21 	0.057415 	4929 	0.056227
36.23 	0.054509 	4935 	0.053302
36.25 	0.064359 	4941 	0.063055
36.27 	0.061726 	4925 	0.060893
36.29 	0.054756 	4931 	0.053805
36.31 	0.059456 	4928 	0.058862
36.33 	0.060409 	4933 	0.059578
36.35 	0.057618 	4929 	0.057024
36.37 	0.056673 	4923 	0.055959
36.39 	0.059338 	4921 	0.057671
36.41 	0.057394 	4896 	0.056796
36.43 	0.061891 	4928 	0.061297
36.45 	0.062272 	4930 	0.061064
36.47 	0.060373 	4936 	0.059305
36.49 	0.058074 	4942 	0.057718
36.51 	0.058382 	4933 	0.057789
36.53 	0.059073 	4943 	0.058125
36.55 	0.060889 	4927 	0.059700
36.57 	0.057965 	4934 	0.056877
36.59 	0.060944 	4939 	0.059876
36.61 	0.060637 	4931 	0.059686
36.63 	0.053742 	4931 	0.052791
36.65 	0.057380 	4932 	0.056430
36.67 	0.056389 	4930 	0.055677
36.69 	0.056807 	4929 	0.056212
36.71 	0.055477 	4921 	0.055000
36.73 	0.061726 	4925 	0.060279
36.75 	0.051982 	4944 	0.051015
36.77 	0.056312 	4919 	0.055240
36.79 	0.057712 	4921 	0.056879
36.81 	0.052482 	4916 	0.052005
36.83 	0.057986 	4915 	0.057151
36.85 	0.055941 	4898 	0.055343
36.87 	0.056432 	4944 	0.055603
36.89 	0.057771 	4916 	0.056559
36.91 	0.057276 	4941 	0.056565
36.93 	0.056795 	4930 	0.055963
36.95 	0.056152 	4933 	0.055084
36.97 	0.058573 	4934 	0.057742
36.99 	0.058561 	4935 	0.058443
37.01 	0.058180 	4933 	0.056379
37.03 	0.053209 	4924 	0.052138
37.05 	0.061904 	4927 	0.060834
37.07 	0.056940 	4935 	0.055635
37.09 	0.053774 	4928 	0.053061
37.11 	0.057548 	4935 	0.056480
37.13 	0.055849 	4924 	0.054421
37.15 	0.058260 	4909 	0.056948
37.17 	0.052898 	4934 	0.052186
37.19 	0.054822 	4925 	0.053851
37.21 	0.057149 	4917 	0.056315
37.23 	0.063237 	4918 	0.062522
37.25 	0.057218 	4911 	0.056384
37.27 	0.053331 	4894 	0.052114
37.29 	0.052535 	4930 	0.051823
37.31 	0.053495 	4935 	0.052764
37.33 	0.058250 	4927 	0.057418
37.35 	0.057513 	4938 	0.056564
37.37 	0.054394 	4927 	0.053562
37.39 	0.054147 	4931 	0.053553
37.41 	0.052728 	4931 	0.052490
37.43 	0.055353 	4932 	0.054878
37.45 	0.050772 	4924 	0.049820
37.47 	0.053561 	4929 	0.053204
37.49 	0.052610 	4923 	0.052134
37.51 	0.054531 	4933 	0.053224
37.53 	0.052856 	4919 	0.051904
37.55 	0.054564 	4930 	0.054089
37.57 	0.054213 	4925 	0.053480
37.59 	0.053306 	4915 	0.052472
37.61 	0.055262 	4922 	0.053834
37.63 	0.052450 	4919 	0.051854
37.65 	0.051647 	4918 	0.050694
37.67 	0.056077 	4904 	0.055340
37.69 	0.058595 	4898 	0.057997
37.71 	0.054981 	4929 	0.053792
37.73 	0.055386 	4929 	0.053960
37.75 	0.053441 	4940 	0.053323
37.77 	0.050203 	4920 	0.049727
37.79 	0.049493 	4930 	0.048760
37.81 	0.052909 	4933 	0.052553
37.83 	0.051423 	4920 	0.050470
37.85 	0.058513 	4922 	0.057422
37.87 	0.052642 	4939 	0.051693
37.89 	0.053604 	4925 	0.052415
37.91 	0.057201 	4930 	0.055894
37.93 	0.055092 	4919 	0.054378
37.95 	0.047551 	4921 	0.046837
37.97 	0.055184 	4929 	0.054352
37.99 	0.049471 	4912 	0.048755
38.01 	0.053571 	4928 	0.053096
38.03 	0.050927 	4909 	0.050211
38.05 	0.051371 	4925 	0.050538
38.07 	0.055612 	4909 	0.055015
38.09 	0.049610 	4878 	0.049010
38.11 	0.049848 	4935 	0.049492
38.13 	0.057930 	4937 	0.056487
38.15 	0.050630 	4918 	0.049916
38.17 	0.053144 	4930 	0.052193
38.19 	0.052333 	4930 	0.051739
38.21 	0.049766 	4923 	0.048933
38.23 	0.050830 	4938 	0.050119
38.25 	0.055725 	4917 	0.055010
38.27 	0.058621 	4930 	0.058502
38.29 	0.050569 	4924 	0.050212
38.31 	0.059062 	4927 	0.058349
38.33 	0.060723 	4924 	0.059771
38.35 	0.054789 	4928 	0.053957
38.37 	0.061129 	4924 	0.059702
38.39 	0.058871 	4909 	0.058155
38.41 	0.056470 	4923 	0.055518
38.43 	0.062653 	4916 	0.060965
38.45 	0.060187 	4918 	0.058758
38.47 	0.063175 	4907 	0.061007
38.49 	0.062743 	4877 	0.061422
38.51 	0.060219 	4932 	0.058912
38.53 	0.061067 	4929 	0.060354
38.55 	0.061386 	4936 	0.060318
38.57 	0.062157 	4923 	0.061324
38.59 	0.053818 	4924 	0.052609
38.61 	0.056726 	4936 	0.055895
38.63 	0.065597 	4924 	0.064645
38.65 	0.057137 	4918 	0.056661
38.67 	0.059550 	4937 	0.058364
38.69 	0.061967 	4922 	0.060757
38.71 	0.056458 	4924 	0.055506
38.73 	0.057950 	4918 	0.057117
38.75 	0.055003 	4927 	0.053814
38.77 	0.054641 	4923 	0.053571
38.79 	0.048439 	4934 	0.048202
38.81 	0.053135 	4912 	0.052777
38.83 	0.055702 	4919 	0.055226
38.85 	0.054153 	4912 	0.053438
38.87 	0.054775 	4911 	0.053582
38.89 	0.053911 	4897 	0.053432
38.91 	0.052213 	4903 	0.051377
38.93 	0.051033 	4938 	0.050558
38.95 	0.047377 	4918 	0.046781
38.97 	0.049077 	4931 	0.048483
38.99 	0.049220 	4937 	0.048746
39.01 	0.050427 	4918 	0.048879
39.03 	0.043778 	4934 	0.043303
39.05 	0.048528 	4925 	0.047933
39.07 	0.052803 	4924 	0.051970
39.09 	0.046516 	4923 	0.046159
39.11 	0.049686 	4931 	0.048973
39.13 	0.048548 	4923 	0.047834
39.15 	0.053713 	4915 	0.052998
39.17 	0.051651 	4937 	0.050682
39.19 	0.049217 	4917 	0.048740
39.21 	0.049898 	4910 	0.049421
39.23 	0.047513 	4925 	0.047037
39.25 	0.044494 	4922 	0.043780
39.27 	0.048676 	4910 	0.048199
39.29 	0.044481 	4901 	0.044003
39.31 	0.050164 	4884 	0.049204
39.33 	0.049077 	4931 	0.048483
39.35 	0.046606 	4935 	0.046131
39.37 	0.047880 	4929 	0.046810
39.39 	0.051532 	4929 	0.050938
39.41 	0.049077 	4931 	0.048008
39.43 	0.047030 	4933 	0.046318
39.45 	0.049543 	4925 	0.048829
39.47 	0.047735 	4923 	0.047497
39.49 	0.047638 	4933 	0.047045
39.51 	0.051381 	4924 	0.050548
39.53 	0.051595 	4923 	0.050167
39.55 	0.046757 	4919 	0.046043
39.57 	0.056152 	4933 	0.054332
39.59 	0.047231 	4912 	0.046874
39.61 	0.047938 	4923 	0.046986
39.63 	0.047135 	4922 	0.045945
39.65 	0.049736 	4926 	0.048785
39.67 	0.050275 	4913 	0.049917
39.69 	0.044548 	4916 	0.044072
39.71 	0.050664 	4895 	0.049228
39.73 	0.046047 	4908 	0.045212
39.75 	0.051948 	4928 	0.051235
39.77 	0.043566 	4935 	0.042854
39.79 	0.045879 	4926 	0.045166
39.81 	0.047493 	4927 	0.047256
39.83 	0.047021 	4934 	0.045952
39.85 	0.051147 	4927 	0.049958
39.87 	0.050152 	4925 	0.049795
39.89 	0.048034 	4934 	0.047559
39.91 	0.047948 	4922 	0.047591
39.93 	0.046182 	4937 	0.045707
39.95 	0.047813 	4915 	0.047098
39.97 	0.046672 	4928 	0.045602
39.99 	0.048459 	4932 	0.047984
40.01 	0.045344 	4918 	0.044748
40.03 	0.045860 	4928 	0.045266
40.05 	0.045149 	4917 	0.044554
40.07 	0.046516 	4923 	0.045921
40.09 	0.046786 	4916 	0.046309
40.11 	0.049024 	4916 	0.048408
40.13 	0.045139 	4896 	0.044900
40.15 	0.046815 	4913 	0.045980
40.17 	0.045860 	4928 	0.045504
40.19 	0.052343 	4929 	0.051987
40.21 	0.044985 	4935 	0.044510
40.23 	0.047242 	4932 	0.046886
40.25 	0.049797 	4920 	0.049201
40.27 	0.049220 	4937 	0.048864
40.29 	0.053988 	4927 	0.052562
40.31 	0.044948 	4939 	0.044355
40.33 	0.049270 	4932 	0.048557
40.35 	0.048384 	4919 	0.047431
40.37 	0.043822 	4929 	0.043466
40.39 	0.051105 	4931 	0.050630
40.41 	0.047310 	4925 	0.046953
40.43 	0.045916 	4922 	0.045440
40.45 	0.044192 	4933 	0.044073
40.47 	0.043310 	4918 	0.042596
40.49 	0.044864 	4926 	0.044150
40.51 	0.047948 	4922 	0.047234
40.53 	0.053092 	4916 	0.052377
40.55 	0.047474 	4908 	0.046877
40.57 	0.046421 	4890 	0.045942
40.59 	0.042536 	4937 	0.041705
40.61 	0.052280 	4935 	0.051686
40.63 	0.047262 	4930 	0.046668
40.65 	0.045979 	4937 	0.044655
40.67 	0.048054 	4932 	0.047578
40.69 	0.044967 	4937 	0.044136
40.71 	0.045012 	4932 	0.044300
40.73 	0.045067 	4926 	0.044353
40.75 	0.043399 	4931 	0.042567
40.77 	0.047378 	4939 	0.046429
40.79 	0.045898 	4924 	0.045422
40.81 	0.043513 	4941 	0.042783
40.83 	0.048498 	4928 	0.047647
40.85 	0.048132 	4924 	0.047656
40.87 	0.044034 	4928 	0.043440
40.89 	0.046035 	4931 	0.045422
40.91 	0.047735 	4923 	0.047002
40.93 	0.046210 	4934 	0.045498
40.95 	0.050071 	4913 	0.049714
40.97 	0.047319 	4924 	0.046605
40.99 	0.045491 	4924 	0.044897
41.01 	0.047028 	4912 	0.046670
41.03 	0.051580 	4905 	0.050625
41.05 	0.046799 	4936 	0.046324
41.07 	0.047667 	4930 	0.047311
41.09 	0.046568 	4939 	0.046212
41.11 	0.048227 	4935 	0.047396
41.13 	0.047204 	4936 	0.046848
41.15 	0.049180 	4941 	0.048588
41.17 	0.046615 	4934 	0.046140
41.19 	0.043611 	4930 	0.043016
41.21 	0.042941 	4937 	0.041873
41.23 	0.049808 	4939 	0.049333
41.25 	0.044598 	4933 	0.043885
41.27 	0.046644 	4931 	0.045436
41.29 	0.046469 	4928 	0.045756
41.31 	0.046422 	4933 	0.045947
41.33 	0.041928 	4937 	0.041098
41.35 	0.049008 	4938 	0.048059
41.37 	0.043461 	4924 	0.042985
41.39 	0.044192 	4933 	0.043598
41.41 	0.044458 	4926 	0.044101
41.43 	0.046054 	4929 	0.045222
41.45 	0.045584 	4914 	0.044492
41.47 	0.045676 	4926 	0.044586
41.49 	0.043336 	4892 	0.042857
41.51 	0.044534 	4940 	0.043685
41.53 	0.049757 	4944 	0.048691
41.55 	0.045593 	4935 	0.045118
41.57 	0.045537 	4941 	0.044945
41.59 	0.047233 	4933 	0.046639
41.61 	0.042399 	4953 	0.041807
41.63 	0.037870 	4938 	0.037514
41.65 	0.044837 	4929 	0.044480
41.67 	0.044737 	4940 	0.044263
41.69 	0.045886 	4947 	0.045650
41.71 	0.043575 	4934 	0.043456
41.73 	0.041329 	4936 	0.040973
41.75 	0.047474 	4929 	0.046880
41.77 	0.042097 	4941 	0.041010
41.79 	0.041464 	4944 	0.040753
41.81 	0.050243 	4936 	0.049531
41.83 	0.044846 	4928 	0.044133
41.85 	0.044948 	4939 	0.044355
41.87 	0.042958 	4935 	0.041771
41.89 	0.042570 	4933 	0.041620
41.91 	0.043355 	4936 	0.042643
41.93 	0.045215 	4932 	0.044621
41.95 	0.043805 	4931 	0.043329
41.97 	0.043956 	4914 	0.043479
41.99 	0.045464 	4905 	0.044986
42.01 	0.044112 	4942 	0.043282
42.03 	0.041304 	4939 	0.040355
42.05 	0.039782 	4952 	0.039309
42.07 	0.040916 	4937 	0.040303
42.09 	0.042037 	4948 	0.041919
42.11 	0.041860 	4945 	0.041505
42.13 	0.043883 	4945 	0.043527
42.15 	0.044147 	4938 	0.043792
42.17 	0.038634 	4918 	0.038157
42.19 	0.040750 	4908 	0.039676
42.21 	0.044277 	4901 	0.043679
42.23 	0.040270 	4892 	0.039412
42.25 	0.043772 	4889 	0.043292
42.27 	0.042470 	4874 	0.042230
42.29 	0.043594 	4863 	0.042751
42.31 	0.044490 	4855 	0.044249
42.33 	0.045925 	4834 	0.045561
42.35 	0.042373 	4838 	0.042131
42.37 	0.041201 	4830 	0.040473
42.39 	0.042048 	4804 	0.041195
42.41 	0.045379 	4804 	0.044769
42.43 	0.046119 	4792 	0.045630
42.45 	0.046901 	4776 	0.046288
42.47 	0.047849 	4765 	0.047357
42.49 	0.047429 	4765 	0.046569
42.51 	0.043643 	4743 	0.043149
42.53 	0.041667 	4728 	0.041295
42.55 	0.040994 	4708 	0.040621
42.57 	0.047992 	4730 	0.047496
42.59 	0.042927 	4729 	0.042431
42.61 	0.047791 	4708 	0.047667
42.63 	0.041198 	4709 	0.040576
42.65 	0.037353 	4685 	0.036728
42.67 	0.043339 	4684 	0.043214
42.69 	0.041720 	4674 	0.041094
42.71 	0.044606 	4663 	0.044355
42.73 	0.046767 	4640 	0.046010
42.75 	0.045051 	4617 	0.044924
42.77 	0.035217 	4600 	0.034708
42.79 	0.046486 	4582 	0.045719
42.81 	0.042744 	4562 	0.042102
42.83 	0.045194 	4536 	0.044290
42.85 	0.039532 	4528 	0.039014
42.87 	0.039787 	4499 	0.039266
42.89 	0.044420 	4480 	0.043897
42.91 	0.039722 	4456 	0.039196
42.93 	0.039136 	4446 	0.038609
42.95 	0.042799 	4416 	0.042136
42.97 	0.036810 	4401 	0.036411
42.99 	0.046522 	4385 	0.045454
43.01 	0.041256 	4363 	0.040316
43.03 	0.041311 	4333 	0.040905
43.05 	0.043237 	4325 	0.042695
43.07 	0.050745 	4296 	0.050041
43.09 	0.042260 	4283 	0.041713
43.11 	0.042773 	4255 	0.042360
43.13 	0.043191 	4237 	0.042223
43.15 	0.039230 	4206 	0.038812
43.17 	0.040680 	4179 	0.040539
43.19 	0.034573 	4194 	0.034154
43.21 	0.038111 	4172 	0.037690
43.23 	0.043332 	4154 	0.042768
43.25 	0.039420 	4135 	0.039136
43.27 	0.042387 	4105 	0.041674
43.29 	0.040976 	4100 	0.040381
43.31 	0.038245 	4079 	0.037814
43.33 	0.039990 	4051 	0.039556
43.35 	0.042411 	4032 	0.042120
43.37 	0.044583 	4015 	0.043999
43.39 	0.044728 	4002 	0.044581
43.41 	0.042296 	3972 	0.042149
43.43 	0.043687 	3960 	0.043243
43.45 	0.040661 	3935 	0.040065
43.47 	0.043611 	3921 	0.043313
43.49 	0.044137 	3897 	0.043060
43.51 	0.043332 	3877 	0.042879
43.53 	0.042454 	3863 	0.041544
43.55 	0.041835 	2964 	0.040847
43.57 	0.040214 	2238 	0.039953
43.59 	0.040664 	1746 	0.039267
43.61 	0.039970 	1351 	0.038165
43.63 	0.042957 	1001 	0.042372
43.65 	0.049491 	687 	0.049491
43.67 	0.061753 	502 	0.059419
43.69 	0.046322 	367 	0.046322
43.71 	0.041841 	239 	0.039390
43.73 	0.025000 	120 	0.025000
43.75 	0.000000 	16 	0.000000