File: Example_Data/25SC_s1_0035.000.dat
#F C:\frames\spec\25SC_s1_0035.000
#C title =s:35 frm:0 25SC_s1
#C wavelength =0.15406

#S 1  fr_average C:\frames\spec\25SC_s1_0035.000 C:\win32app\speccom\mask.axs chi 0 180 0 360 0.02
#C 2 theta =0.000000 to 180 deg
#C   q   =0.000000 to 81.568 nm^-1
#C  chi  =0.000000 to 360 deg
#C collumns:
#C  1 position (2theta or chi in degrees)
#C  2 average intensity (sum of all counts in the region divided with number of pixels)
#C  3 Number of pixels in region)
#C  4 error (sum of sqrt(intensity) for all pixels divided by number)
#N 4
#L TTh  Int  N_pix  Err
32.99 	0.049180 	61 	0.049180
33.01 	0.044674 	873 	0.043332
33.03 	0.064702 	1391 	0.063017
33.05 	0.052362 	1757 	0.051028
33.07 	0.060976 	2050 	0.058975
33.09 	0.061355 	2347 	0.060316
33.11 	0.067080 	2579 	0.065717
33.13 	0.063015 	2793 	0.061932
33.15 	0.063688 	2999 	0.062711
33.17 	0.057794 	3201 	0.056147
33.19 	0.057451 	3342 	0.057100
33.21 	0.054133 	3436 	0.053451
33.23 	0.052796 	3523 	0.052131
33.25 	0.065891 	3612 	0.064918
33.27 	0.056474 	3630 	0.055183
33.29 	0.057292 	3648 	0.056168
33.31 	0.051366 	3660 	0.050566
33.33 	0.062398 	3686 	0.061419
33.35 	0.063617 	3694 	0.062507
33.37 	0.060043 	3714 	0.057967
33.39 	0.054438 	3729 	0.053967
33.41 	0.057754 	3740 	0.057284
33.43 	0.055836 	3761 	0.054902
33.45 	0.058574 	3773 	0.057953
33.47 	0.061611 	3798 	0.060352
33.49 	0.060121 	3809 	0.058994
33.51 	0.064220 	3815 	0.062838
33.53 	0.068211 	3841 	0.067601
33.55 	0.060370 	3843 	0.059150
33.57 	0.054166 	3877 	0.053108
33.59 	0.059536 	3880 	0.058479
33.61 	0.064467 	3909 	0.063418
33.63 	0.057668 	3919 	0.057070
33.65 	0.062071 	3931 	0.061326
33.67 	0.051593 	3954 	0.051445
33.69 	0.056413 	3953 	0.055968
33.71 	0.061132 	3975 	0.060395
33.73 	0.066933 	4004 	0.065763
33.75 	0.065766 	3999 	0.064155
33.77 	0.053665 	4025 	0.052937
33.79 	0.060381 	4041 	0.058352
33.81 	0.062159 	4038 	0.061434
33.83 	0.060000 	4050 	0.058819
33.85 	0.057087 	4099 	0.055944
33.87 	0.053272 	4111 	0.052844
33.89 	0.065761 	4121 	0.064766
33.91 	0.056640 	4149 	0.055511
33.93 	0.056613 	4151 	0.056048
33.95 	0.054532 	4181 	0.053552
33.97 	0.059427 	4190 	0.058029
33.99 	0.056190 	4200 	0.055331
34.01 	0.057916 	4213 	0.057337
34.03 	0.064562 	4244 	0.062883
34.05 	0.057620 	4252 	0.057207
34.07 	0.063027 	4268 	0.062204
34.09 	0.062296 	4286 	0.061180
34.11 	0.051604 	4302 	0.050378
34.13 	0.055942 	4308 	0.055263
34.15 	0.056569 	4331 	0.055735
34.17 	0.061839 	4350 	0.060896
34.19 	0.057772 	4362 	0.055892
34.21 	0.060398 	4371 	0.059594
34.23 	0.058730 	4393 	0.058196
34.25 	0.060627 	4404 	0.059696
34.27 	0.059701 	4422 	0.058774
34.29 	0.059076 	4435 	0.057887
34.31 	0.051817 	4458 	0.051423
34.33 	0.059271 	4471 	0.057961
34.35 	0.048617 	4484 	0.047572
34.37 	0.052550 	4491 	0.052289
34.39 	0.053088 	4502 	0.052047
34.41 	0.054132 	4526 	0.053096
34.43 	0.060366 	4539 	0.058430
34.45 	0.055568 	4535 	0.054922
34.47 	0.058362 	4592 	0.057725
34.49 	0.058299 	4597 	0.057279
34.51 	0.057099 	4606 	0.055934
34.53 	0.058583 	4643 	0.057700
34.55 	0.051045 	4643 	0.050540
34.57 	0.053004 	4660 	0.051873
34.59 	0.053048 	4675 	0.051920
34.61 	0.055142 	4697 	0.054019
34.63 	0.056476 	4710 	0.055460
34.65 	0.064181 	4721 	0.062424
34.67 	0.057794 	4741 	0.055940
34.69 	0.062474 	4754 	0.061591
34.71 	0.057910 	4766 	0.057173
34.73 	0.058283 	4787 	0.057304
34.75 	0.058860 	4808 	0.058251
34.77 	0.053757 	4818 	0.053027
34.79 	0.056592 	4824 	0.055985
34.81 	0.059030 	4845 	0.058546
34.83 	0.051419 	4862 	0.050556
34.85 	0.056480 	4869 	0.055156
34.87 	0.048891 	4868 	0.048289
34.89 	0.052438 	4882 	0.051598
34.91 	0.053462 	4882 	0.052982
34.93 	0.056746 	4899 	0.056148
34.95 	0.062577 	4890 	0.060520
34.97 	0.054876 	4902 	0.054039
34.99 	0.055136 	4897 	0.054298
35.01 	0.063173 	4923 	0.062102
35.03 	0.055027 	4943 	0.053842
35.05 	0.060643 	4947 	0.060051
35.07 	0.057895 	4940 	0.057183
35.09 	0.054109 	4953 	0.053399
35.11 	0.057206 	4947 	0.056614
35.13 	0.054457 	4958 	0.053867
35.15 	0.057930 	4937 	0.056981
35.17 	0.054590 	4946 	0.053168
35.19 	0.053420 	4942 	0.053064
35.21 	0.060667 	4945 	0.059483
35.23 	0.056623 	4945 	0.055201
35.25 	0.055634 	4943 	0.054923
35.27 	0.058205 	4948 	0.057377
35.29 	0.058241 	4945 	0.057648
35.31 	0.052504 	4933 	0.052029
35.33 	0.057860 	4943 	0.056675
35.35 	0.054431 	4942 	0.053957
35.37 	0.052237 	4939 	0.051288
35.39 	0.054398 	4945 	0.053076
35.41 	0.051969 	4926 	0.051375
35.43 	0.057369 	4933 	0.056300
35.45 	0.053069 	4937 	0.052357
35.47 	0.060637 	4931 	0.059568
35.49 	0.061711 	4910 	0.060518
35.51 	0.055826 	4926 	0.054637
35.53 	0.052536 	4949 	0.051944
35.55 	0.058847 	4945 	0.058255
35.57 	0.056355 	4933 	0.055405
35.59 	0.059454 	4945 	0.057322
35.61 	0.056860 	4942 	0.055319
35.63 	0.064940 	4943 	0.063163
35.65 	0.052174 	4945 	0.051582
35.67 	0.061311 	4942 	0.060126
35.69 	0.058229 	4946 	0.057637
35.71 	0.059348 	4937 	0.058142
35.73 	0.060981 	4936 	0.059794
35.75 	0.047049 	4931 	0.046455
35.77 	0.058574 	4951 	0.057746
35.79 	0.055556 	4932 	0.054843
35.81 	0.052909 	4933 	0.052078
35.83 	0.052770 	4946 	0.051822
35.85 	0.050051 	4935 	0.048864
35.87 	0.058095 	4923 	0.057123
35.89 	0.058979 	4934 	0.058266
35.91 	0.059468 	4927 	0.058755
35.93 	0.058859 	4927 	0.057532
35.95 	0.056132 	4917 	0.055517
35.97 	0.058225 	4912 	0.057867
35.99 	0.051427 	4939 	0.050241
36.01 	0.059229 	4930 	0.058140
36.03 	0.058871 	4943 	0.057667
36.05 	0.059858 	4945 	0.058318
36.07 	0.060944 	4939 	0.059995
36.09 	0.052834 	4940 	0.051767
36.11 	0.055995 	4929 	0.055163
36.13 	0.058276 	4942 	0.057328
36.15 	0.066613 	4939 	0.065901
36.17 	0.054619 	4925 	0.054124
36.19 	0.059514 	4940 	0.058447
36.21 	0.059647 	4929 	0.058934
36.23 	0.060993 	4935 	0.059806
36.25 	0.056062 	4941 	0.054520
36.27 	0.062335 	4925 	0.061502
36.29 	0.052930 	4931 	0.052099
36.31 	0.053369 	4928 	0.052299
36.33 	0.061220 	4933 	0.059914
36.35 	0.054169 	4929 	0.053100
36.37 	0.057892 	4923 	0.057059
36.39 	0.055883 	4921 	0.055288
36.41 	0.053105 	4896 	0.052387
36.43 	0.056818 	4928 	0.055867
36.45 	0.058418 	4930 	0.057705
36.47 	0.055511 	4936 	0.054275
36.49 	0.057871 	4942 	0.057279
36.51 	0.054531 	4933 	0.053462
36.53 	0.058264 	4943 	0.057316
36.55 	0.061701 	4927 	0.060512
36.57 	0.055938 	4934 	0.055107
36.59 	0.055882 	4939 	0.054696
36.61 	0.054756 	4931 	0.053686
36.63 	0.060434 	4931 	0.059721
36.65 	0.060624 	4932 	0.059199
36.67 	0.056389 	4930 	0.055201
36.69 	0.054778 	4929 	0.054421
36.71 	0.059338 	4921 	0.058623
36.73 	0.056650 	4925 	0.055679
36.75 	0.055623 	4944 	0.054912
36.77 	0.054483 	4919 	0.053887
36.79 	0.060557 	4921 	0.060081
36.81 	0.061635 	4916 	0.060682
36.83 	0.060020 	4915 	0.059424
36.85 	0.054104 	4898 	0.053745
36.87 	0.057241 	4944 	0.056155
36.89 	0.054109 	4916 	0.052560
36.91 	0.057276 	4941 	0.055972
36.93 	0.061866 	4930 	0.061153
36.95 	0.055950 	4933 	0.054406
36.97 	0.057762 	4934 	0.056318
36.99 	0.061601 	4935 	0.060394
37.01 	0.052504 	4933 	0.051554
37.03 	0.051381 	4924 	0.050410
37.05 	0.061092 	4927 	0.060141
37.07 	0.052685 	4935 	0.052091
37.09 	0.060471 	4928 	0.059163
37.11 	0.053901 	4935 	0.053545
37.13 	0.058489 	4924 	0.057656
37.15 	0.060094 	4909 	0.058900
37.17 	0.059181 	4934 	0.058706
37.19 	0.054213 	4925 	0.053500
37.21 	0.057352 	4917 	0.056756
37.23 	0.057340 	4918 	0.056249
37.25 	0.055793 	4911 	0.054958
37.27 	0.054352 	4894 	0.053375
37.29 	0.054361 	4930 	0.053054
37.31 	0.051672 	4935 	0.050960
37.33 	0.057642 	4927 	0.056928
37.35 	0.054475 	4938 	0.053764
37.37 	0.056627 	4927 	0.056151
37.39 	0.056378 	4931 	0.055903
37.41 	0.056784 	4931 	0.055596
37.43 	0.058597 	4932 	0.057172
37.45 	0.058286 	4924 	0.057453
37.47 	0.052749 	4929 	0.052274
37.49 	0.058095 	4923 	0.056667
37.51 	0.061423 	4933 	0.060236
37.53 	0.056516 	4919 	0.055801
37.55 	0.062677 	4930 	0.061252
37.57 	0.056650 	4925 	0.055798
37.59 	0.054323 	4915 	0.053966
37.61 	0.059122 	4922 	0.057932
37.63 	0.058345 	4919 	0.057869
37.65 	0.057137 	4918 	0.056541
37.67 	0.059339 	4904 	0.058503
37.69 	0.051858 	4898 	0.051380
37.71 	0.052343 	4929 	0.051373
37.73 	0.054575 	4929 	0.054100
37.75 	0.057692 	4940 	0.056981
37.77 	0.059959 	4920 	0.058650
37.79 	0.054970 	4930 	0.053663
37.81 	0.052301 	4933 	0.051470
37.83 	0.054268 	4920 	0.053316
37.85 	0.050386 	4922 	0.049672
37.87 	0.052237 	4939 	0.051644
37.89 	0.054213 	4925 	0.052905
37.91 	0.056187 	4930 	0.055474
37.93 	0.058142 	4919 	0.057308
37.95 	0.061166 	4921 	0.060333
37.97 	0.054981 	4929 	0.054387
37.99 	0.054764 	4912 	0.053929
38.01 	0.059050 	4928 	0.058099
38.03 	0.053982 	4909 	0.053505
38.05 	0.052589 	4925 	0.051875
38.07 	0.052557 	4909 	0.051960
38.09 	0.054326 	4878 	0.053845
38.11 	0.056738 	4935 	0.055432
38.13 	0.056107 	4937 	0.055395
38.15 	0.064864 	4918 	0.063434
38.17 	0.059432 	4930 	0.058600
38.19 	0.062880 	4930 	0.061930
38.21 	0.064189 	4923 	0.063098
38.23 	0.071284 	4938 	0.068991
38.25 	0.063860 	4917 	0.063007
38.27 	0.068560 	4930 	0.067728
38.29 	0.068440 	4924 	0.067489
38.31 	0.069819 	4927 	0.068155
38.33 	0.069456 	4924 	0.068028
38.35 	0.072240 	4928 	0.070695
38.37 	0.067425 	4924 	0.066335
38.39 	0.076798 	4909 	0.075127
38.41 	0.081251 	4923 	0.078822
38.43 	0.075468 	4916 	0.073680
38.45 	0.076454 	4918 	0.074171
38.47 	0.077644 	4907 	0.075854
38.49 	0.082223 	4877 	0.080181
38.51 	0.091038 	4932 	0.088900
38.53 	0.080341 	4929 	0.079509
38.55 	0.082455 	4936 	0.080300
38.57 	0.078611 	4923 	0.076945
38.59 	0.081032 	4924 	0.079247
38.61 	0.074352 	4936 	0.073521
38.63 	0.076361 	4924 	0.075409
38.65 	0.075234 	4918 	0.074400
38.67 	0.064209 	4937 	0.063378
38.69 	0.070703 	4922 	0.069394
38.71 	0.068846 	4924 	0.067657
38.73 	0.068930 	4918 	0.067858
38.75 	0.067384 	4927 	0.066552
38.77 	0.070485 	4923 	0.069058
38.79 	0.061816 	4934 	0.060629
38.81 	0.059446 	4912 	0.058969
38.83 	0.065257 	4919 	0.063828
38.85 	0.063314 	4912 	0.061883
38.87 	0.053757 	4911 	0.053399
38.89 	0.050235 	4897 	0.049158
38.91 	0.054252 	4903 	0.053416
38.93 	0.057311 	4938 	0.056243
38.95 	0.053680 	4918 	0.052847
38.97 	0.048469 	4931 	0.047281
38.99 	0.047802 	4937 	0.047090
39.01 	0.050224 	4918 	0.049509
39.03 	0.049250 	4934 	0.048656
39.05 	0.054010 	4925 	0.053297
39.07 	0.050366 	4924 	0.049652
39.09 	0.050782 	4923 	0.049711
39.11 	0.043805 	4931 	0.043448
39.13 	0.044485 	4923 	0.044009
39.15 	0.050661 	4915 	0.050185
39.17 	0.043144 	4937 	0.042550
39.19 	0.044946 	4917 	0.044231
39.21 	0.043381 	4910 	0.042784
39.23 	0.044061 	4925 	0.043704
39.25 	0.046526 	4922 	0.046169
39.27 	0.048880 	4910 	0.047806
39.29 	0.044889 	4901 	0.044291
39.31 	0.045455 	4884 	0.044475
39.33 	0.049888 	4931 	0.049037
39.35 	0.045795 	4935 	0.044964
39.37 	0.046460 	4929 	0.045509
39.39 	0.043417 	4929 	0.042941
39.41 	0.047455 	4931 	0.046218
39.43 	0.048855 	4933 	0.047905
39.45 	0.049137 	4925 	0.048304
39.47 	0.046110 	4923 	0.045634
39.49 	0.053720 	4933 	0.053482
39.51 	0.046507 	4924 	0.045912
39.53 	0.046719 	4923 	0.045530
39.55 	0.045944 	4919 	0.045111
39.57 	0.048652 	4933 	0.047346
39.59 	0.038477 	4912 	0.038119
39.61 	0.046923 	4923 	0.046804
39.63 	0.044291 	4922 	0.043696
39.65 	0.042225 	4926 	0.041749
39.67 	0.045797 	4913 	0.045201
39.69 	0.042311 	4916 	0.041596
39.71 	0.043309 	4895 	0.042711
39.73 	0.045029 	4908 	0.043676
39.75 	0.045455 	4928 	0.044722
39.77 	0.044580 	4935 	0.043867
39.79 	0.042225 	4926 	0.042106
39.81 	0.048102 	4927 	0.047508
39.83 	0.047831 	4934 	0.047119
39.85 	0.046885 	4927 	0.046409
39.87 	0.044670 	4925 	0.044075
39.89 	0.040738 	4934 	0.040025
39.91 	0.049167 	4922 	0.048453
39.93 	0.046587 	4937 	0.045994
39.95 	0.043744 	4915 	0.043386
39.97 	0.046875 	4928 	0.046162
39.99 	0.048256 	4932 	0.047781
40.01 	0.040870 	4918 	0.040751
40.03 	0.043019 	4928 	0.042663
40.05 	0.042912 	4917 	0.042317
40.07 	0.043266 	4923 	0.042671
40.09 	0.042718 	4916 	0.042122
40.11 	0.050448 	4916 	0.050209
40.13 	0.045547 	4896 	0.044690
40.15 	0.040301 	4913 	0.039467
40.17 	0.044643 	4928 	0.043811
40.19 	0.042402 	4929 	0.041927
40.21 	0.044580 	4935 	0.043749
40.23 	0.043187 	4932 	0.042475
40.25 	0.047358 	4920 	0.046762
40.27 	0.040713 	4937 	0.040120
40.29 	0.044246 	4927 	0.043751
40.31 	0.048188 	4939 	0.047694
40.33 	0.040957 	4932 	0.040601
40.35 	0.045538 	4919 	0.045180
40.37 	0.038750 	4929 	0.038037
40.39 	0.045832 	4931 	0.044763
40.41 	0.039594 	4925 	0.038642
40.43 	0.044088 	4922 	0.043731
40.45 	0.042165 	4933 	0.041809
40.47 	0.039447 	4918 	0.039328
40.49 	0.043240 	4926 	0.042526
40.51 	0.043275 	4922 	0.042918
40.53 	0.044955 	4916 	0.044479
40.55 	0.039324 	4908 	0.038846
40.57 	0.041513 	4890 	0.041274
40.59 	0.036257 	4937 	0.035664
40.61 	0.038703 	4935 	0.038347
40.63 	0.041988 	4930 	0.041631
40.65 	0.037067 	4937 	0.036592
40.67 	0.039132 	4932 	0.038776
40.69 	0.044359 	4937 	0.043884
40.71 	0.043390 	4932 	0.042677
40.73 	0.043849 	4926 	0.043135
40.75 	0.041371 	4931 	0.041015
40.77 	0.036850 	4939 	0.036375
40.79 	0.041633 	4924 	0.041514
40.81 	0.038251 	4941 	0.037540
40.83 	0.048093 	4928 	0.046904
40.85 	0.037977 	4924 	0.037501
40.87 	0.041396 	4928 	0.040564
40.89 	0.040560 	4931 	0.039847
40.91 	0.037376 	4923 	0.036900
40.93 	0.041751 	4934 	0.040801
40.95 	0.042337 	4913 	0.041383
40.97 	0.042851 	4924 	0.042613
40.99 	0.042039 	4924 	0.041444
41.01 	0.048249 	4912 	0.047772
41.03 	0.044444 	4905 	0.043967
41.05 	0.039303 	4936 	0.038947
41.07 	0.043408 	4930 	0.043170
41.09 	0.041506 	4939 	0.041388
41.11 	0.041135 	4935 	0.040897
41.13 	0.041329 	4936 	0.040597
41.15 	0.044323 	4941 	0.043849
41.17 	0.040940 	4934 	0.040703
41.19 	0.045030 	4930 	0.044436
41.21 	0.040713 	4937 	0.039882
41.23 	0.044746 	4939 	0.044271
41.25 	0.041557 	4933 	0.041082
41.27 	0.040763 	4931 	0.040406
41.29 	0.043831 	4928 	0.043356
41.31 	0.040746 	4933 	0.040509
41.33 	0.042941 	4937 	0.042466
41.35 	0.040300 	4938 	0.039825
41.37 	0.036759 	4924 	0.036283
41.39 	0.038516 	4933 	0.038160
41.41 	0.040601 	4926 	0.040244
41.43 	0.040779 	4929 	0.040660
41.45 	0.041921 	4914 	0.041067
41.47 	0.038571 	4926 	0.038333
41.49 	0.044767 	4892 	0.044149
41.51 	0.038866 	4940 	0.038273
41.53 	0.042880 	4944 	0.042525
41.55 	0.041743 	4935 	0.041149
41.57 	0.039668 	4941 	0.039431
41.59 	0.036084 	4933 	0.035846
41.61 	0.038966 	4953 	0.038611
41.63 	0.034832 	4938 	0.034357
41.65 	0.043011 	4929 	0.042654
41.67 	0.038462 	4940 	0.038106
41.69 	0.040631 	4947 	0.040275
41.71 	0.046007 	4934 	0.045651
41.73 	0.042139 	4936 	0.041783
41.75 	0.038953 	4929 	0.038597
41.77 	0.041085 	4941 	0.040729
41.79 	0.040858 	4944 	0.040502
41.81 	0.043152 	4936 	0.042203
41.83 	0.035308 	4928 	0.035190
41.85 	0.038469 	4939 	0.037995
41.87 	0.035866 	4935 	0.035273
41.89 	0.040949 	4933 	0.040711
41.91 	0.038493 	4936 	0.038255
41.93 	0.045620 	4932 	0.044908
41.95 	0.041371 	4931 	0.041133
41.97 	0.039072 	4914 	0.038714
41.99 	0.037717 	4905 	0.037000
42.01 	0.041279 	4942 	0.041042
42.03 	0.037255 	4939 	0.036543
42.05 	0.042811 	4952 	0.042456
42.07 	0.043346 	4937 	0.042753
42.09 	0.042239 	4948 	0.041628
42.11 	0.040243 	4945 	0.039887
42.13 	0.038423 	4945 	0.038067
42.15 	0.037667 	4938 	0.036955
42.17 	0.041277 	4918 	0.040562
42.19 	0.041972 	4908 	0.041256
42.21 	0.041624 	4901 	0.041266
42.23 	0.036795 	4892 	0.035957
42.25 	0.040908 	4889 	0.040189
42.27 	0.039188 	4874 	0.038827
42.29 	0.033313 	4863 	0.032951
42.31 	0.038105 	4855 	0.037622
42.33 	0.041994 	4834 	0.041388
42.35 	0.041959 	4838 	0.041717
42.37 	0.034576 	4830 	0.034212
42.39 	0.040175 	4804 	0.040175
42.41 	0.035803 	4804 	0.035560
42.43 	0.036102 	4792 	0.035613
42.45 	0.040410 	4776 	0.040288
42.47 	0.041343 	4765 	0.040851
42.49 	0.036097 	4765 	0.036097
42.51 	0.038583 	4743 	0.038336
42.53 	0.040186 	4728 	0.039938
42.55 	0.038870 	4708 	0.038248
42.57 	0.037844 	4730 	0.037100
42.59 	0.033834 	4729 	0.033586
42.61 	0.036321 	4708 	0.036197
42.63 	0.039286 	4709 	0.038913
42.65 	0.038420 	4685 	0.038170
42.67 	0.034586 	4684 	0.034461
42.69 	0.039795 	4674 	0.039147
42.71 	0.039245 	4663 	0.038240
42.73 	0.040086 	4640 	0.039581
42.75 	0.040069 	4617 	0.039689
42.77 	0.042391 	4600 	0.041882
42.79 	0.037538 	4582 	0.037410
42.81 	0.036168 	4562 	0.035377
42.83 	0.037919 	4536 	0.037531
42.85 	0.047261 	4528 	0.046873
42.87 	0.038898 	4499 	0.038507
42.89 	0.039509 	4480 	0.039247
42.91 	0.035682 	4456 	0.035682
42.93 	0.041386 	4446 	0.040595
42.95 	0.035779 	4416 	0.035116
42.97 	0.040218 	4401 	0.039553
42.99 	0.035804 	4385 	0.035537
43.01 	0.043777 	4363 	0.043106
43.03 	0.035310 	4333 	0.035310
43.05 	0.037919 	4325 	0.037242
43.07 	0.033985 	4296 	0.033849
43.09 	0.034555 	4283 	0.034418
43.11 	0.037133 	4255 	0.036307
43.13 	0.036819 	4237 	0.036127
43.15 	0.038992 	4206 	0.038435
43.17 	0.045705 	4179 	0.045004
43.19 	0.039819 	4194 	0.039260
43.21 	0.042186 	4172 	0.041063
43.23 	0.032258 	4154 	0.031835
43.25 	0.035067 	4135 	0.034618
43.27 	0.039708 	4105 	0.039280
43.29 	0.040244 	4100 	0.039958
43.31 	0.037754 	4079 	0.037467
43.33 	0.038262 	4051 	0.038262
43.35 	0.037202 	4032 	0.036767
43.37 	0.037858 	4015 	0.037858
43.39 	0.038981 	4002 	0.038249
43.41 	0.042296 	3972 	0.041559
43.43 	0.031566 	3960 	0.031418
43.45 	0.034816 	3935 	0.034667
43.47 	0.038001 	3921 	0.037254
43.49 	0.037721 	3897 	0.037270
43.51 	0.045396 	3877 	0.044943
43.53 	0.034429 	3863 	0.034126
43.55 	0.037449 	2964 	0.037252
43.57 	0.034853 	2238 	0.034329
43.59 	0.033792 	1746 	0.033792
43.61 	0.036269 	1351 	0.036269
43.63 	0.035964 	1001 	0.035379
43.65 	0.037846 	687 	0.036140
43.67 	0.021912 	502 	0.021912
43.69 	0.032698 	367 	0.032698
43.71 	0.046025 	239 	0.041123
43.73 	0.025000 	120 	0.025000
43.75 	0.062500 	16 	0.062500