File: Example_Data/25SC_s1_0046.000.dat
#F C:\frames\spec\25SC_s1_0046.000
#C title =s:46 frm:0 25SC_s1
#C wavelength =0.15406

#S 1  fr_average C:\frames\spec\25SC_s1_0046.000 C:\win32app\speccom\mask.axs chi 0 180 0 360 0.02
#C 2 theta =0.000000 to 180 deg
#C   q   =0.000000 to 81.568 nm^-1
#C  chi  =0.000000 to 360 deg
#C collumns:
#C  1 position (2theta or chi in degrees)
#C  2 average intensity (sum of all counts in the region divided with number of pixels)
#C  3 Number of pixels in region)
#C  4 error (sum of sqrt(intensity) for all pixels divided by number)
#N 4
#L TTh  Int  N_pix  Err
32.99 	0.000000 	61 	0.000000
33.01 	0.049255 	873 	0.047242
33.03 	0.063983 	1391 	0.062719
33.05 	0.066591 	1757 	0.065924
33.07 	0.067805 	2050 	0.066948
33.09 	0.058372 	2347 	0.057124
33.11 	0.065142 	2579 	0.063779
33.13 	0.060150 	2793 	0.059731
33.15 	0.057019 	2999 	0.056042
33.17 	0.061231 	3201 	0.059218
33.19 	0.054458 	3342 	0.053757
33.21 	0.065483 	3436 	0.064460
33.23 	0.055351 	3523 	0.054353
33.25 	0.058970 	3612 	0.057997
33.27 	0.060606 	3630 	0.059289
33.29 	0.059211 	3648 	0.058408
33.31 	0.063661 	3660 	0.062061
33.33 	0.064297 	3686 	0.063026
33.35 	0.059827 	3694 	0.059192
33.37 	0.063543 	3714 	0.062755
33.39 	0.058729 	3729 	0.058101
33.41 	0.058824 	3740 	0.057727
33.43 	0.062749 	3761 	0.061971
33.45 	0.061490 	3773 	0.059937
33.47 	0.070563 	3798 	0.068867
33.49 	0.064059 	3809 	0.061573
33.51 	0.058978 	3815 	0.058210
33.53 	0.055194 	3841 	0.054431
33.55 	0.061671 	3843 	0.060908
33.57 	0.057003 	3877 	0.056247
33.59 	0.053866 	3880 	0.053262
33.61 	0.055769 	3909 	0.054870
33.63 	0.062771 	3919 	0.061700
33.65 	0.063851 	3931 	0.063255
33.67 	0.062974 	3954 	0.061789
33.69 	0.056919 	3953 	0.054968
33.71 	0.053082 	3975 	0.052198
33.73 	0.058941 	4004 	0.057771
33.75 	0.057014 	3999 	0.056258
33.77 	0.059876 	4025 	0.059003
33.79 	0.065330 	4041 	0.063881
33.81 	0.053987 	4038 	0.053117
33.83 	0.061728 	4050 	0.060114
33.85 	0.061966 	4099 	0.060537
33.87 	0.061785 	4111 	0.061050
33.89 	0.053628 	4121 	0.052775
33.91 	0.063148 	4149 	0.061548
33.93 	0.056613 	4151 	0.055907
33.95 	0.059077 	4181 	0.057536
33.97 	0.058950 	4190 	0.057389
33.99 	0.059762 	4200 	0.058925
34.01 	0.054593 	4213 	0.053759
34.03 	0.061499 	4244 	0.060532
34.05 	0.057620 	4252 	0.056656
34.07 	0.058575 	4268 	0.057889
34.09 	0.057629 	4286 	0.056924
34.11 	0.058577 	4302 	0.057466
34.13 	0.057103 	4308 	0.056287
34.15 	0.060725 	4331 	0.059643
34.17 	0.059310 	4350 	0.058098
34.19 	0.056855 	4362 	0.055758
34.21 	0.065202 	4371 	0.063996
34.23 	0.058730 	4393 	0.057796
34.25 	0.052679 	4404 	0.051748
34.27 	0.061058 	4422 	0.059734
34.29 	0.058850 	4435 	0.057772
34.31 	0.059668 	4458 	0.058880
34.33 	0.062178 	4471 	0.061240
34.35 	0.055977 	4484 	0.054670
34.37 	0.060788 	4491 	0.059614
34.39 	0.058196 	4502 	0.057416
34.41 	0.064295 	4526 	0.062591
34.43 	0.059484 	4539 	0.058581
34.45 	0.059757 	4535 	0.058853
34.47 	0.067073 	4592 	0.065925
34.49 	0.059822 	4597 	0.058930
34.51 	0.061659 	4606 	0.060620
34.53 	0.056214 	4643 	0.055457
34.55 	0.052121 	4643 	0.051617
34.57 	0.060730 	4660 	0.058844
34.59 	0.056898 	4675 	0.055896
34.61 	0.055354 	4697 	0.054232
34.63 	0.059236 	4710 	0.058241
34.65 	0.054861 	4721 	0.054241
34.67 	0.055263 	4741 	0.055015
34.69 	0.057425 	4754 	0.056440
34.71 	0.050986 	4766 	0.050126
34.73 	0.059327 	4787 	0.058226
34.75 	0.056572 	4808 	0.055456
34.77 	0.059983 	4818 	0.059254
34.79 	0.059287 	4824 	0.058174
34.81 	0.054902 	4845 	0.053572
34.83 	0.061086 	4862 	0.060002
34.85 	0.061204 	4869 	0.060241
34.87 	0.058546 	4868 	0.056961
34.89 	0.052847 	4882 	0.052367
34.91 	0.058378 	4882 	0.056818
34.93 	0.055317 	4899 	0.054720
34.95 	0.054601 	4890 	0.053643
34.97 	0.057528 	4902 	0.056452
34.99 	0.057178 	4897 	0.055982
35.01 	0.063173 	4923 	0.061507
35.03 	0.051993 	4943 	0.051400
35.05 	0.048716 	4947 	0.048361
35.07 	0.053644 	4940 	0.052913
35.09 	0.060973 	4953 	0.059672
35.11 	0.054579 	4947 	0.053394
35.13 	0.055869 	4958 	0.055279
35.15 	0.055904 	4937 	0.054837
35.17 	0.057622 	4946 	0.057030
35.19 	0.057467 	4942 	0.056518
35.21 	0.056421 	4945 	0.055710
35.23 	0.055814 	4945 	0.054728
35.25 	0.060085 	4943 	0.059374
35.27 	0.059822 	4948 	0.058500
35.29 	0.052578 	4945 	0.051986
35.31 	0.054125 	4933 	0.053413
35.33 	0.057657 	4943 	0.056808
35.35 	0.057467 	4942 	0.056755
35.37 	0.058514 	4939 	0.057308
35.39 	0.056825 	4945 	0.055404
35.41 	0.059074 	4926 	0.058718
35.43 	0.058382 	4933 	0.057432
35.45 	0.058538 	4937 	0.057588
35.47 	0.059217 	4931 	0.057910
35.49 	0.057026 	4910 	0.056669
35.51 	0.052781 	4926 	0.051830
35.53 	0.053344 	4949 	0.052279
35.55 	0.056218 	4945 	0.055389
35.57 	0.062639 	4933 	0.060977
35.59 	0.059454 	4945 	0.058013
35.61 	0.058478 	4942 	0.057767
35.63 	0.051790 	4943 	0.051060
35.65 	0.058645 	4945 	0.057342
35.67 	0.054634 	4942 	0.053448
35.69 	0.054185 	4946 	0.053001
35.71 	0.058740 	4937 	0.057297
35.73 	0.062804 	4936 	0.061736
35.75 	0.063070 	4931 	0.061882
35.77 	0.057564 	4951 	0.056618
35.79 	0.057989 	4932 	0.057157
35.81 	0.054733 	4933 	0.054140
35.83 	0.052770 	4946 	0.052296
35.85 	0.058764 	4935 	0.057221
35.87 	0.056673 	4923 	0.055602
35.89 	0.056141 	4934 	0.055666
35.91 	0.062107 	4927 	0.060323
35.93 	0.058047 	4927 	0.057691
35.95 	0.062436 	4917 	0.061603
35.97 	0.060464 	4912 	0.059133
35.99 	0.060134 	4939 	0.059185
36.01 	0.052130 	4930 	0.050823
36.03 	0.053409 	4943 	0.053053
36.05 	0.056218 	4945 	0.055981
36.07 	0.058311 	4939 	0.057007
36.09 	0.056478 	4940 	0.055766
36.11 	0.049909 	4929 	0.049433
36.13 	0.052206 	4942 	0.051376
36.15 	0.063778 	4939 	0.062592
36.17 	0.054822 	4925 	0.053633
36.19 	0.061943 	4940 	0.060738
36.21 	0.060053 	4929 	0.058389
36.23 	0.058156 	4935 	0.057206
36.25 	0.055454 	4941 	0.054862
36.27 	0.059086 	4925 	0.057183
36.29 	0.065707 	4931 	0.064281
36.31 	0.058442 	4928 	0.057253
36.33 	0.056558 	4933 	0.055727
36.35 	0.060256 	4929 	0.059543
36.37 	0.060126 	4923 	0.058559
36.39 	0.054867 	4921 	0.053895
36.41 	0.055964 	4896 	0.055246
36.43 	0.055195 	4928 	0.054719
36.45 	0.057404 	4930 	0.056077
36.47 	0.058955 	4936 	0.057768
36.49 	0.059490 	4942 	0.058542
36.51 	0.056152 	4933 	0.055321
36.53 	0.058062 	4943 	0.057588
36.55 	0.058656 	4927 	0.057467
36.57 	0.057154 	4934 	0.056442
36.59 	0.062563 	4939 	0.061496
36.61 	0.063679 	4931 	0.062610
36.63 	0.061245 	4931 	0.060295
36.65 	0.057178 	4932 	0.056465
36.67 	0.061460 	4930 	0.060153
36.69 	0.051126 	4929 	0.050888
36.71 	0.059541 	4921 	0.058350
36.73 	0.056041 	4925 	0.055446
36.75 	0.056634 	4944 	0.055805
36.77 	0.053060 	4919 	0.052107
36.79 	0.059947 	4921 	0.059352
36.81 	0.052075 	4916 	0.051360
36.83 	0.062869 	4915 	0.061657
36.85 	0.062270 	4898 	0.061553
36.87 	0.063511 	4944 	0.062919
36.89 	0.063059 	4916 	0.061868
36.91 	0.056062 	4941 	0.054639
36.93 	0.062069 	4930 	0.061000
36.95 	0.060409 	4933 	0.059460
36.97 	0.059181 	4934 	0.058093
36.99 	0.059372 	4935 	0.057829
37.01 	0.056558 	4933 	0.055727
37.03 	0.057677 	4924 	0.056963
37.05 	0.060686 	4927 	0.059596
37.07 	0.061803 	4935 	0.060360
37.09 	0.059050 	4928 	0.058575
37.11 	0.055724 	4935 	0.054894
37.13 	0.060723 	4924 	0.060247
37.15 	0.061723 	4909 	0.060411
37.17 	0.062221 	4934 	0.061509
37.19 	0.055228 	4925 	0.054396
37.21 	0.057149 	4917 	0.056315
37.23 	0.063644 	4918 	0.062453
37.25 	0.058440 	4911 	0.057725
37.27 	0.059052 	4894 	0.058214
37.29 	0.056389 	4930 	0.054825
37.31 	0.051064 	4935 	0.050826
37.33 	0.059468 	4927 	0.058279
37.35 	0.062778 	4938 	0.061592
37.37 	0.062107 	4927 	0.061512
37.39 	0.055364 	4931 	0.055126
37.41 	0.054553 	4931 	0.053484
37.43 	0.057583 	4932 	0.056752
37.45 	0.055240 	4924 	0.054050
37.47 	0.052343 	4929 	0.051274
37.49 	0.057485 	4923 	0.056652
37.51 	0.054531 	4933 	0.053699
37.53 	0.058142 	4919 	0.057189
37.55 	0.055781 	4930 	0.054692
37.57 	0.062741 	4925 	0.061314
37.59 	0.058189 	4915 	0.056997
37.61 	0.058106 	4922 	0.057273
37.63 	0.056922 	4919 	0.055969
37.65 	0.059374 	4918 	0.058659
37.67 	0.058931 	4904 	0.058095
37.69 	0.061862 	4898 	0.060666
37.71 	0.050720 	4929 	0.049651
37.73 	0.062082 	4929 	0.060774
37.75 	0.057490 	4940 	0.056541
37.77 	0.060976 	4920 	0.060142
37.79 	0.054970 	4930 	0.053999
37.81 	0.060004 	4933 	0.059410
37.83 	0.057317 	4920 	0.057079
37.85 	0.057700 	4922 	0.056748
37.87 	0.051022 	4939 	0.050548
37.89 	0.051777 	4925 	0.051182
37.91 	0.055375 	4930 	0.054662
37.93 	0.059158 	4919 	0.057372
37.95 	0.054664 	4921 	0.054188
37.97 	0.057415 	4929 	0.056583
37.99 	0.055375 	4912 	0.054540
38.01 	0.055398 	4928 	0.054328
38.03 	0.057446 	4909 	0.056014
38.05 	0.066599 	4925 	0.065647
38.07 	0.058871 	4909 	0.057659
38.09 	0.066216 	4878 	0.065375
38.11 	0.062614 	4935 	0.061546
38.13 	0.059753 	4937 	0.059021
38.15 	0.064660 	4918 	0.062636
38.17 	0.056389 	4930 	0.055082
38.19 	0.069371 	4930 	0.068064
38.21 	0.056673 	4923 	0.055840
38.23 	0.066829 	4938 	0.064911
38.25 	0.070165 	4917 	0.068139
38.27 	0.069574 	4930 	0.068148
38.29 	0.073111 	4924 	0.071565
38.31 	0.068805 	4927 	0.067735
38.33 	0.075751 	4924 	0.074443
38.35 	0.074878 	4928 	0.073690
38.37 	0.083266 	4924 	0.081481
38.39 	0.072927 	4909 	0.071834
38.41 	0.082876 	4923 	0.080477
38.43 	0.083808 	4916 	0.080571
38.45 	0.084384 	4918 	0.082359
38.47 	0.082535 	4907 	0.081202
38.49 	0.081813 	4877 	0.078810
38.51 	0.074818 	4932 	0.073155
38.53 	0.088456 	4929 	0.085684
38.55 	0.079214 	4936 	0.076840
38.57 	0.082267 	4923 	0.081077
38.59 	0.078392 	4924 	0.077202
38.61 	0.077391 	4936 	0.075710
38.63 	0.081438 	4924 	0.079396
38.65 	0.080927 	4918 	0.077830
38.67 	0.062589 	4937 	0.061521
38.69 	0.063186 	4922 	0.061639
38.71 	0.069862 	4924 	0.067919
38.73 	0.064457 	4918 	0.063266
38.75 	0.061904 	4927 	0.060814
38.77 	0.059923 	4923 	0.058733
38.79 	0.064045 	4934 	0.062739
38.81 	0.056800 	4912 	0.056203
38.83 	0.050823 	4919 	0.050109
38.85 	0.054967 	4912 	0.054252
38.87 	0.049074 	4911 	0.048716
38.89 	0.050235 	4897 	0.049637
38.91 	0.051805 	4903 	0.051069
38.93 	0.049413 	4938 	0.048464
38.95 	0.052867 	4918 	0.051895
38.97 	0.051916 	4931 	0.051085
38.99 	0.048005 	4937 	0.046680
39.01 	0.050630 	4918 	0.050154
39.03 	0.042967 	4934 	0.042374
39.05 	0.054213 	4925 	0.053500
39.07 	0.050162 	4924 	0.049330
39.09 	0.045907 	4923 	0.045431
39.11 	0.041371 	4931 	0.040658
39.13 	0.047329 	4923 	0.046615
39.15 	0.051882 	4915 	0.051405
39.17 	0.046587 	4937 	0.045875
39.19 	0.047793 	4917 	0.047555
39.21 	0.043788 	4910 	0.043669
39.23 	0.046294 	4925 	0.046057
39.25 	0.047135 	4922 	0.046778
39.27 	0.041141 	4910 	0.040783
39.29 	0.048970 	4901 	0.048372
39.31 	0.044636 	4884 	0.044396
39.33 	0.046846 	4931 	0.046728
39.35 	0.047619 	4935 	0.047144
39.37 	0.049503 	4929 	0.049146
39.39 	0.049097 	4929 	0.048622
39.41 	0.051714 	4931 	0.051001
39.43 	0.047436 	4933 	0.046466
39.45 	0.044873 	4925 	0.044397
39.47 	0.041844 	4923 	0.041368
39.49 	0.038516 	4933 	0.038279
39.51 	0.044882 	4924 	0.043930
39.53 	0.045094 	4923 	0.044500
39.55 	0.050620 	4919 	0.049906
39.57 	0.047638 	4933 	0.047045
39.59 	0.048860 	4912 	0.048621
39.61 	0.045907 	4923 	0.045431
39.63 	0.045713 	4922 	0.045356
39.65 	0.044255 	4926 	0.043423
39.67 	0.044576 	4913 	0.044099
39.69 	0.042514 	4916 	0.042038
39.71 	0.042901 	4895 	0.042542
39.73 	0.041769 	4908 	0.041649
39.75 	0.044237 	4928 	0.043762
39.77 	0.041337 	4935 	0.040863
39.79 	0.049736 	4926 	0.049498
39.81 	0.038360 	4927 	0.037884
39.83 	0.048034 	4934 	0.047797
39.85 	0.043840 	4927 	0.043127
39.87 	0.045076 	4925 	0.044362
39.89 	0.047021 	4934 	0.045952
39.91 	0.043275 	4922 	0.042799
39.93 	0.046587 	4937 	0.045994
39.95 	0.046389 	4915 	0.045793
39.97 	0.043425 	4928 	0.042593
39.99 	0.050487 	4932 	0.049398
40.01 	0.039650 	4918 	0.039412
40.03 	0.042614 	4928 	0.041900
40.05 	0.046980 	4917 	0.046622
40.07 	0.043469 	4923 	0.043350
40.09 	0.044142 	4916 	0.043307
40.11 	0.038649 	4916 	0.038292
40.13 	0.042484 	4896 	0.042125
40.15 	0.039284 	4913 	0.038926
40.17 	0.044237 	4928 	0.043762
40.19 	0.041388 	4929 	0.041150
40.21 	0.041743 	4935 	0.041505
40.23 	0.044404 	4932 	0.043672
40.25 	0.040447 	4920 	0.039971
40.27 	0.042536 	4937 	0.041587
40.29 	0.040593 	4927 	0.040355
40.31 	0.048998 	4939 	0.048761
40.33 	0.047242 	4932 	0.046767
40.35 	0.038422 	4919 	0.038065
40.37 	0.040779 	4929 	0.040423
40.39 	0.050294 	4931 	0.049462
40.41 	0.041624 	4925 	0.041268
40.43 	0.037790 	4922 	0.037313
40.45 	0.041151 	4933 	0.040538
40.47 	0.039447 	4918 	0.038832
40.49 	0.042022 	4926 	0.041170
40.51 	0.045510 	4922 	0.045391
40.53 	0.040073 	4916 	0.039120
40.55 	0.044214 	4908 	0.043617
40.57 	0.043967 	4890 	0.043009
40.59 	0.042131 	4937 	0.041656
40.61 	0.044174 	4935 	0.043699
40.63 	0.042596 	4930 	0.042359
40.65 	0.043751 	4937 	0.042802
40.67 	0.043187 	4932 	0.042831
40.69 	0.042941 	4937 	0.042585
40.71 	0.042985 	4932 	0.042272
40.73 	0.039180 	4926 	0.038942
40.75 	0.041574 	4931 	0.040980
40.77 	0.042114 	4939 	0.041402
40.79 	0.045288 	4924 	0.044813
40.81 	0.042097 	4941 	0.041623
40.83 	0.041802 	4928 	0.040950
40.85 	0.040820 	4924 	0.040107
40.87 	0.038149 	4928 	0.037317
40.89 	0.040560 	4931 	0.040322
40.91 	0.038797 	4923 	0.038441
40.93 	0.042562 	4934 	0.042324
40.95 	0.042337 	4913 	0.042098
40.97 	0.041430 	4924 	0.040954
40.99 	0.045085 	4924 	0.044728
41.01 	0.039902 	4912 	0.039545
41.03 	0.046075 	4905 	0.045239
41.05 	0.039506 	4936 	0.039150
41.07 	0.043205 	4930 	0.042967
41.09 	0.043329 	4939 	0.042597
41.11 	0.042351 	4935 	0.041757
41.13 	0.043152 	4936 	0.042559
41.15 	0.038656 	4941 	0.038300
41.17 	0.042359 	4934 	0.041528
41.19 	0.045639 	4930 	0.045282
41.21 	0.043346 	4937 	0.042634
41.23 	0.044948 	4939 	0.044711
41.25 	0.037908 	4933 	0.037295
41.27 	0.042182 	4931 	0.041707
41.29 	0.044237 	4928 	0.044118
41.31 	0.045003 	4933 	0.044291
41.33 	0.040510 	4937 	0.039680
41.35 	0.046173 	4938 	0.045461
41.37 	0.043258 	4924 	0.042782
41.39 	0.037908 	4933 	0.037195
41.41 	0.038368 	4926 	0.038130
41.43 	0.032867 	4929 	0.032510
41.45 	0.043142 	4914 	0.042427
41.47 	0.040804 	4926 	0.040685
41.49 	0.035364 	4892 	0.035005
41.51 	0.042105 	4940 	0.041512
41.53 	0.041667 	4944 	0.041311
41.55 	0.037487 	4935 	0.036775
41.57 	0.042097 	4941 	0.041504
41.59 	0.041760 	4933 	0.041403
41.61 	0.040380 	4953 	0.040143
41.63 	0.044552 	4938 	0.044315
41.65 	0.042605 	4929 	0.042130
41.67 	0.036235 	4940 	0.035998
41.69 	0.040833 	4947 	0.040241
41.71 	0.036076 	4934 	0.035483
41.73 	0.037480 	4936 	0.037242
41.75 	0.040779 	4929 	0.040304
41.77 	0.040882 	4941 	0.040290
41.79 	0.045712 	4944 	0.045475
41.81 	0.037277 	4936 	0.036921
41.83 	0.034091 	4928 	0.033734
41.85 	0.042114 	4939 	0.041639
41.87 	0.036879 	4935 	0.036405
41.89 	0.038313 	4933 	0.038076
41.91 	0.041937 	4936 	0.041581
41.93 	0.041768 	4932 	0.041293
41.95 	0.040154 	4931 	0.039323
41.97 	0.038462 	4914 	0.037866
41.99 	0.032620 	4905 	0.032381
42.01 	0.039862 	4942 	0.039270
42.03 	0.040089 	4939 	0.039970
42.05 	0.042811 	4952 	0.041865
42.07 	0.040510 	4937 	0.040036
42.09 	0.037995 	4948 	0.037758
42.11 	0.035389 	4945 	0.034679
42.13 	0.041456 	4945 	0.040982
42.15 	0.037667 	4938 	0.037193
42.17 	0.039650 	4918 	0.039293
42.19 	0.040546 	4908 	0.039691
42.21 	0.036931 	4901 	0.036453
42.23 	0.039861 	4892 	0.039622
42.25 	0.039476 	4889 	0.039237
42.27 	0.039598 	4874 	0.038757
42.29 	0.043389 	4863 	0.042305
42.31 	0.035221 	4855 	0.034859
42.33 	0.034133 	4834 	0.033770
42.35 	0.036792 	4838 	0.036550
42.37 	0.038302 	4830 	0.037575
42.39 	0.038718 	4804 	0.037986
42.41 	0.045379 	4804 	0.044038
42.43 	0.037563 	4792 	0.037196
42.45 	0.036851 	4776 	0.036606
42.47 	0.034837 	4765 	0.034469
42.49 	0.037985 	4765 	0.037125
42.51 	0.034999 	4743 	0.034505
42.53 	0.041667 	4728 	0.041171
42.55 	0.035259 	4708 	0.034637
42.57 	0.034038 	4730 	0.033914
42.59 	0.037217 	4729 	0.036846
42.61 	0.040782 	4708 	0.040284
42.63 	0.036738 	4709 	0.036365
42.65 	0.041195 	4685 	0.040820
42.67 	0.035867 	4684 	0.035492
42.69 	0.035516 	4674 	0.035390
42.71 	0.038602 	4663 	0.038225
42.73 	0.037069 	4640 	0.036816
42.75 	0.037687 	4617 	0.037052
42.77 	0.037174 	4600 	0.036283
42.79 	0.039502 	4582 	0.038735
42.81 	0.038580 	4562 	0.038066
42.83 	0.039021 	4536 	0.038763
42.85 	0.040857 	4528 	0.040469
42.87 	0.032674 	4499 	0.032153
42.89 	0.044420 	4480 	0.043635
42.91 	0.044883 	4456 	0.044226
42.93 	0.035762 	4446 	0.035235
42.95 	0.038496 	4416 	0.037568
42.97 	0.042718 	4401 	0.042318
42.99 	0.038084 	4385 	0.037817
43.01 	0.033463 	4363 	0.033463
43.03 	0.034156 	4333 	0.034021
43.05 	0.033064 	4325 	0.032793
43.07 	0.040968 	4296 	0.040696
43.09 	0.040392 	4283 	0.039845
43.11 	0.040188 	4255 	0.039913
43.13 	0.038471 	4237 	0.038194
43.15 	0.041369 	4206 	0.041091
43.17 	0.040919 	4179 	0.040498
43.19 	0.041726 	4194 	0.041168
43.21 	0.037152 	4172 	0.037152
43.23 	0.043572 	4154 	0.043431
43.25 	0.039420 	4135 	0.039278
43.27 	0.040438 	4105 	0.039725
43.29 	0.038537 	4100 	0.038394
43.31 	0.040941 	4079 	0.039936
43.33 	0.043693 	4051 	0.043548
43.35 	0.036954 	4032 	0.035502
43.37 	0.035118 	4015 	0.034972
43.39 	0.036982 	4002 	0.036250
43.41 	0.041793 	3972 	0.041645
43.43 	0.036869 	3960 	0.035981
43.45 	0.040407 	3935 	0.039811
43.47 	0.036215 	3921 	0.035916
43.49 	0.036438 	3897 	0.036288
43.51 	0.032499 	3877 	0.032499
43.53 	0.038571 	3863 	0.037813
43.55 	0.037112 	2964 	0.036717
43.57 	0.037534 	2238 	0.037272
43.59 	0.032646 	1746 	0.032646
43.61 	0.040711 	1351 	0.040711
43.63 	0.040959 	1001 	0.040959
43.65 	0.034934 	687 	0.034934
43.67 	0.031873 	502 	0.028180
43.69 	0.032698 	367 	0.032698
43.71 	0.020921 	239 	0.020921
43.73 	0.041667 	120 	0.041667
43.75 	0.062500 	16 	0.062500