File: Example_Data/25SC_s1_0007.002.dat
#F C:\frames\spec\25SC_s1_0007.002
#C title =s:7 frm:2 25SC_s1
#C wavelength =0.15406

#S 1  fr_average C:\frames\spec\25SC_s1_0007.002 C:\win32app\speccom\mask.axs chi 0 180 0 360 0.02
#C 2 theta =0.000000 to 180 deg
#C   q   =0.000000 to 81.568 nm^-1
#C  chi  =0.000000 to 360 deg
#C collumns:
#C  1 position (2theta or chi in degrees)
#C  2 average intensity (sum of all counts in the region divided with number of pixels)
#C  3 Number of pixels in region)
#C  4 error (sum of sqrt(intensity) for all pixels divided by number)
#N 4
#L TTh  Int  N_pix  Err
32.99 	0.081967 	61 	0.072364
33.01 	0.046964 	873 	0.045622
33.03 	0.058231 	1391 	0.057810
33.05 	0.055208 	1757 	0.054874
33.07 	0.064878 	2050 	0.064021
33.09 	0.060503 	2347 	0.059504
33.11 	0.054285 	2579 	0.053603
33.13 	0.061941 	2793 	0.060682
33.15 	0.063688 	2999 	0.063493
33.17 	0.058732 	3201 	0.057634
33.19 	0.055655 	3342 	0.054604
33.21 	0.058498 	3436 	0.057987
33.23 	0.061595 	3523 	0.060598
33.25 	0.061739 	3612 	0.059793
33.27 	0.058953 	3630 	0.058308
33.29 	0.057840 	3648 	0.057198
33.31 	0.058470 	3660 	0.057830
33.33 	0.062670 	3686 	0.061239
33.35 	0.050352 	3694 	0.049718
33.37 	0.057081 	3714 	0.056135
33.39 	0.053366 	3729 	0.053051
33.41 	0.063636 	3740 	0.061600
33.43 	0.059825 	3761 	0.058734
33.45 	0.056454 	3773 	0.055677
33.47 	0.056872 	3798 	0.055304
33.49 	0.062484 	3809 	0.061561
33.51 	0.060813 	3815 	0.059431
33.53 	0.058578 	3841 	0.057663
33.55 	0.061150 	3843 	0.059626
33.57 	0.059324 	3877 	0.057662
33.59 	0.059794 	3880 	0.059492
33.61 	0.061141 	3909 	0.059942
33.63 	0.058178 	3919 	0.057281
33.65 	0.057237 	3931 	0.056492
33.67 	0.058928 	3954 	0.057594
33.69 	0.058943 	3953 	0.057609
33.71 	0.064151 	3975 	0.062383
33.73 	0.056444 	4004 	0.055419
33.75 	0.054514 	3999 	0.053635
33.77 	0.060870 	4025 	0.060287
33.79 	0.060381 	4041 	0.058642
33.81 	0.054235 	4038 	0.053219
33.83 	0.059506 	4050 	0.058060
33.85 	0.060503 	4099 	0.059788
33.87 	0.061542 	4111 	0.060117
33.89 	0.059694 	4121 	0.058818
33.91 	0.061943 	4149 	0.060508
33.93 	0.059986 	4151 	0.058574
33.95 	0.055967 	4181 	0.055127
33.97 	0.059427 	4190 	0.058309
33.99 	0.061190 	4200 	0.060633
34.01 	0.062426 	4213 	0.060479
34.03 	0.061734 	4244 	0.060630
34.05 	0.054563 	4252 	0.053598
34.07 	0.056701 	4268 	0.056015
34.09 	0.064162 	4286 	0.063889
34.11 	0.056485 	4302 	0.055260
34.13 	0.062674 	4308 	0.061994
34.15 	0.054260 	4331 	0.053584
34.17 	0.054713 	4350 	0.053231
34.19 	0.058459 	4362 	0.057497
34.21 	0.060398 	4371 	0.059326
34.23 	0.057592 	4393 	0.056525
34.25 	0.054950 	4404 	0.053864
34.27 	0.053596 	4422 	0.053198
34.29 	0.057046 	4435 	0.056254
34.31 	0.056976 	4458 	0.055903
34.33 	0.055692 	4471 	0.054623
34.35 	0.058430 	4484 	0.058038
34.37 	0.045870 	4491 	0.044826
34.39 	0.055753 	4502 	0.054192
34.41 	0.060760 	4526 	0.059595
34.43 	0.060806 	4539 	0.060161
34.45 	0.057552 	4535 	0.056390
34.47 	0.059016 	4592 	0.057995
34.49 	0.053513 	4597 	0.051984
34.51 	0.060356 	4606 	0.059211
34.53 	0.055137 	4643 	0.054107
34.55 	0.061383 	4643 	0.060247
34.57 	0.059227 	4660 	0.058599
34.59 	0.059465 	4675 	0.058317
34.61 	0.054716 	4697 	0.053718
34.63 	0.059236 	4710 	0.057992
34.65 	0.055497 	4721 	0.054504
34.67 	0.058848 	4741 	0.057613
34.69 	0.060160 	4754 	0.059051
34.71 	0.057700 	4766 	0.056471
34.73 	0.058492 	4787 	0.058125
34.75 	0.062604 	4808 	0.061020
34.77 	0.063097 	4818 	0.061375
34.79 	0.053897 	4824 	0.053169
34.81 	0.055934 	4845 	0.055088
34.83 	0.059235 	4862 	0.058271
34.85 	0.058123 	4869 	0.057622
34.87 	0.052794 	4868 	0.052072
34.89 	0.063089 	4882 	0.061529
34.91 	0.055100 	4882 	0.054140
34.93 	0.055522 	4899 	0.054206
34.95 	0.052147 	4890 	0.051428
34.97 	0.064463 	4902 	0.063029
34.99 	0.056974 	4897 	0.056017
35.01 	0.059110 	4923 	0.058277
35.03 	0.059680 	4943 	0.059325
35.05 	0.057004 	4947 	0.055939
35.07 	0.059312 	4940 	0.057889
35.09 	0.061781 	4953 	0.060953
35.11 	0.058621 	4947 	0.057319
35.13 	0.063735 	4958 	0.062180
35.15 	0.060766 	4937 	0.059816
35.17 	0.057622 	4946 	0.056201
35.19 	0.054836 	4942 	0.054125
35.21 	0.057027 	4945 	0.056317
35.23 	0.063903 	4945 	0.062837
35.25 	0.059276 	4943 	0.057261
35.27 	0.054163 	4948 	0.053335
35.29 	0.049949 	4945 	0.049120
35.31 	0.062639 	4933 	0.062164
35.33 	0.054218 	4943 	0.052915
35.35 	0.058478 	4942 	0.057649
35.37 	0.059121 	4939 	0.057935
35.39 	0.056016 	4945 	0.054950
35.41 	0.062728 	4926 	0.062015
35.43 	0.058180 	4933 	0.057467
35.45 	0.057727 	4937 	0.056185
35.47 	0.053133 	4931 	0.052163
35.49 	0.060692 	4910 	0.059022
35.51 	0.062525 	4926 	0.061693
35.53 	0.057385 	4949 	0.056438
35.55 	0.056421 	4945 	0.054999
35.57 	0.058585 	4933 	0.057635
35.59 	0.058241 	4945 	0.057885
35.61 	0.052206 	4942 	0.051731
35.63 	0.059883 	4943 	0.059172
35.65 	0.059858 	4945 	0.059029
35.67 	0.063132 	4942 	0.061947
35.69 	0.059846 	4946 	0.058780
35.71 	0.055702 	4937 	0.055465
35.73 	0.056321 	4936 	0.055728
35.75 	0.055770 	4931 	0.054938
35.77 	0.055544 	4951 	0.055189
35.79 	0.055556 	4932 	0.055199
35.81 	0.058990 	4933 	0.057209
35.83 	0.055398 	4946 	0.054806
35.85 	0.057953 	4935 	0.057122
35.87 	0.057079 	4923 	0.056246
35.89 	0.062424 	4934 	0.060980
35.91 	0.056018 	4927 	0.054948
35.93 	0.055815 	4927 	0.054844
35.95 	0.058166 	4917 	0.057570
35.97 	0.051099 	4912 	0.049788
35.99 	0.069245 	4939 	0.067703
36.01 	0.061258 	4930 	0.060307
36.03 	0.058264 	4943 	0.057198
36.05 	0.060870 	4945 	0.060277
36.07 	0.053452 	4939 	0.052978
36.09 	0.066397 	4940 	0.065073
36.11 	0.060053 	4929 	0.059221
36.13 	0.054836 	4942 	0.053868
36.15 	0.055679 	4939 	0.054493
36.17 	0.057665 	4925 	0.056119
36.19 	0.062955 	4940 	0.061533
36.21 	0.054575 	4929 	0.053862
36.23 	0.054711 	4935 	0.053762
36.25 	0.059502 	4941 	0.057941
36.27 	0.059695 	4925 	0.058387
36.29 	0.053944 	4931 	0.052994
36.31 	0.054586 	4928 	0.053873
36.33 	0.056355 	4933 	0.055880
36.35 	0.068777 	4929 	0.067113
36.37 	0.055251 	4923 	0.054418
36.39 	0.058321 	4921 	0.057112
36.41 	0.062296 	4896 	0.061339
36.43 	0.057224 	4928 	0.056273
36.45 	0.060243 	4930 	0.059412
36.47 	0.064222 	4936 	0.063035
36.49 	0.058681 	4942 	0.057021
36.51 	0.055342 	4933 	0.054629
36.53 	0.057050 	4943 	0.055628
36.55 	0.060483 	4927 	0.059631
36.57 	0.058776 	4934 	0.057351
36.59 	0.058311 	4939 	0.057244
36.61 	0.062462 	4931 	0.061512
36.63 	0.061854 	4931 	0.061141
36.65 	0.056569 	4932 	0.055857
36.67 	0.061055 	4930 	0.060342
36.69 	0.057010 	4929 	0.055940
36.71 	0.054664 	4921 	0.054307
36.73 	0.059289 	4925 	0.057981
36.75 	0.061489 	4944 	0.059948
36.77 	0.058548 	4919 	0.057596
36.79 	0.060963 	4921 	0.060011
36.81 	0.061025 	4916 	0.059834
36.83 	0.059003 	4915 	0.058169
36.85 	0.064108 	4898 	0.063271
36.87 	0.059264 	4944 	0.058316
36.89 	0.057974 	4916 	0.057259
36.91 	0.062133 	4941 	0.061047
36.93 	0.056795 	4930 	0.056676
36.95 	0.058990 	4933 	0.058040
36.97 	0.059587 	4934 	0.058399
36.99 	0.062006 	4935 	0.061056
37.01 	0.055342 	4933 	0.054392
37.03 	0.059098 	4924 	0.058365
37.05 	0.061295 	4927 	0.060344
37.07 	0.056738 	4935 	0.056263
37.09 	0.058239 	4928 	0.056931
37.11 	0.058764 	4935 	0.057795
37.13 	0.058489 	4924 	0.057418
37.15 	0.058464 	4909 	0.057390
37.17 	0.053506 	4934 	0.053131
37.19 	0.057462 	4925 	0.056629
37.21 	0.059386 	4917 	0.058194
37.23 	0.058154 	4918 	0.056963
37.25 	0.054979 	4911 	0.054382
37.27 	0.049448 	4894 	0.048610
37.29 	0.055781 	4930 	0.055068
37.31 	0.053901 	4935 	0.053189
37.33 	0.059265 	4927 	0.057482
37.35 	0.056298 	4938 	0.055112
37.37 	0.061498 	4927 	0.060903
37.39 	0.055567 	4931 	0.055092
37.41 	0.055161 	4931 	0.054448
37.43 	0.051906 	4932 	0.051550
37.45 	0.061332 	4924 	0.059905
37.47 	0.059241 	4929 	0.057459
37.49 	0.060329 	4923 	0.059239
37.51 	0.051085 	4933 	0.050491
37.53 	0.055092 	4919 	0.053544
37.55 	0.058215 	4930 	0.057264
37.57 	0.053604 	4925 	0.053128
37.59 	0.056562 	4915 	0.055966
37.61 	0.054246 	4922 	0.053056
37.63 	0.057329 	4919 	0.056257
37.65 	0.055104 	4918 	0.054270
37.67 	0.053426 	4904 	0.052470
37.69 	0.060024 	4898 	0.059187
37.71 	0.057212 	4929 	0.056618
37.73 	0.055589 	4929 	0.054263
37.75 	0.053036 	4940 	0.052562
37.77 	0.052033 	4920 	0.050961
37.79 	0.055781 	4930 	0.053999
37.81 	0.056963 	4933 	0.056013
37.83 	0.055285 	4920 	0.054570
37.85 	0.056887 	4922 	0.055916
37.87 	0.056287 	4939 	0.055101
37.89 	0.053807 	4925 	0.053093
37.91 	0.051724 	4930 	0.051011
37.93 	0.052450 	4919 	0.051973
37.95 	0.054257 	4921 	0.053543
37.97 	0.056198 	4929 	0.055128
37.99 	0.050081 	4912 	0.049466
38.01 	0.049919 	4928 	0.049324
38.03 	0.055408 	4909 	0.054812
38.05 	0.057868 	4925 	0.056679
38.07 	0.052149 	4909 	0.051314
38.09 	0.051046 	4878 	0.050685
38.11 	0.050051 	4935 	0.049338
38.13 	0.049625 	4937 	0.049151
38.15 	0.058967 	4918 	0.058252
38.17 	0.053550 	4930 	0.052461
38.19 	0.049899 	4930 	0.049285
38.21 	0.053016 	4923 	0.051946
38.23 	0.053463 	4938 	0.053226
38.25 	0.054505 	4917 	0.053671
38.27 	0.055172 	4930 	0.054578
38.29 	0.054427 	4924 	0.053832
38.31 	0.048914 	4927 	0.048320
38.33 	0.060723 	4924 	0.059890
38.35 	0.059253 	4928 	0.058015
38.37 	0.058489 	4924 	0.057656
38.39 	0.057038 	4909 	0.056322
38.41 	0.055657 	4923 	0.055062
38.43 	0.062856 	4916 	0.061784
38.45 	0.064457 	4918 	0.063246
38.47 	0.060933 	4907 	0.059740
38.49 	0.064589 	4877 	0.063988
38.51 	0.064274 	4932 	0.063561
38.53 	0.067154 	4929 	0.065609
38.55 	0.066045 	4936 	0.064740
38.57 	0.061954 	4923 	0.061121
38.59 	0.066003 	4924 	0.065170
38.61 	0.064830 	4936 	0.063999
38.63 	0.071487 	4924 	0.070059
38.65 	0.063644 	4918 	0.062691
38.67 	0.065829 	4937 	0.064762
38.69 	0.063592 	4922 	0.062521
38.71 	0.059708 	4924 	0.058042
38.73 	0.061814 	4918 	0.060623
38.75 	0.065354 	4927 	0.063809
38.77 	0.060329 	4923 	0.059258
38.79 	0.048642 	4934 	0.047574
38.81 	0.057614 	4912 	0.056660
38.83 	0.052043 	4919 	0.051567
38.85 	0.053542 	4912 	0.052946
38.87 	0.057015 	4911 	0.056657
38.89 	0.051460 	4897 	0.050503
38.91 	0.056496 	4903 	0.055779
38.93 	0.053260 	4938 	0.052667
38.95 	0.047784 	4918 	0.046950
38.97 	0.048672 	4931 	0.047959
38.99 	0.053271 	4937 	0.052203
39.01 	0.047377 	4918 	0.046781
39.03 	0.053304 	4934 	0.052710
39.05 	0.046701 	4925 	0.046344
39.07 	0.048538 	4924 	0.048181
39.09 	0.050173 	4923 	0.049459
39.11 	0.044007 	4931 	0.043413
39.13 	0.045501 	4923 	0.044410
39.15 	0.050865 	4915 	0.049792
39.17 	0.053069 	4937 	0.052119
39.19 	0.051047 	4917 	0.050333
39.21 	0.045010 	4910 	0.044294
39.23 	0.057868 	4925 	0.056798
39.25 	0.047948 	4922 	0.047234
39.27 	0.048676 	4910 	0.047841
39.29 	0.042440 	4901 	0.042082
39.31 	0.048526 	4884 	0.047566
39.33 	0.044616 	4931 	0.044022
39.35 	0.050253 	4935 	0.049897
39.37 	0.050517 	4929 	0.049567
39.39 	0.039765 	4929 	0.039408
39.41 	0.044210 	4931 	0.043973
39.43 	0.041354 	4933 	0.040879
39.45 	0.045076 	4925 	0.044481
39.47 	0.048954 	4923 	0.048240
39.49 	0.047233 	4933 	0.046995
39.51 	0.046101 	4924 	0.045387
39.53 	0.049970 	4923 	0.049375
39.55 	0.045944 	4919 	0.045230
39.57 	0.043381 	4933 	0.042669
39.59 	0.047435 	4912 	0.046839
39.61 	0.047532 	4923 	0.047175
39.63 	0.044697 	4922 	0.043845
39.65 	0.044052 	4926 	0.043933
39.67 	0.043761 	4913 	0.043404
39.69 	0.048007 	4916 	0.047172
39.71 	0.044331 	4895 	0.043972
39.73 	0.050733 	4908 	0.050017
39.75 	0.042817 	4928 	0.041984
39.77 	0.050456 	4935 	0.050219
39.79 	0.044255 	4926 	0.044017
39.81 	0.044855 	4927 	0.044379
39.83 	0.046413 	4934 	0.046056
39.85 	0.042622 	4927 	0.041909
39.87 	0.045279 	4925 	0.044209
39.89 	0.051074 	4934 	0.050124
39.91 	0.048557 	4922 	0.047843
39.93 	0.043144 	4937 	0.043144
39.95 	0.043540 	4915 	0.042706
39.97 	0.044237 	4928 	0.043643
39.99 	0.052717 	4932 	0.051985
40.01 	0.045750 	4918 	0.045274
40.03 	0.042005 	4928 	0.041529
40.05 	0.046573 	4917 	0.045858
40.07 	0.046923 	4923 	0.046328
40.09 	0.045362 	4916 	0.044766
40.11 	0.049430 	4916 	0.048835
40.13 	0.049224 	4896 	0.048386
40.15 	0.039080 	4913 	0.038245
40.17 	0.049107 	4928 	0.048394
40.19 	0.042808 	4929 	0.042451
40.21 	0.045795 	4935 	0.045202
40.23 	0.043998 	4932 	0.043642
40.25 	0.041260 	4920 	0.040784
40.27 	0.041321 	4937 	0.040965
40.29 	0.043434 	4927 	0.043196
40.31 	0.047580 	4939 	0.046987
40.33 	0.047851 	4932 	0.047019
40.35 	0.041269 	4919 	0.040554
40.37 	0.045242 	4929 	0.044391
40.39 	0.045224 	4931 	0.044274
40.41 	0.043655 	4925 	0.043060
40.43 	0.045510 	4922 	0.044677
40.45 	0.041760 	4933 	0.041522
40.47 	0.042700 	4918 	0.041867
40.49 	0.042225 	4926 	0.041749
40.51 	0.045510 	4922 	0.045153
40.53 	0.048820 	4916 	0.048701
40.55 	0.042584 	4908 	0.042345
40.57 	0.043763 	4890 	0.043284
40.59 	0.041928 	4937 	0.041454
40.61 	0.051266 	4935 	0.050910
40.63 	0.043813 	4930 	0.043100
40.65 	0.039903 	4937 	0.039547
40.67 	0.043593 	4932 	0.043237
40.69 	0.039903 	4937 	0.039665
40.71 	0.040349 	4932 	0.040111
40.73 	0.044255 	4926 	0.043660
40.75 	0.049077 	4931 	0.048840
40.77 	0.047378 	4939 	0.046904
40.79 	0.044882 	4924 	0.044287
40.81 	0.046954 	4941 	0.046480
40.83 	0.042005 	4928 	0.040935
40.85 	0.044679 	4924 	0.044084
40.87 	0.043628 	4928 	0.042915
40.89 	0.045832 	4931 	0.044981
40.91 	0.040016 	4923 	0.039778
40.93 	0.039116 	4934 	0.038760
40.95 	0.046000 	4913 	0.045166
40.97 	0.045898 	4924 	0.045303
40.99 	0.044070 	4924 	0.043832
41.01 	0.041938 	4912 	0.041580
41.03 	0.047095 	4905 	0.046139
41.05 	0.047204 	4936 	0.046848
41.07 	0.046045 	4930 	0.045094
41.09 	0.038672 	4939 	0.038316
41.11 	0.043364 	4935 	0.042889
41.13 	0.042950 	4936 	0.041882
41.15 	0.043513 	4941 	0.042328
41.17 	0.045805 	4934 	0.045330
41.19 	0.046856 	4930 	0.046143
41.21 	0.045169 	4937 	0.044457
41.23 	0.043936 	4939 	0.043462
41.25 	0.037908 	4933 	0.037195
41.27 	0.044413 	4931 	0.043938
41.29 	0.051948 	4928 	0.050502
41.31 	0.043787 	4933 	0.043193
41.33 	0.043751 	4937 	0.043277
41.35 	0.039287 	4938 	0.038813
41.37 	0.045288 	4924 	0.044694
41.39 	0.048449 	4933 	0.047737
41.41 	0.041616 	4926 	0.041021
41.43 	0.047271 	4929 	0.046796
41.45 	0.044160 	4914 	0.043325
41.47 	0.038774 	4926 	0.037941
41.49 	0.044563 	4892 	0.044084
41.51 	0.048381 	4940 	0.048025
41.53 	0.042071 	4944 	0.041459
41.55 	0.043161 	4935 	0.042568
41.57 	0.046145 	4941 	0.045670
41.59 	0.043787 	4933 	0.043312
41.61 	0.048657 	4953 	0.047711
41.63 	0.044552 	4938 	0.043841
41.65 	0.041388 	4929 	0.040912
41.67 	0.042713 	4940 	0.042120
41.69 	0.042248 	4947 	0.041774
41.71 	0.046007 	4934 	0.045414
41.73 	0.040113 	4936 	0.039876
41.75 	0.041185 	4929 	0.040571
41.77 	0.047156 	4941 	0.047038
41.79 	0.046319 	4944 	0.045963
41.81 	0.040113 	4936 	0.039639
41.83 	0.038149 	4928 	0.037912
41.85 	0.045556 	4939 	0.044607
41.87 	0.040324 	4935 	0.040087
41.89 	0.039327 	4933 	0.038971
41.91 	0.039708 	4936 	0.038996
41.93 	0.040552 	4932 	0.040314
41.95 	0.040357 	4931 	0.040001
41.97 	0.045177 	4914 	0.044442
41.99 	0.045260 	4905 	0.044663
42.01 	0.039053 	4942 	0.038460
42.03 	0.042924 	4939 	0.042212
42.05 	0.045840 	4952 	0.045130
42.07 	0.043144 	4937 	0.042669
42.09 	0.043654 	4948 	0.043180
42.11 	0.044085 	4945 	0.043137
42.13 	0.048736 	4945 	0.048381
42.15 	0.035034 	4938 	0.034797
42.17 	0.041684 	4918 	0.041207
42.19 	0.040342 	4908 	0.039746
42.21 	0.045297 	4901 	0.044699
42.23 	0.038635 	4892 	0.038635
42.25 	0.042544 	4889 	0.042185
42.27 	0.036931 	4874 	0.036450
42.29 	0.041744 	4863 	0.041382
42.31 	0.037899 	4855 	0.037296
42.33 	0.039305 	4834 	0.039184
42.35 	0.042373 	4838 	0.041263
42.37 	0.045549 	4830 	0.044578
42.39 	0.041424 	4804 	0.041302
42.41 	0.039550 	4804 	0.039063
42.43 	0.040275 	4792 	0.039786
42.45 	0.041457 	4776 	0.040967
42.47 	0.038195 	4765 	0.037703
42.49 	0.039454 	4765 	0.038963
42.51 	0.037318 	4743 	0.037071
42.53 	0.043993 	4728 	0.043745
42.55 	0.044605 	4708 	0.043983
42.57 	0.035729 	4730 	0.034986
42.59 	0.043984 	4729 	0.043612
42.61 	0.040569 	4708 	0.039947
42.63 	0.034190 	4709 	0.033817
42.65 	0.039488 	4685 	0.039113
42.67 	0.042912 	4684 	0.042787
42.69 	0.039153 	4674 	0.038777
42.71 	0.041819 	4663 	0.041316
42.73 	0.037284 	4640 	0.036779
42.75 	0.040502 	4617 	0.040122
42.77 	0.042391 	4600 	0.042264
42.79 	0.039066 	4582 	0.038427
42.81 	0.039018 	4562 	0.038376
42.83 	0.034392 	4536 	0.034392
42.85 	0.043728 	4528 	0.043081
42.87 	0.035119 	4499 	0.034598
42.89 	0.043080 	4480 	0.042688
42.91 	0.040395 	4456 	0.040001
42.93 	0.038686 	4446 	0.038555
42.95 	0.042120 	4416 	0.041324
42.97 	0.040673 	4401 	0.040273
42.99 	0.037856 	4385 	0.037188
43.01 	0.035526 	4363 	0.035392
43.03 	0.042234 	4333 	0.041288
43.05 	0.039306 	4325 	0.038765
43.07 	0.039572 	4296 	0.039026
43.09 	0.040392 	4283 	0.040119
43.11 	0.035723 	4255 	0.035034
43.13 	0.040123 	4237 	0.039846
43.15 	0.036852 	4206 	0.036272
43.17 	0.036372 	4179 	0.035812
43.19 	0.044111 	4194 	0.043971
43.21 	0.040268 	4172 	0.039988
43.23 	0.040202 	4154 	0.039920
43.25 	0.040629 	4135 	0.040204
43.27 	0.041900 	4105 	0.041329
43.29 	0.040000 	4100 	0.039857
43.31 	0.041432 	4079 	0.041145
43.33 	0.040484 	4051 	0.039761
43.35 	0.039931 	4032 	0.039349
43.37 	0.039851 	4015 	0.039267
43.39 	0.035732 	4002 	0.035586
43.41 	0.036002 	3972 	0.035707
43.43 	0.040657 	3960 	0.040188
43.45 	0.035578 	3935 	0.035429
43.47 	0.041316 	3921 	0.040569
43.49 	0.037721 	3897 	0.037270
43.51 	0.035595 	3877 	0.035443
43.53 	0.040642 	3863 	0.040187
43.55 	0.038462 	2964 	0.038462
43.57 	0.039768 	2238 	0.039244
43.59 	0.032646 	1746 	0.032311
43.61 	0.042191 	1351 	0.042191
43.63 	0.051948 	1001 	0.050778
43.65 	0.036390 	687 	0.036390
43.67 	0.023904 	502 	0.023904
43.69 	0.054496 	367 	0.054496
43.71 	0.058577 	239 	0.056126
43.73 	0.058333 	120 	0.058333
43.75 	0.000000 	16 	0.000000