File: Example_Data/25SC_s1_0041.001.dat
#F C:\frames\spec\25SC_s1_0041.001
#C title =s:41 frm:1 25SC_s1
#C wavelength =0.15406

#S 1  fr_average C:\frames\spec\25SC_s1_0041.001 C:\win32app\speccom\mask.axs chi 0 180 0 360 0.02
#C 2 theta =0.000000 to 180 deg
#C   q   =0.000000 to 81.568 nm^-1
#C  chi  =0.000000 to 360 deg
#C collumns:
#C  1 position (2theta or chi in degrees)
#C  2 average intensity (sum of all counts in the region divided with number of pixels)
#C  3 Number of pixels in region)
#C  4 error (sum of sqrt(intensity) for all pixels divided by number)
#N 4
#L TTh  Int  N_pix  Err
32.99 	0.032787 	61 	0.032787
33.01 	0.050401 	873 	0.050401
33.03 	0.058950 	1391 	0.058108
33.05 	0.056915 	1757 	0.055527
33.07 	0.075610 	2050 	0.074467
33.09 	0.056668 	2347 	0.055919
33.11 	0.058550 	2579 	0.058323
33.13 	0.061583 	2793 	0.060953
33.15 	0.057686 	2999 	0.056514
33.17 	0.061856 	3201 	0.060941
33.19 	0.059844 	3342 	0.058793
33.21 	0.052386 	3436 	0.051705
33.23 	0.058473 	3523 	0.056949
33.25 	0.056755 	3612 	0.055782
33.27 	0.068044 	3630 	0.066753
33.29 	0.055921 	3648 	0.055118
33.31 	0.057923 	3660 	0.056803
33.33 	0.064840 	3686 	0.064363
33.35 	0.059015 	3694 	0.057905
33.37 	0.059235 	3714 	0.058604
33.39 	0.058997 	3729 	0.058840
33.41 	0.061765 	3740 	0.060355
33.43 	0.064079 	3761 	0.062988
33.45 	0.067055 	3773 	0.065813
33.47 	0.063981 	3798 	0.063056
33.49 	0.059071 	3809 	0.058302
33.51 	0.055046 	3815 	0.054585
33.53 	0.054153 	3841 	0.053390
33.55 	0.055686 	3843 	0.054924
33.57 	0.057261 	3877 	0.056027
33.59 	0.058505 	3880 	0.057297
33.61 	0.065234 	3909 	0.064185
33.63 	0.060985 	3919 	0.060088
33.65 	0.064360 	3931 	0.063615
33.67 	0.054881 	3954 	0.054140
33.69 	0.063243 	3953 	0.061909
33.71 	0.058113 	3975 	0.056640
33.73 	0.059191 	4004 	0.058313
33.75 	0.066017 	3999 	0.064845
33.77 	0.059130 	4025 	0.058548
33.79 	0.060876 	4041 	0.059426
33.81 	0.065131 	4038 	0.063971
33.83 	0.061235 	4050 	0.060222
33.85 	0.051476 	4099 	0.050476
33.87 	0.068840 	4111 	0.067249
33.89 	0.061636 	4121 	0.060214
33.91 	0.054471 	4149 	0.053906
33.93 	0.060708 	4151 	0.059862
33.95 	0.055967 	4181 	0.055267
33.97 	0.058711 	4190 	0.058012
33.99 	0.054286 	4200 	0.053449
34.01 	0.056492 	4213 	0.056353
34.03 	0.060320 	4244 	0.059630
34.05 	0.058796 	4252 	0.057969
34.07 	0.055998 	4268 	0.054763
34.09 	0.055296 	4286 	0.054886
34.11 	0.063226 	4302 	0.062273
34.13 	0.055710 	4308 	0.055166
34.15 	0.056800 	4331 	0.055988
34.17 	0.059770 	4350 	0.058962
34.19 	0.053187 	4362 	0.051978
34.21 	0.051704 	4371 	0.050766
34.23 	0.060779 	4393 	0.059712
34.25 	0.054950 	4404 	0.054285
34.27 	0.058571 	4422 	0.057643
34.29 	0.053439 	4435 	0.052910
34.31 	0.053611 	4458 	0.052297
34.33 	0.056140 	4471 	0.054698
34.35 	0.056646 	4484 	0.055993
34.37 	0.060566 	4491 	0.058870
34.39 	0.053754 	4502 	0.053103
34.41 	0.051922 	4526 	0.051405
34.43 	0.051333 	4539 	0.050559
34.45 	0.059757 	4535 	0.058982
34.47 	0.059016 	4592 	0.058123
34.49 	0.056994 	4597 	0.056102
34.51 	0.056231 	4606 	0.055722
34.53 	0.060737 	4643 	0.060106
34.55 	0.059014 	4643 	0.058257
34.57 	0.056867 	4660 	0.055987
34.59 	0.060321 	4675 	0.059694
34.61 	0.061103 	4697 	0.060105
34.63 	0.051168 	4710 	0.051043
34.65 	0.052743 	4721 	0.051999
34.67 	0.051466 	4741 	0.050477
34.69 	0.058687 	4754 	0.057948
34.71 	0.053924 	4766 	0.053186
34.73 	0.059745 	4787 	0.059011
34.75 	0.063644 	4808 	0.062791
34.77 	0.053134 	4818 	0.052263
34.79 	0.054726 	4824 	0.053755
34.81 	0.054283 	4845 	0.053074
34.83 	0.059441 	4862 	0.058236
34.85 	0.053810 	4869 	0.053208
34.87 	0.059367 	4868 	0.058405
34.89 	0.060631 	4882 	0.059431
34.91 	0.054486 	4882 	0.053766
34.93 	0.059604 	4899 	0.058269
34.95 	0.051534 	4890 	0.050795
34.97 	0.057528 	4902 	0.056811
34.99 	0.054727 	4897 	0.054369
35.01 	0.051798 	4923 	0.051203
35.03 	0.056646 	4943 	0.055816
35.05 	0.058015 	4947 	0.057423
35.07 	0.050810 	4940 	0.049861
35.09 	0.060569 	4953 	0.059741
35.11 	0.058621 	4947 	0.057911
35.13 	0.055466 	4958 	0.054639
35.15 	0.056512 	4937 	0.054931
35.17 	0.059846 	4946 	0.059017
35.19 	0.058276 	4942 	0.057328
35.21 	0.058241 	4945 	0.057767
35.23 	0.053185 	4945 	0.053067
35.25 	0.055027 	4943 	0.053605
35.27 	0.063056 	4948 	0.062109
35.29 	0.056016 	4945 	0.055187
35.31 	0.055544 	4933 	0.054476
35.33 	0.064940 	4943 	0.063755
35.35 	0.053420 	4942 	0.052452
35.37 	0.062968 	4939 	0.062019
35.39 	0.059050 	4945 	0.058220
35.41 	0.058668 	4926 	0.057460
35.43 	0.051693 	4933 	0.050248
35.45 	0.054892 	4937 	0.054061
35.47 	0.053133 	4931 	0.052183
35.49 	0.057841 	4910 	0.056767
35.51 	0.065976 	4926 	0.064193
35.53 	0.052738 	4949 	0.051298
35.55 	0.054803 	4945 	0.053855
35.57 	0.063450 	4933 	0.061788
35.59 	0.056421 	4945 	0.055710
35.61 	0.059288 	4942 	0.058814
35.63 	0.057455 	4943 	0.056151
35.65 	0.057634 	4945 	0.056904
35.67 	0.058074 	4942 	0.057106
35.69 	0.051152 	4946 	0.050087
35.71 	0.056107 	4937 	0.055632
35.73 	0.056321 	4936 	0.055372
35.75 	0.053133 	4931 	0.052163
35.77 	0.057766 	4951 	0.056820
35.79 	0.057786 	4932 	0.056004
35.81 	0.055139 	4933 	0.054783
35.83 	0.056207 	4946 	0.055260
35.85 	0.051266 	4935 	0.050673
35.87 	0.056470 	4923 	0.055637
35.89 	0.054520 	4934 	0.054025
35.91 	0.060686 	4927 	0.059378
35.93 	0.057439 	4927 	0.056963
35.95 	0.054301 	4917 	0.053229
35.97 	0.054764 	4912 	0.054048
35.99 	0.056084 	4939 	0.055610
36.01 	0.062677 	4930 	0.060638
36.03 	0.054218 	4943 	0.053863
36.05 	0.049949 	4945 	0.049594
36.07 	0.060944 	4939 	0.059876
36.09 	0.060931 	4940 	0.059232
36.11 	0.055995 	4929 	0.055163
36.13 	0.057669 	4942 	0.056602
36.15 	0.054060 	4939 	0.052873
36.17 	0.052386 	4925 	0.051791
36.19 	0.055263 	4940 	0.054789
36.21 	0.059241 	4929 	0.058409
36.23 	0.056738 	4935 	0.055669
36.25 	0.060312 	4941 	0.059363
36.27 	0.054619 	4925 	0.053668
36.29 	0.058812 	4931 	0.058218
36.31 	0.050731 	4928 	0.049998
36.33 	0.055342 	4933 	0.054629
36.35 	0.054981 	4929 	0.054030
36.37 	0.058704 	4923 	0.058109
36.39 	0.056899 	4921 	0.055312
36.41 	0.060049 	4896 	0.058853
36.43 	0.062297 	4928 	0.061465
36.45 	0.060446 	4930 	0.059496
36.47 	0.054295 	4936 	0.053346
36.49 	0.057062 	4942 	0.056351
36.51 	0.058788 	4933 	0.057363
36.53 	0.058871 	4943 	0.058042
36.55 	0.058859 	4927 	0.058008
36.57 	0.063032 	4934 	0.062438
36.59 	0.055882 	4939 	0.054459
36.61 	0.055364 	4931 	0.054532
36.63 	0.055770 	4931 	0.054582
36.65 	0.058394 	4932 	0.057206
36.67 	0.054158 	4930 	0.053445
36.69 	0.057212 	4929 	0.056618
36.71 	0.063808 	4921 	0.062479
36.73 	0.055228 	4925 	0.054158
36.75 	0.052184 	4944 	0.051711
36.77 	0.056312 	4919 	0.055955
36.79 	0.057509 	4921 	0.056318
36.81 	0.057771 	4916 	0.057294
36.83 	0.056765 	4915 	0.055812
36.85 	0.058595 	4898 	0.057041
36.87 	0.056634 	4944 	0.055805
36.89 	0.049024 	4916 	0.048904
36.91 	0.058895 	4941 	0.057828
36.93 	0.051116 	4930 	0.050165
36.95 	0.054125 	4933 	0.053532
36.97 	0.053506 	4934 	0.053031
36.99 	0.065046 	4935 	0.064333
37.01 	0.055139 	4933 	0.054545
37.03 	0.059301 	4924 	0.058588
37.05 	0.055003 	4927 	0.053913
37.07 	0.053698 	4935 	0.052630
37.09 	0.055398 	4928 	0.054922
37.11 	0.054914 	4935 	0.053846
37.13 	0.051584 	4924 	0.050513
37.15 	0.055816 	4909 	0.054981
37.17 	0.054317 	4934 	0.053486
37.19 	0.058477 	4925 	0.057169
37.21 	0.053285 	4917 	0.051954
37.23 	0.062627 	4918 	0.061416
37.25 	0.056200 	4911 	0.054749
37.27 	0.054557 	4894 	0.053479
37.29 	0.053347 	4930 	0.052159
37.31 	0.056940 	4935 	0.056228
37.33 	0.061092 	4927 	0.059665
37.35 	0.051640 	4938 	0.050573
37.37 	0.056424 	4927 	0.055116
37.39 	0.051105 	4931 	0.050511
37.41 	0.058203 	4931 	0.057134
37.43 	0.056975 	4932 	0.056500
37.45 	0.062551 	4924 	0.061718
37.47 	0.053966 	4929 	0.053016
37.49 	0.054845 	4923 	0.054369
37.51 	0.058788 	4933 	0.057007
37.53 	0.059565 	4919 	0.058731
37.55 	0.054564 	4930 	0.053495
37.57 	0.052183 	4925 	0.051469
37.59 	0.057172 	4915 	0.055861
37.61 	0.060544 	4922 	0.060068
37.63 	0.054279 	4919 	0.052850
37.65 	0.053070 	4918 	0.052356
37.67 	0.052610 	4904 	0.052132
37.69 	0.060229 	4898 	0.059391
37.71 	0.052140 	4929 	0.051289
37.73 	0.049909 	4929 	0.049314
37.75 	0.058300 	4940 	0.057944
37.77 	0.051423 	4920 	0.050827
37.79 	0.056795 	4930 	0.055607
37.81 	0.057571 	4933 	0.055909
37.83 	0.058943 	4920 	0.058229
37.85 	0.053230 	4922 	0.052873
37.87 	0.052237 	4939 	0.051288
37.89 	0.055025 	4925 	0.054312
37.91 	0.060041 	4930 	0.059090
37.93 	0.059972 	4919 	0.059257
37.95 	0.047755 	4921 	0.046802
37.97 	0.052546 	4929 	0.051714
37.99 	0.051303 	4912 	0.050826
38.01 	0.051542 	4928 	0.051067
38.03 	0.050316 	4909 	0.049719
38.05 	0.052995 	4925 	0.052281
38.07 	0.062742 	4909 	0.061549
38.09 	0.059861 	4878 	0.058900
38.11 	0.053901 	4935 	0.053189
38.13 	0.060968 	4937 	0.060138
38.15 	0.052460 	4918 	0.051269
38.17 	0.054767 	4930 	0.054410
38.19 	0.067343 	4930 	0.066392
38.21 	0.066220 	4923 	0.065030
38.23 	0.062373 	4938 	0.061306
38.25 	0.064267 	4917 	0.063195
38.27 	0.065314 	4930 	0.063651
38.29 	0.064582 	4924 	0.063134
38.31 	0.064136 	4927 	0.063166
38.33 	0.069862 	4924 	0.068296
38.35 	0.066761 	4928 	0.065553
38.37 	0.068846 	4924 	0.067419
38.39 	0.068853 	4909 	0.067660
38.41 	0.067642 	4923 	0.066095
38.43 	0.068959 	4916 	0.067290
38.45 	0.076454 	4918 	0.074905
38.47 	0.076218 	4907 	0.074666
38.49 	0.077712 	4877 	0.075530
38.51 	0.075831 	4932 	0.074050
38.53 	0.071617 	4929 	0.070072
38.55 	0.076175 	4936 	0.074751
38.57 	0.070485 	4923 	0.069653
38.59 	0.076767 	4924 	0.075101
38.61 	0.064019 	4936 	0.062833
38.63 	0.074330 	4924 	0.073259
38.65 	0.067507 	4918 	0.065959
38.67 	0.063399 	4937 	0.062568
38.69 	0.061357 	4922 	0.060405
38.71 	0.061332 	4924 	0.060262
38.73 	0.067507 	4918 	0.066316
38.75 	0.054394 	4927 	0.053919
38.77 	0.059720 	4923 	0.059363
38.79 	0.050872 	4934 	0.049566
38.81 	0.059243 	4912 	0.058527
38.83 	0.050620 	4919 	0.049667
38.85 	0.050489 	4912 	0.050131
38.87 	0.050906 	4911 	0.050429
38.89 	0.050439 	4897 	0.049961
38.91 	0.052621 	4903 	0.052023
38.93 	0.044350 	4938 	0.043757
38.95 	0.050224 	4918 	0.049747
38.97 	0.048469 	4931 	0.047756
38.99 	0.050233 	4937 	0.049996
39.01 	0.049004 	4918 	0.048408
39.03 	0.048439 	4934 	0.047608
39.05 	0.048122 	4925 	0.047289
39.07 	0.042851 	4924 	0.042237
39.09 	0.050985 	4923 	0.050747
39.11 	0.048266 	4931 	0.047553
39.13 	0.045298 	4923 	0.044703
39.15 	0.042319 	4915 	0.041843
39.17 	0.047397 	4937 	0.047160
39.19 	0.044336 	4917 	0.043740
39.21 	0.048880 	4910 	0.048164
39.23 	0.048731 	4925 	0.047898
39.25 	0.048151 	4922 	0.047794
39.27 	0.045010 	4910 	0.044294
39.29 	0.053050 	4901 	0.052572
39.31 	0.047502 	4884 	0.046902
39.33 	0.043196 	4931 	0.042959
39.35 	0.048024 	4935 	0.047431
39.37 	0.047271 	4929 	0.046439
39.39 	0.045242 	4929 	0.044510
39.41 	0.048469 	4931 	0.047875
39.43 	0.048044 	4933 	0.047688
39.45 	0.049746 	4925 	0.049389
39.47 	0.041235 	4923 	0.040997
39.49 	0.042165 	4933 	0.041928
39.51 	0.043867 	4924 	0.043629
39.53 	0.042251 	4923 	0.041894
39.55 	0.052653 	4919 	0.052038
39.57 	0.041760 	4933 	0.041285
39.59 	0.043974 	4912 	0.043020
39.61 	0.045298 	4923 	0.044941
39.63 	0.043275 	4922 	0.042680
39.65 	0.045067 	4926 	0.044235
39.67 	0.043558 	4913 	0.042723
39.69 	0.040073 	4916 	0.039716
39.71 	0.044535 	4895 	0.044057
39.73 	0.043399 	4908 	0.042921
39.75 	0.041802 	4928 	0.041564
39.77 	0.044174 	4935 	0.043699
39.79 	0.048924 	4926 	0.048686
39.81 	0.043434 	4927 	0.042602
39.83 	0.045197 	4934 	0.044840
39.85 	0.043434 	4927 	0.043315
39.87 	0.040203 	4925 	0.039608
39.89 	0.049250 	4934 	0.048300
39.91 	0.042869 	4922 	0.042155
39.93 	0.041321 	4937 	0.040846
39.95 	0.037640 	4915 	0.037521
39.97 	0.048093 	4928 	0.047736
39.99 	0.047445 	4932 	0.046733
40.01 	0.042294 	4918 	0.041817
40.03 	0.045252 	4928 	0.044875
40.05 	0.042099 	4917 	0.041622
40.07 	0.043876 	4923 	0.043043
40.09 	0.044142 	4916 	0.043903
40.11 	0.049430 	4916 	0.048477
40.13 	0.037582 	4896 	0.036505
40.15 	0.044779 	4913 	0.044183
40.17 	0.043425 	4928 	0.042118
40.19 	0.041388 	4929 	0.041031
40.21 	0.039919 	4935 	0.039682
40.23 	0.037510 	4932 	0.037035
40.25 	0.045122 	4920 	0.044646
40.27 	0.044156 	4937 	0.043800
40.29 	0.042825 	4927 	0.042469
40.31 	0.046163 	4939 	0.045689
40.33 	0.038727 	4932 	0.037895
40.35 	0.041472 	4919 	0.040876
40.37 	0.042808 	4929 	0.042451
40.39 	0.041979 	4931 	0.041385
40.41 	0.044467 	4925 	0.044110
40.43 	0.041447 	4922 	0.041328
40.45 	0.039530 	4933 	0.039055
40.47 	0.038024 	4918 	0.038024
40.49 	0.042631 	4926 	0.042017
40.51 	0.043478 	4922 	0.042883
40.53 	0.041294 	4916 	0.040936
40.55 	0.041769 	4908 	0.041530
40.57 	0.036401 	4890 	0.035922
40.59 	0.044359 	4937 	0.043766
40.61 	0.042756 	4935 	0.042400
40.63 	0.040568 	4930 	0.040211
40.65 	0.041726 	4937 	0.040777
40.67 	0.043998 	4932 	0.043405
40.69 	0.044764 	4937 	0.044289
40.71 	0.041565 	4932 	0.040734
40.73 	0.044255 	4926 	0.043304
40.75 	0.044616 	4931 	0.043784
40.77 	0.039077 	4939 	0.038484
40.79 	0.039399 	4924 	0.038923
40.81 	0.041692 	4941 	0.041099
40.83 	0.040990 	4928 	0.040515
40.85 	0.039399 	4924 	0.039399
40.87 	0.037744 	4928 	0.037268
40.89 	0.040560 	4931 	0.039827
40.91 	0.038188 	4923 	0.037831
40.93 	0.041751 	4934 	0.041276
40.95 	0.037248 	4913 	0.037010
40.97 	0.044476 	4924 	0.044238
40.99 	0.042445 	4924 	0.042207
41.01 	0.043770 	4912 	0.043532
41.03 	0.038532 	4905 	0.038054
41.05 	0.040113 	4936 	0.039876
41.07 	0.037120 	4930 	0.036506
41.09 	0.040696 	4939 	0.040222
41.11 	0.045998 	4935 	0.045266
41.13 	0.045178 	4936 	0.044110
41.15 	0.039668 	4941 	0.039312
41.17 	0.040535 	4934 	0.039941
41.19 	0.038742 	4930 	0.038624
41.21 	0.038687 	4937 	0.038332
41.23 	0.039077 	4939 	0.038958
41.25 	0.043787 	4933 	0.043312
41.27 	0.042385 	4931 	0.041910
41.29 	0.039367 	4928 	0.038773
41.31 	0.037705 	4933 	0.036874
41.33 	0.042739 	4937 	0.042501
41.35 	0.043337 	4938 	0.042507
41.37 	0.040211 	4924 	0.039616
41.39 	0.039530 	4933 	0.039055
41.41 	0.039180 	4926 	0.038704
41.43 	0.031649 	4929 	0.031531
41.45 	0.041311 	4914 	0.040476
41.47 	0.038774 	4926 	0.038417
41.49 	0.038430 	4892 	0.037712
41.51 	0.046559 	4940 	0.045709
41.53 	0.044296 	4944 	0.043822
41.55 	0.038095 	4935 	0.037620
41.57 	0.042299 	4941 	0.042062
41.59 	0.038719 	4933 	0.038006
41.61 	0.040581 	4953 	0.039990
41.63 	0.043135 	4938 	0.042404
41.65 	0.041591 	4929 	0.041115
41.67 	0.047166 	4940 	0.046929
41.69 	0.036386 	4947 	0.035794
41.71 	0.040535 	4934 	0.039348
41.73 	0.041126 	4936 	0.040533
41.75 	0.035910 	4929 	0.035197
41.77 	0.034001 	4941 	0.033646
41.79 	0.038228 	4944 	0.037754
41.81 	0.038088 	4936 	0.036901
41.83 	0.036729 	4928 	0.035877
41.85 	0.041101 	4939 	0.040508
41.87 	0.036272 	4935 	0.035915
41.89 	0.041760 	4933 	0.041403
41.91 	0.038088 	4936 	0.037969
41.93 	0.035483 	4932 	0.035364
41.95 	0.044413 	4931 	0.043819
41.97 	0.040293 	4914 	0.039578
41.99 	0.037309 	4905 	0.036692
42.01 	0.039053 	4942 	0.038579
42.03 	0.040494 	4939 	0.040257
42.05 	0.039378 	4952 	0.039023
42.07 	0.040713 	4937 	0.040238
42.09 	0.041431 	4948 	0.040721
42.11 	0.039434 	4945 	0.039434
42.13 	0.040647 	4945 	0.040647
42.15 	0.041110 	4938 	0.040734
42.17 	0.036397 	4918 	0.036159
42.19 	0.039935 	4908 	0.039457
42.21 	0.035299 	4901 	0.034821
42.23 	0.037408 	4892 	0.037049
42.25 	0.041113 	4889 	0.040753
42.27 	0.036110 	4874 	0.035389
42.29 	0.039687 	4863 	0.038965
42.31 	0.039341 	4855 	0.039100
42.33 	0.039926 	4834 	0.039077
42.35 	0.035759 	4838 	0.035516
42.37 	0.037681 	4830 	0.037681
42.39 	0.035179 	4804 	0.035057
42.41 	0.040175 	4804 	0.039565
42.43 	0.039858 	4792 	0.039736
42.45 	0.034966 	4776 	0.034599
42.47 	0.038825 	4765 	0.038456
42.49 	0.042183 	4765 	0.041937
42.51 	0.043643 	4743 	0.042902
42.53 	0.038706 	4728 	0.038334
42.55 	0.031223 	4708 	0.030850
42.57 	0.042706 	4730 	0.041943
42.59 	0.038063 	4729 	0.037815
42.61 	0.039295 	4708 	0.038797
42.63 	0.042897 	4709 	0.042503
42.65 	0.035432 	4685 	0.034932
42.67 	0.040137 	4684 	0.039511
42.69 	0.038939 	4674 	0.038688
42.71 	0.036028 	4663 	0.035777
42.73 	0.041595 	4640 	0.041090
42.75 	0.038986 	4617 	0.038479
42.77 	0.038478 	4600 	0.037842
42.79 	0.040157 	4582 	0.039774
42.81 	0.035072 	4562 	0.034559
42.83 	0.040564 	4536 	0.040177
42.85 	0.039532 	4528 	0.039014
42.87 	0.040009 	4499 	0.039488
42.89 	0.044196 	4480 	0.043673
42.91 	0.038824 	4456 	0.038298
42.93 	0.035088 	4446 	0.034692
42.95 	0.040082 	4416 	0.039286
42.97 	0.033402 	4401 	0.033002
42.99 	0.033523 	4385 	0.032989
43.01 	0.040110 	4363 	0.039841
43.03 	0.040849 	4333 	0.040444
43.05 	0.035376 	4325 	0.035105
43.07 	0.037244 	4296 	0.036835
43.09 	0.038991 	4283 	0.038581
43.11 	0.030787 	4255 	0.030512
43.13 	0.036110 	4237 	0.036110
43.15 	0.042320 	4206 	0.042042
43.17 	0.037090 	4179 	0.037090
43.19 	0.035050 	4194 	0.034771
43.21 	0.039070 	4172 	0.038649
43.23 	0.040443 	4154 	0.040020
43.25 	0.031923 	4135 	0.031498
43.27 	0.035566 	4105 	0.035281
43.29 	0.041463 	4100 	0.041035
43.31 	0.037509 	4079 	0.037222
43.33 	0.037028 	4051 	0.036739
43.35 	0.039435 	4032 	0.038999
43.37 	0.039851 	4015 	0.039413
43.39 	0.037231 	4002 	0.037085
43.41 	0.032981 	3972 	0.032686
43.43 	0.036111 	3960 	0.035667
43.45 	0.037611 	3935 	0.037462
43.47 	0.029584 	3921 	0.029435
43.49 	0.037721 	3897 	0.037571
43.51 	0.039979 	3877 	0.039526
43.53 	0.038830 	3863 	0.038375
43.55 	0.041161 	2964 	0.040765
43.57 	0.034853 	2238 	0.034329
43.59 	0.041237 	1746 	0.040566
43.61 	0.041451 	1351 	0.041451
43.63 	0.036963 	1001 	0.036378
43.65 	0.050946 	687 	0.050093
43.67 	0.021912 	502 	0.021912
43.69 	0.038147 	367 	0.038147
43.71 	0.033473 	239 	0.033473
43.73 	0.041667 	120 	0.041667
43.75 	0.187500 	16 	0.187500