File: Example_Data/25SC_s1_0010.001.dat
#F C:\frames\spec\25SC_s1_0010.001
#C title =s:10 frm:1 25SC_s1
#C wavelength =0.15406

#S 1  fr_average C:\frames\spec\25SC_s1_0010.001 C:\win32app\speccom\mask.axs chi 0 180 0 360 0.02
#C 2 theta =0.000000 to 180 deg
#C   q   =0.000000 to 81.568 nm^-1
#C  chi  =0.000000 to 360 deg
#C collumns:
#C  1 position (2theta or chi in degrees)
#C  2 average intensity (sum of all counts in the region divided with number of pixels)
#C  3 Number of pixels in region)
#C  4 error (sum of sqrt(intensity) for all pixels divided by number)
#N 4
#L TTh  Int  N_pix  Err
32.99 	0.114754 	61 	0.114754
33.01 	0.065292 	873 	0.065292
33.03 	0.063264 	1391 	0.062422
33.05 	0.058054 	1757 	0.056720
33.07 	0.056585 	2050 	0.056300
33.09 	0.057094 	2347 	0.056096
33.11 	0.063203 	2579 	0.061575
33.13 	0.058718 	2793 	0.057216
33.15 	0.060020 	2999 	0.058848
33.17 	0.061856 	3201 	0.060941
33.19 	0.053860 	3342 	0.052984
33.21 	0.055879 	3436 	0.054686
33.23 	0.051944 	3523 	0.051113
33.25 	0.065891 	3612 	0.065243
33.27 	0.062259 	3630 	0.060968
33.29 	0.057018 	3648 	0.056536
33.31 	0.057104 	3660 	0.056624
33.33 	0.063483 	3686 	0.061894
33.35 	0.052247 	3694 	0.050794
33.37 	0.054658 	3714 	0.054027
33.39 	0.054975 	3729 	0.054660
33.41 	0.062834 	3740 	0.061738
33.43 	0.064345 	3761 	0.063254
33.45 	0.061490 	3773 	0.059626
33.47 	0.064244 	3798 	0.062368
33.49 	0.062221 	3809 	0.060683
33.51 	0.066055 	3815 	0.065441
33.53 	0.055194 	3841 	0.054736
33.55 	0.062451 	3843 	0.061841
33.57 	0.062677 	3877 	0.060713
33.59 	0.059278 	3880 	0.058825
33.61 	0.057559 	3909 	0.056810
33.63 	0.055116 	3919 	0.053920
33.65 	0.052658 	3931 	0.052062
33.67 	0.054375 	3954 	0.053635
33.69 	0.059196 	3953 	0.059047
33.71 	0.057610 	3975 	0.057168
33.73 	0.066683 	4004 	0.065659
33.75 	0.065516 	3999 	0.064198
33.77 	0.062360 	4025 	0.061463
33.79 	0.058401 	4041 	0.056759
33.81 	0.057454 	4038 	0.056439
33.83 	0.057531 	4050 	0.056518
33.85 	0.056599 	4099 	0.056170
33.87 	0.059839 	4111 	0.058985
33.89 	0.062121 	4121 	0.061552
33.91 	0.059773 	4149 	0.058503
33.93 	0.062154 	4151 	0.060884
33.95 	0.056207 	4181 	0.054946
33.97 	0.060859 	4190 	0.060440
33.99 	0.066190 	4200 	0.064935
34.01 	0.059340 	4213 	0.058506
34.03 	0.063619 	4244 	0.061802
34.05 	0.057150 	4252 	0.056047
34.07 	0.059044 	4268 	0.058221
34.09 	0.062529 	4286 	0.061709
34.11 	0.058577 	4302 	0.057624
34.13 	0.056407 	4308 	0.055432
34.15 	0.062110 	4331 	0.061164
34.17 	0.057471 	4350 	0.056506
34.19 	0.060293 	4362 	0.059085
34.21 	0.054221 	4371 	0.053261
34.23 	0.063965 	4393 	0.061899
34.25 	0.054042 	4404 	0.052978
34.27 	0.054953 	4422 	0.054290
34.29 	0.063585 	4435 	0.062661
34.31 	0.056303 	4458 	0.055515
34.33 	0.062178 	4471 	0.060737
34.35 	0.062221 	4484 	0.060501
34.37 	0.063906 	4491 	0.062971
34.39 	0.062417 	4502 	0.060985
34.41 	0.055678 	4526 	0.054902
34.43 	0.059925 	4539 	0.059280
34.45 	0.049835 	4535 	0.049318
34.47 	0.054225 	4592 	0.053587
34.49 	0.059387 	4597 	0.058749
34.51 	0.055145 	4606 	0.054128
34.53 	0.057291 	4643 	0.056155
34.55 	0.057937 	4643 	0.056549
34.57 	0.058155 	4660 	0.056897
34.59 	0.054545 	4675 	0.053668
34.61 	0.057271 	4697 	0.056398
34.63 	0.053928 	4710 	0.053306
34.65 	0.060792 	4721 	0.059924
34.67 	0.059059 	4741 	0.058071
34.69 	0.058267 	4754 	0.057527
34.71 	0.061477 	4766 	0.060863
34.73 	0.061625 	4787 	0.060871
34.75 	0.055948 	4808 	0.054365
34.77 	0.053549 	4818 	0.052941
34.79 	0.061567 	4824 	0.061081
34.81 	0.054902 	4845 	0.053814
34.83 	0.059029 	4862 	0.057342
34.85 	0.051551 	4869 	0.051190
34.87 	0.054848 	4868 	0.054126
34.89 	0.059402 	4882 	0.058442
34.91 	0.060426 	4882 	0.059826
34.93 	0.059604 	4899 	0.058408
34.95 	0.055215 	4890 	0.054376
34.97 	0.060180 	4902 	0.058865
34.99 	0.061875 	4897 	0.060659
35.01 	0.055657 	4923 	0.054824
35.03 	0.061703 	4943 	0.060755
35.05 	0.054174 	4947 	0.052872
35.07 	0.055870 	4940 	0.054803
35.09 	0.054311 	4953 	0.053719
35.11 	0.055185 	4947 	0.054711
35.13 	0.054256 	4958 	0.052553
35.15 	0.055297 	4937 	0.054585
35.17 	0.066316 	4946 	0.065487
35.19 	0.052206 	4942 	0.051257
35.21 	0.057027 	4945 	0.056198
35.23 	0.055814 	4945 	0.054985
35.25 	0.062917 	4943 	0.061969
35.27 	0.060024 	4948 	0.059077
35.29 	0.054196 	4945 	0.053248
35.31 	0.058990 	4933 	0.058278
35.33 	0.056443 	4943 	0.055258
35.35 	0.051396 	4942 	0.050329
35.37 	0.055679 	4939 	0.055205
35.39 	0.060465 	4945 	0.058807
35.41 	0.055014 	4926 	0.054182
35.43 	0.052706 	4933 	0.051994
35.45 	0.055094 	4937 	0.054264
35.47 	0.059623 	4931 	0.059029
35.49 	0.058859 	4910 	0.058382
35.51 	0.056029 	4926 	0.054483
35.53 	0.061831 	4949 	0.061120
35.55 	0.057634 	4945 	0.056686
35.57 	0.062031 	4933 	0.061200
35.59 	0.053185 	4945 	0.052356
35.61 	0.061311 	4942 	0.059652
35.63 	0.057860 	4943 	0.057030
35.65 	0.056016 	4945 	0.055187
35.67 	0.059692 	4942 	0.058744
35.69 	0.065507 	4946 	0.064205
35.71 	0.061171 	4937 	0.060103
35.73 	0.058752 	4936 	0.057803
35.75 	0.052119 	4931 	0.051288
35.77 	0.059584 	4951 	0.058145
35.79 	0.056975 	4932 	0.056381
35.81 	0.056761 	4933 	0.055811
35.83 	0.050748 	4946 	0.050630
35.85 	0.056738 	4935 	0.055907
35.87 	0.059313 	4923 	0.058718
35.89 	0.057762 	4934 	0.056456
35.91 	0.060077 	4927 	0.059007
35.93 	0.056830 	4927 	0.055740
35.95 	0.059996 	4917 	0.058428
35.97 	0.055985 	4912 	0.055389
35.99 	0.057502 	4939 	0.057146
36.01 	0.060852 	4930 	0.059307
36.03 	0.064940 	4943 	0.063854
36.05 	0.052983 	4945 	0.052489
36.07 	0.055274 	4939 	0.054563
36.09 	0.062551 	4940 	0.061128
36.11 	0.058430 	4929 	0.057954
36.13 	0.054431 	4942 	0.053246
36.15 	0.056894 	4939 	0.056064
36.17 	0.056041 	4925 	0.055565
36.19 	0.059919 	4940 	0.058852
36.21 	0.061473 	4929 	0.059433
36.23 	0.056738 	4935 	0.055313
36.25 	0.060514 	4941 	0.059210
36.27 	0.055025 	4925 	0.053717
36.29 	0.059217 	4931 	0.058267
36.31 	0.053369 	4928 	0.052774
36.33 	0.063248 	4933 	0.062535
36.35 	0.056198 	4929 	0.055604
36.37 	0.066220 	4923 	0.065387
36.39 	0.058525 	4921 	0.057810
36.41 	0.061683 	4896 	0.060606
36.43 	0.062094 	4928 	0.060905
36.45 	0.062677 	4930 	0.061489
36.47 	0.055511 	4936 	0.053948
36.49 	0.058681 	4942 	0.057239
36.51 	0.067910 	4933 	0.066366
36.53 	0.056443 	4943 	0.056206
36.55 	0.069413 	4927 	0.068086
36.57 	0.064248 	4934 	0.063536
36.59 	0.058716 	4939 	0.057768
36.61 	0.060028 	4931 	0.058959
36.63 	0.062259 	4931 	0.061071
36.65 	0.057786 	4932 	0.056836
36.67 	0.060243 	4930 	0.059530
36.69 	0.062893 	4929 	0.062180
36.71 	0.062182 	4921 	0.060873
36.73 	0.059492 	4925 	0.059017
36.75 	0.058859 	4944 	0.057674
36.77 	0.063631 	4919 	0.062797
36.79 	0.053851 	4921 	0.052780
36.81 	0.056550 	4916 	0.055339
36.83 	0.058800 	4915 	0.057250
36.85 	0.066354 	4898 	0.065397
36.87 	0.057443 	4944 	0.056140
36.89 	0.057771 	4916 	0.057155
36.91 	0.059705 	4941 	0.058993
36.93 	0.051318 	4930 	0.050487
36.95 	0.057166 	4933 	0.056454
36.97 	0.057965 	4934 	0.056521
36.99 	0.058764 	4935 	0.057914
37.01 	0.065275 	4933 	0.063355
37.03 	0.063160 	4924 	0.062565
37.05 	0.063730 	4927 	0.062502
37.07 	0.062209 	4935 	0.061240
37.09 	0.060065 	4928 	0.059471
37.11 	0.057751 	4935 	0.056544
37.13 	0.055037 	4924 	0.054323
37.15 	0.063964 	4909 	0.062632
37.17 	0.057357 	4934 	0.055557
37.19 	0.061726 	4925 	0.060299
37.21 	0.061826 	4917 	0.061112
37.23 	0.054900 	4918 	0.054424
37.25 	0.065363 	4911 	0.064151
37.27 	0.062526 	4894 	0.061448
37.29 	0.057809 	4930 	0.057215
37.31 	0.056940 	4935 	0.056465
37.33 	0.055612 	4927 	0.055017
37.35 	0.055691 	4938 	0.054860
37.37 	0.060483 	4927 	0.059770
37.39 	0.061854 	4931 	0.060784
37.41 	0.054147 	4931 	0.053316
37.43 	0.060016 	4932 	0.058947
37.45 	0.060723 	4924 	0.059176
37.47 	0.057821 	4929 	0.057108
37.49 	0.057485 	4923 	0.056176
37.51 	0.060004 	4933 	0.058935
37.53 	0.058955 	4919 	0.058002
37.55 	0.062677 	4930 	0.061133
37.57 	0.059492 	4925 	0.058184
37.59 	0.055748 	4915 	0.054794
37.61 	0.052418 	4922 	0.052061
37.63 	0.055296 	4919 	0.054443
37.65 	0.056730 	4918 	0.056016
37.67 	0.054038 	4904 	0.052962
37.69 	0.053491 	4898 	0.052176
37.71 	0.058227 	4929 	0.057732
37.73 	0.057821 	4929 	0.056633
37.75 	0.054656 	4940 	0.053944
37.77 	0.052033 	4920 	0.051556
37.79 	0.051724 	4930 	0.051249
37.81 	0.055950 	4933 	0.054881
37.83 	0.049187 	4920 	0.047996
37.85 	0.047542 	4922 	0.047185
37.87 	0.056894 	4939 	0.056163
37.89 	0.059086 	4925 	0.057758
37.91 	0.046450 	4930 	0.045975
37.93 	0.051433 	4919 	0.050481
37.95 	0.057712 	4921 	0.056760
37.97 	0.054778 	4929 	0.054421
37.99 	0.054560 	4912 	0.053606
38.01 	0.056006 	4928 	0.054917
38.03 	0.057649 	4909 	0.056337
38.05 	0.054416 	4925 	0.053703
38.07 	0.054797 	4909 	0.054439
38.09 	0.061911 	4878 	0.061310
38.11 	0.048835 	4935 	0.048360
38.13 	0.062994 	4937 	0.062045
38.15 	0.049004 	4918 	0.048408
38.17 	0.054158 	4930 	0.053188
38.19 	0.051724 	4930 	0.050892
38.21 	0.050985 	4923 	0.050390
38.23 	0.055083 	4938 	0.054371
38.25 	0.058369 	4917 	0.058012
38.27 	0.053753 	4930 	0.052683
38.29 	0.055849 	4924 	0.055016
38.31 	0.058453 	4927 	0.057146
38.33 	0.055037 	4924 	0.054085
38.35 	0.055195 	4928 	0.054244
38.37 	0.058489 	4924 	0.057299
38.39 	0.058464 	4909 	0.057987
38.41 	0.066423 	4923 	0.065471
38.43 	0.062246 	4916 	0.061531
38.45 	0.063644 	4918 	0.062572
38.47 	0.062767 	4907 	0.060977
38.49 	0.059258 	4877 	0.058537
38.51 	0.070357 	4932 	0.068437
38.53 	0.067356 	4929 	0.066406
38.55 	0.066248 	4936 	0.064587
38.57 	0.067032 	4923 	0.065485
38.59 	0.068237 	4924 	0.067028
38.61 	0.069489 	4936 	0.068540
38.63 	0.072705 	4924 	0.071515
38.65 	0.067507 	4918 	0.066792
38.67 	0.073121 	4937 	0.071203
38.69 	0.071516 	4922 	0.069968
38.71 	0.070674 	4924 	0.069128
38.73 	0.076047 	4918 	0.074022
38.75 	0.070225 	4927 	0.068680
38.77 	0.077189 	4923 	0.075523
38.79 	0.067694 	4934 	0.066506
38.81 	0.066572 	4912 	0.065260
38.83 	0.066680 	4919 	0.065251
38.85 	0.073086 	4912 	0.071297
38.87 	0.064549 	4911 	0.063475
38.89 	0.066571 	4897 	0.065116
38.91 	0.059759 	4903 	0.058684
38.93 	0.058323 	4938 	0.057611
38.95 	0.068727 	4918 	0.067298
38.97 	0.057798 	4931 	0.056847
38.99 	0.056512 	4937 	0.056156
39.01 	0.061814 	4918 	0.060623
39.03 	0.054722 	4934 	0.053773
39.05 	0.053198 	4925 	0.052841
39.07 	0.050772 	4924 	0.050534
39.09 	0.050985 	4923 	0.049795
39.11 	0.054756 	4931 	0.053786
39.13 	0.049766 	4923 	0.049290
39.15 	0.045371 	4915 	0.044895
39.17 	0.044764 	4937 	0.044408
39.19 	0.051047 	4917 	0.050333
39.21 	0.049491 	4910 	0.048278
39.23 	0.048528 	4925 	0.047933
39.25 	0.051402 	4922 	0.050688
39.27 	0.050306 	4910 	0.049590
39.29 	0.054275 	4901 	0.053438
39.31 	0.042588 	4884 	0.042588
39.33 	0.052119 	4931 	0.051525
39.35 	0.046201 	4935 	0.044638
39.37 	0.043822 	4929 	0.043228
39.39 	0.045445 	4929 	0.044832
39.41 	0.048672 	4931 	0.048196
39.43 	0.040949 	4933 	0.040355
39.45 	0.038782 	4925 	0.038544
39.47 	0.043876 	4923 	0.042924
39.49 	0.050476 	4933 	0.049526
39.51 	0.049147 	4924 	0.048671
39.53 	0.043876 	4923 	0.043281
39.55 	0.046554 	4919 	0.046316
39.57 	0.044800 	4933 	0.044325
39.59 	0.047435 	4912 	0.046819
39.61 	0.048345 	4923 	0.047631
39.63 	0.046119 	4922 	0.045524
39.65 	0.048315 	4926 	0.047720
39.67 	0.043354 	4913 	0.042758
39.69 	0.046786 	4916 	0.046190
39.71 	0.046578 	4895 	0.046339
39.73 	0.045232 	4908 	0.044755
39.75 	0.049919 	4928 	0.049206
39.77 	0.047214 	4935 	0.046502
39.79 	0.047503 	4926 	0.046433
39.81 	0.046276 	4927 	0.045562
39.83 	0.044791 	4934 	0.044554
39.85 	0.046479 	4927 	0.046241
39.87 	0.041827 	4925 	0.041471
39.89 	0.045197 	4934 	0.044959
39.91 	0.045307 	4922 	0.044831
39.93 	0.045169 	4937 	0.044932
39.95 	0.047202 	4915 	0.046607
39.97 	0.042005 	4928 	0.041529
39.99 	0.050689 	4932 	0.049858
40.01 	0.047377 	4918 	0.047139
40.03 	0.043831 	4928 	0.043475
40.05 	0.046573 	4917 	0.046097
40.07 	0.045094 	4923 	0.044618
40.09 	0.046379 	4916 	0.045426
40.11 	0.042921 	4916 	0.042325
40.13 	0.044118 	4896 	0.043280
40.15 	0.042744 	4913 	0.042148
40.17 	0.039773 	4928 	0.039416
40.19 	0.035707 	4929 	0.035588
40.21 	0.038906 	4935 	0.038668
40.23 	0.046431 	4932 	0.045481
40.25 	0.050000 	4920 	0.049881
40.27 	0.041118 	4937 	0.040406
40.29 	0.040593 	4927 	0.040117
40.31 	0.035837 	4939 	0.035481
40.33 	0.046634 	4932 	0.045922
40.35 	0.043911 	4919 	0.043415
40.37 	0.044634 	4929 	0.044158
40.39 	0.041777 	4931 	0.040945
40.41 	0.041421 	4925 	0.041064
40.43 	0.042462 	4922 	0.041986
40.45 	0.040138 	4933 	0.039544
40.47 	0.046157 	4918 	0.045085
40.49 	0.033699 	4926 	0.033461
40.51 	0.047135 	4922 	0.046302
40.53 	0.042921 	4916 	0.042087
40.55 	0.039731 	4908 	0.039254
40.57 	0.042331 	4890 	0.041972
40.59 	0.041726 	4937 	0.041370
40.61 	0.044377 	4935 	0.044021
40.63 	0.043408 	4930 	0.042438
40.65 	0.037270 	4937 	0.036676
40.67 	0.037713 	4932 	0.037475
40.69 	0.042333 	4937 	0.041503
40.71 	0.043187 	4932 	0.042811
40.73 	0.043240 	4926 	0.042883
40.75 	0.048672 	4931 	0.047840
40.77 	0.039684 	4939 	0.039328
40.79 	0.042242 	4924 	0.041885
40.81 	0.039061 	4941 	0.038942
40.83 	0.047281 	4928 	0.046687
40.85 	0.045898 	4924 	0.045422
40.87 	0.042817 	4928 	0.041846
40.89 	0.037923 	4931 	0.037686
40.91 	0.040829 	4923 	0.040472
40.93 	0.042156 	4934 	0.041543
40.95 	0.045797 	4913 	0.045320
40.97 	0.041836 	4924 	0.041479
40.99 	0.046913 	4924 	0.045961
41.01 	0.044585 	4912 	0.044108
41.03 	0.038940 	4905 	0.038343
41.05 	0.042139 	4936 	0.041783
41.07 	0.043813 	4930 	0.042982
41.09 	0.041101 	4939 	0.040864
41.11 	0.040729 	4935 	0.040255
41.13 	0.040721 	4936 	0.039772
41.15 	0.044323 	4941 	0.043375
41.17 	0.042967 	4934 	0.042611
41.19 	0.043611 	4930 	0.042898
41.21 	0.046992 	4937 	0.046517
41.23 	0.048390 	4939 	0.048153
41.25 	0.042773 	4933 	0.042298
41.27 	0.041574 	4931 	0.041099
41.29 	0.040381 	4928 	0.039668
41.31 	0.041151 	4933 	0.040795
41.33 	0.041928 	4937 	0.040604
41.35 	0.038477 	4938 	0.037746
41.37 	0.047725 	4924 	0.047131
41.39 	0.041354 	4933 	0.040998
41.41 	0.039586 	4926 	0.039467
41.43 	0.046865 	4929 	0.045915
41.45 	0.044974 	4914 	0.044139
41.47 	0.046488 	4926 	0.046250
41.49 	0.040474 	4892 	0.039876
41.51 	0.042308 	4940 	0.042189
41.53 	0.040655 	4944 	0.040300
41.55 	0.041945 	4935 	0.041470
41.57 	0.040680 	4941 	0.040087
41.59 	0.037908 	4933 	0.037552
41.61 	0.041995 	4953 	0.040930
41.63 	0.040907 	4938 	0.040670
41.65 	0.041185 	4929 	0.040591
41.67 	0.040891 	4940 	0.040416
41.69 	0.038205 	4947 	0.037850
41.71 	0.041346 	4934 	0.040990
41.73 	0.037682 	4936 	0.037445
41.75 	0.042402 	4929 	0.042046
41.77 	0.034001 	4941 	0.033527
41.79 	0.041262 	4944 	0.040769
41.81 	0.042342 	4936 	0.042105
41.83 	0.034700 	4928 	0.034105
41.85 	0.036850 	4939 	0.036731
41.87 	0.038906 	4935 	0.038431
41.89 	0.046017 	4933 	0.045542
41.91 	0.039708 	4936 	0.039352
41.93 	0.044809 	4932 	0.043859
41.95 	0.036909 	4931 	0.036553
41.97 	0.044160 	4914 	0.043683
41.99 	0.039348 	4905 	0.039228
42.01 	0.036625 	4942 	0.036388
42.03 	0.041101 	4939 	0.040864
42.05 	0.037763 	4952 	0.037171
42.07 	0.041321 	4937 	0.040965
42.09 	0.043250 	4948 	0.042658
42.11 	0.043276 	4945 	0.042684
42.13 	0.043276 	4945 	0.042921
42.15 	0.036655 	4938 	0.036299
42.17 	0.040464 	4918 	0.039372
42.19 	0.042176 	4908 	0.041937
42.21 	0.040196 	4901 	0.039479
42.23 	0.043336 	4892 	0.042857
42.25 	0.037636 	4889 	0.036917
42.27 	0.039188 	4874 	0.038346
42.29 	0.039893 	4863 	0.039411
42.31 	0.045520 	4855 	0.044626
42.33 	0.039305 	4834 	0.038941
42.35 	0.045680 	4838 	0.045559
42.37 	0.036853 	4830 	0.036610
42.39 	0.033306 	4804 	0.033184
42.41 	0.037469 	4804 	0.036737
42.43 	0.037145 	4792 	0.037023
42.45 	0.040201 	4776 	0.039465
42.47 	0.045331 	4765 	0.044593
42.49 	0.040084 	4765 	0.039469
42.51 	0.040902 	4743 	0.040408
42.53 	0.043359 	4728 	0.043111
42.55 	0.034410 	4708 	0.034161
42.57 	0.041226 	4730 	0.040483
42.59 	0.035948 	4729 	0.035329
42.61 	0.040782 	4708 	0.039662
42.63 	0.039286 	4709 	0.038913
42.65 	0.036926 	4685 	0.036926
42.67 	0.034586 	4684 	0.034211
42.69 	0.041720 	4674 	0.041595
42.71 	0.035170 	4663 	0.034919
42.73 	0.040086 	4640 	0.039455
42.75 	0.040936 	4617 	0.040428
42.77 	0.039565 	4600 	0.039056
42.79 	0.039721 	4582 	0.039209
42.81 	0.040991 	4562 	0.040477
42.83 	0.041446 	4536 	0.041188
42.85 	0.038869 	4528 	0.038093
42.87 	0.037342 	4499 	0.036951
42.89 	0.042411 	4480 	0.042018
42.91 	0.040395 	4456 	0.039343
42.93 	0.037787 	4446 	0.037523
42.95 	0.038270 	4416 	0.038137
42.97 	0.037264 	4401 	0.036998
42.99 	0.040365 	4385 	0.040098
43.01 	0.040110 	4363 	0.039573
43.03 	0.035541 	4333 	0.035271
43.05 	0.041156 	4325 	0.040343
43.07 	0.039804 	4296 	0.039668
43.09 	0.040859 	4283 	0.040722
43.11 	0.041598 	4255 	0.041323
43.13 	0.039179 	4237 	0.038626
43.15 	0.032335 	4206 	0.032335
43.17 	0.041397 	4179 	0.040977
43.19 	0.038627 	4194 	0.038208
43.21 	0.038591 	4172 	0.038029
43.23 	0.041406 	4154 	0.040983
43.25 	0.037969 	4135 	0.037402
43.27 	0.038246 	4105 	0.038103
43.29 	0.034146 	4100 	0.033575
43.31 	0.035548 	4079 	0.035117
43.33 	0.035794 	4051 	0.035360
43.35 	0.037202 	4032 	0.036743
43.37 	0.037111 	4015 	0.036527
43.39 	0.044478 	4002 	0.043746
43.41 	0.039275 	3972 	0.038685
43.43 	0.043434 	3960 	0.043138
43.45 	0.040152 	3935 	0.039110
43.47 	0.040551 	3921 	0.040103
43.49 	0.036182 	3897 	0.035580
43.51 	0.044106 	3877 	0.043779
43.53 	0.037018 	3863 	0.036563
43.55 	0.032389 	2964 	0.032191
43.57 	0.036640 	2238 	0.036640
43.59 	0.036082 	1746 	0.035076
43.61 	0.032568 	1351 	0.032568
43.63 	0.037962 	1001 	0.037377
43.65 	0.037846 	687 	0.036993
43.67 	0.033865 	502 	0.033865
43.69 	0.038147 	367 	0.036551
43.71 	0.046025 	239 	0.043574
43.73 	0.075000 	120 	0.070118
43.75 	0.000000 	16 	0.000000