File: Example_Data/25SC_s1_0016.002.dat
#F C:\frames\spec\25SC_s1_0016.002
#C title =s:16 frm:2 25SC_s1
#C wavelength =0.15406

#S 1  fr_average C:\frames\spec\25SC_s1_0016.002 C:\win32app\speccom\mask.axs chi 0 180 0 360 0.02
#C 2 theta =0.000000 to 180 deg
#C   q   =0.000000 to 81.568 nm^-1
#C  chi  =0.000000 to 360 deg
#C collumns:
#C  1 position (2theta or chi in degrees)
#C  2 average intensity (sum of all counts in the region divided with number of pixels)
#C  3 Number of pixels in region)
#C  4 error (sum of sqrt(intensity) for all pixels divided by number)
#N 4
#L TTh  Int  N_pix  Err
32.99 	0.065574 	61 	0.065574
33.01 	0.051546 	873 	0.049533
33.03 	0.051042 	1391 	0.050621
33.05 	0.058623 	1757 	0.057901
33.07 	0.061463 	2050 	0.060320
33.09 	0.062207 	2347 	0.060460
33.11 	0.050019 	2579 	0.049338
33.13 	0.061224 	2793 	0.059547
33.15 	0.048683 	2999 	0.048292
33.17 	0.064667 	3201 	0.063386
33.19 	0.063136 	3342 	0.062084
33.21 	0.062573 	3436 	0.061891
33.23 	0.059324 	3523 	0.058493
33.25 	0.059524 	3612 	0.058524
33.27 	0.061983 	3630 	0.060692
33.29 	0.057840 	3648 	0.057037
33.31 	0.059290 	3660 	0.058169
33.33 	0.062127 	3686 	0.061173
33.35 	0.060368 	3694 	0.060051
33.37 	0.061928 	3714 	0.060035
33.39 	0.069187 	3729 	0.067434
33.41 	0.062299 	3740 	0.060890
33.43 	0.056102 	3761 	0.055168
33.45 	0.065995 	3773 	0.064598
33.47 	0.058715 	3798 	0.056864
33.49 	0.062746 	3809 	0.061516
33.51 	0.053735 	3815 	0.053121
33.53 	0.059360 	3841 	0.057937
33.55 	0.058548 	3843 	0.057481
33.57 	0.058550 	3877 	0.057468
33.59 	0.066753 	3880 	0.065092
33.61 	0.062420 	3909 	0.061821
33.63 	0.062261 	3919 	0.060916
33.65 	0.060544 	3931 	0.059650
33.67 	0.058928 	3954 	0.057742
33.69 	0.060713 	3953 	0.059824
33.71 	0.057610 	3975 	0.056873
33.73 	0.049950 	4004 	0.048633
33.75 	0.064516 	3999 	0.062758
33.77 	0.055404 	4025 	0.054967
33.79 	0.067310 	4041 	0.066440
33.81 	0.056711 	4038 	0.055986
33.83 	0.056296 	4050 	0.054995
33.85 	0.058307 	4099 	0.057307
33.87 	0.059353 	4111 	0.058356
33.89 	0.055084 	4121 	0.055084
33.91 	0.060014 	4149 	0.058603
33.93 	0.064804 	4151 	0.063957
33.95 	0.062664 	4181 	0.061403
33.97 	0.054893 	4190 	0.054054
33.99 	0.058810 	4200 	0.058252
34.01 	0.064325 	4213 	0.062934
34.03 	0.061027 	4244 	0.059923
34.05 	0.058325 	4252 	0.056512
34.07 	0.058810 	4268 	0.057140
34.09 	0.053896 	4286 	0.053213
34.11 	0.058810 	4302 	0.057834
34.13 	0.054550 	4308 	0.054142
34.15 	0.063496 	4331 	0.062797
34.17 	0.057701 	4350 	0.056332
34.19 	0.054562 	4362 	0.054025
34.21 	0.056738 	4371 	0.056202
34.23 	0.057592 	4393 	0.056392
34.25 	0.058810 	4404 	0.058012
34.27 	0.054726 	4422 	0.053137
34.29 	0.054566 	4435 	0.053773
34.31 	0.051817 	4458 	0.051554
34.33 	0.063297 	4471 	0.062489
34.35 	0.053747 	4484 	0.052571
34.37 	0.054776 	4491 	0.054515
34.39 	0.059307 	4502 	0.058006
34.41 	0.060981 	4526 	0.059816
34.43 	0.056180 	4539 	0.055793
34.45 	0.053142 	4535 	0.052238
34.47 	0.055531 	4592 	0.054894
34.49 	0.054383 	4597 	0.053364
34.51 	0.056665 	4606 	0.055775
34.53 	0.055352 	4643 	0.054721
34.55 	0.057721 	4643 	0.056712
34.57 	0.061803 	4660 	0.061551
34.59 	0.053048 	4675 	0.051795
34.61 	0.055780 	4697 	0.055032
34.63 	0.060510 	4710 	0.059515
34.65 	0.059309 	4721 	0.058069
34.67 	0.056739 	4741 	0.055854
34.69 	0.055111 	4754 	0.053879
34.71 	0.057700 	4766 	0.057332
34.73 	0.054105 	4787 	0.053248
34.75 	0.063436 	4808 	0.062461
34.77 	0.055210 	4818 	0.054217
34.79 	0.058665 	4824 	0.057188
34.81 	0.052425 	4845 	0.052062
34.83 	0.054504 	4862 	0.053260
34.85 	0.062230 	4869 	0.060767
34.87 	0.059162 	4868 	0.058199
34.89 	0.055100 	4882 	0.054001
34.91 	0.055510 	4882 	0.054430
34.93 	0.057767 	4899 	0.057049
34.95 	0.057260 	4890 	0.055783
34.97 	0.051408 	4902 	0.050432
34.99 	0.063508 	4897 	0.062671
35.01 	0.054235 	4923 	0.053402
35.03 	0.060085 	4943 	0.059117
35.05 	0.062866 	4947 	0.061801
35.07 	0.058097 	4940 	0.057267
35.09 	0.056531 	4953 	0.054876
35.11 	0.061249 	4947 	0.060302
35.13 	0.053651 	4958 	0.052942
35.15 	0.057525 	4937 	0.056813
35.17 	0.060049 	4946 	0.059101
35.19 	0.059085 	4942 	0.057900
35.21 	0.056825 	4945 	0.055640
35.23 	0.052983 	4945 	0.051660
35.25 	0.058669 	4943 	0.057958
35.27 	0.056993 	4948 	0.055789
35.29 	0.058645 	4945 	0.058053
35.31 	0.061423 	4933 	0.060810
35.33 	0.058062 	4943 	0.057114
35.35 	0.057669 	4942 	0.056602
35.37 	0.061348 	4939 	0.060044
35.39 	0.058038 	4945 	0.057071
35.41 	0.061713 	4926 	0.060148
35.43 	0.053720 	4933 	0.052770
35.45 	0.058335 	4937 	0.057623
35.47 	0.061854 	4931 	0.060052
35.49 	0.059267 	4910 	0.057954
35.51 	0.059683 	4926 	0.058494
35.53 	0.058396 	4949 	0.057094
35.55 	0.060465 	4945 	0.059754
35.57 	0.063248 	4933 	0.062416
35.59 	0.059050 	4945 	0.057983
35.61 	0.058074 	4942 	0.056869
35.63 	0.057050 	4943 	0.056339
35.65 	0.062487 	4945 	0.061540
35.67 	0.058883 	4942 	0.058290
35.69 	0.059240 	4946 	0.058648
35.71 	0.057525 	4937 	0.056694
35.73 	0.053485 	4936 	0.052654
35.75 	0.060637 	4931 	0.059310
35.77 	0.053727 	4951 	0.052761
35.79 	0.062247 	4932 	0.060821
35.81 	0.058990 	4933 	0.058278
35.83 	0.059644 	4946 	0.057967
35.85 	0.054103 	4935 	0.052560
35.87 	0.059110 	4923 	0.058158
35.89 	0.059181 	4934 	0.058212
35.91 	0.058047 	4927 	0.057215
35.93 	0.064136 	4927 	0.063542
35.95 	0.056945 	4917 	0.055635
35.97 	0.053339 	4912 	0.051888
35.99 	0.060336 	4939 	0.059624
36.01 	0.061055 	4930 	0.060322
36.03 	0.055027 	4943 	0.054198
36.05 	0.061881 	4945 	0.059610
36.07 	0.056489 	4939 	0.055896
36.09 	0.057085 	4940 	0.056018
36.11 	0.055184 	4929 	0.054352
36.13 	0.055645 	4942 	0.054697
36.15 	0.055072 	4939 	0.054104
36.17 	0.057259 	4925 	0.055832
36.19 	0.053036 	4940 	0.052325
36.21 	0.059850 	4929 	0.058899
36.23 	0.060993 	4935 	0.059806
36.25 	0.056871 	4941 	0.055567
36.27 	0.056447 	4925 	0.055852
36.29 	0.057189 	4931 	0.056595
36.31 	0.062500 	4928 	0.061430
36.33 	0.056152 	4933 	0.055302
36.35 	0.060459 	4929 	0.059627
36.37 	0.055454 	4923 	0.054502
36.39 	0.055680 	4921 	0.054370
36.41 	0.056577 	4896 	0.055979
36.43 	0.056006 	4928 	0.055412
36.45 	0.058418 	4930 	0.057348
36.47 	0.063412 	4936 	0.062106
36.49 	0.056860 	4942 	0.056148
36.51 	0.060612 	4933 	0.059187
36.53 	0.057455 	4943 	0.056270
36.55 	0.062107 	4927 	0.060423
36.57 	0.061005 	4934 	0.059699
36.59 	0.059526 	4939 	0.058933
36.61 	0.060231 	4931 	0.058667
36.63 	0.057392 	4931 	0.056798
36.65 	0.058191 	4932 	0.057360
36.67 	0.062272 	4930 	0.060014
36.69 	0.057212 	4929 	0.055291
36.71 	0.053851 	4921 	0.053137
36.73 	0.064162 	4925 	0.062359
36.75 	0.055421 	4944 	0.054828
36.77 	0.063834 	4919 	0.062881
36.79 	0.058118 	4921 	0.056809
36.81 	0.056347 	4916 	0.054540
36.83 	0.061038 	4915 	0.059369
36.85 	0.064924 	4898 	0.063848
36.87 	0.060680 	4944 	0.059376
36.89 	0.061025 	4916 	0.060072
36.91 	0.056062 	4941 	0.055232
36.93 	0.062272 	4930 	0.060589
36.95 	0.055139 	4933 	0.053932
36.97 	0.057560 	4934 	0.056610
36.99 	0.055927 	4935 	0.055452
37.01 	0.054936 	4933 	0.053986
37.03 	0.055443 	4924 	0.054828
37.05 	0.055612 	4927 	0.054542
37.07 	0.058561 	4935 	0.057612
37.09 	0.059456 	4928 	0.058386
37.11 	0.060790 	4935 	0.059465
37.13 	0.056661 	4924 	0.056304
37.15 	0.057853 	4909 	0.056898
37.17 	0.058370 	4934 	0.057282
37.19 	0.053198 	4925 	0.052365
37.21 	0.057759 	4917 	0.056687
37.23 	0.053477 	4918 	0.052762
37.25 	0.052535 	4911 	0.051462
37.27 	0.055987 	4894 	0.055628
37.29 	0.062272 	4930 	0.061559
37.31 	0.054103 	4935 	0.052916
37.33 	0.065151 	4927 	0.063487
37.35 	0.054475 	4938 	0.053882
37.37 	0.053176 	4927 	0.052206
37.39 	0.051308 	4931 	0.050595
37.41 	0.059420 	4931 	0.058470
37.43 	0.054947 	4932 	0.054591
37.45 	0.049756 	4924 	0.049043
37.47 	0.053763 	4929 	0.052218
37.49 	0.053626 	4923 	0.052773
37.51 	0.055139 	4933 	0.054070
37.53 	0.051637 	4919 	0.050922
37.55 	0.056389 	4930 	0.055895
37.57 	0.060102 	4925 	0.059745
37.59 	0.057375 	4915 	0.056184
37.61 	0.059732 	4922 	0.058423
37.63 	0.051840 	4919 	0.051244
37.65 	0.055307 	4918 	0.054354
37.67 	0.052814 	4904 	0.052456
37.69 	0.052470 	4898 	0.051992
37.71 	0.053155 	4929 	0.052422
37.73 	0.054575 	4929 	0.054337
37.75 	0.056883 	4940 	0.055914
37.77 	0.059553 	4920 	0.058481
37.79 	0.051318 	4930 	0.050487
37.81 	0.050274 	4933 	0.049542
37.83 	0.053659 	4920 	0.053301
37.85 	0.054043 	4922 	0.053329
37.87 	0.055882 	4939 	0.055763
37.89 	0.053401 	4925 	0.052212
37.91 	0.052941 	4930 	0.052347
37.93 	0.053466 	4919 	0.052156
37.95 	0.059338 	4921 	0.058504
37.97 	0.052749 	4929 	0.052274
37.99 	0.049267 	4912 	0.048432
38.01 	0.055804 	4928 	0.055328
38.03 	0.050927 	4909 	0.050688
38.05 	0.050558 	4925 	0.050083
38.07 	0.049501 	4909 	0.048904
38.09 	0.051661 	4878 	0.051180
38.11 	0.049240 	4935 	0.048765
38.13 	0.052461 	4937 	0.051868
38.15 	0.054697 	4918 	0.053486
38.17 	0.049899 	4930 	0.049067
38.19 	0.055578 	4930 	0.054271
38.21 	0.057688 	4923 	0.056499
38.23 	0.049210 	4938 	0.048854
38.25 	0.059386 	4917 	0.058413
38.27 	0.054361 	4930 	0.053648
38.29 	0.054427 	4924 	0.053357
38.31 	0.066166 	4927 	0.065334
38.33 	0.055443 	4924 	0.054848
38.35 	0.057427 	4928 	0.056595
38.37 	0.060114 	4924 	0.059757
38.39 	0.061112 	4909 	0.060158
38.41 	0.054032 	4923 	0.053437
38.43 	0.059601 	4916 	0.058886
38.45 	0.059780 	4918 	0.057974
38.47 	0.060322 	4907 	0.059725
38.49 	0.064999 	4877 	0.063197
38.51 	0.072993 	4932 	0.072043
38.53 	0.062487 	4929 	0.060467
38.55 	0.057334 	4936 	0.056484
38.57 	0.067235 	4923 	0.066521
38.59 	0.060114 	4924 	0.059638
38.61 	0.064830 	4936 	0.063168
38.63 	0.066816 	4924 	0.065388
38.65 	0.071167 	4918 	0.070214
38.67 	0.069475 	4937 	0.068368
38.69 	0.063186 	4922 	0.062115
38.71 	0.058692 	4924 	0.057621
38.73 	0.059374 	4918 	0.058064
38.75 	0.056221 	4927 	0.055389
38.77 	0.058704 	4923 	0.057871
38.79 	0.059384 	4934 	0.057959
38.81 	0.053542 	4912 	0.052946
38.83 	0.060378 	4919 	0.058830
38.85 	0.060261 	4912 	0.058472
38.87 	0.053960 	4911 	0.053483
38.89 	0.052481 	4897 	0.051644
38.91 	0.063227 	4903 	0.061793
38.93 	0.049210 	4938 	0.048498
38.95 	0.053070 	4918 	0.052117
38.97 	0.045224 	4931 	0.044393
38.99 	0.049220 	4937 	0.048034
39.01 	0.047174 	4918 	0.046459
39.03 	0.050872 	4934 	0.050397
39.05 	0.046701 	4925 	0.046225
39.07 	0.046507 	4924 	0.046031
39.09 	0.052407 	4923 	0.051455
39.11 	0.046441 	4931 	0.045728
39.13 	0.054438 	4923 	0.054200
39.15 	0.041709 	4915 	0.041352
39.17 	0.047600 	4937 	0.047125
39.19 	0.047997 	4917 	0.047282
39.21 	0.047658 	4910 	0.046465
39.23 	0.047513 	4925 	0.046799
39.25 	0.045916 	4922 	0.045440
39.27 	0.043177 	4910 	0.042700
39.29 	0.050398 	4901 	0.050278
39.31 	0.043407 	4884 	0.042687
39.33 	0.041168 	4931 	0.041049
39.35 	0.049443 	4935 	0.048256
39.37 	0.047677 	4929 	0.047182
39.39 	0.043619 	4929 	0.043382
39.41 	0.044818 	4931 	0.043868
39.43 	0.042976 	4933 	0.042501
39.45 	0.048325 	4925 	0.047373
39.47 	0.047126 	4923 	0.046174
39.49 	0.046422 	4933 	0.045472
39.51 	0.045695 	4924 	0.045219
39.53 	0.042454 	4923 	0.042454
39.55 	0.043911 	4919 	0.042840
39.57 	0.048855 	4933 	0.048261
39.59 	0.048453 	4912 	0.048214
39.61 	0.047532 	4923 	0.047175
39.63 	0.052824 	4922 	0.052229
39.65 	0.051360 	4926 	0.051122
39.67 	0.047629 	4913 	0.047033
39.69 	0.043328 	4916 	0.043090
39.71 	0.050255 	4895 	0.049059
39.73 	0.049715 	4908 	0.048999
39.75 	0.040179 	4928 	0.039684
39.77 	0.051874 	4935 	0.051043
39.79 	0.044458 	4926 	0.044101
39.81 	0.046479 	4927 	0.046003
39.83 	0.051682 	4934 	0.051089
39.85 	0.048914 	4927 	0.048439
39.87 	0.040812 	4925 	0.040336
39.89 	0.048237 	4934 	0.047762
39.91 	0.042259 	4922 	0.041783
39.93 	0.048613 	4937 	0.047901
39.95 	0.048830 	4915 	0.047996
39.97 	0.048295 	4928 	0.048058
39.99 	0.044607 	4932 	0.044250
40.01 	0.047784 	4918 	0.046454
40.03 	0.044846 	4928 	0.044014
40.05 	0.041082 	4917 	0.040486
40.07 	0.048141 	4923 	0.047903
40.09 	0.044345 	4916 	0.043630
40.11 	0.043328 	4916 	0.042851
40.13 	0.044118 	4896 	0.043280
40.15 	0.045797 	4913 	0.045439
40.17 	0.047890 	4928 	0.046820
40.19 	0.043417 	4929 	0.043179
40.21 	0.045390 	4935 	0.044678
40.23 	0.045823 	4932 	0.045111
40.25 	0.040041 	4920 	0.039326
40.27 	0.047397 	4937 	0.047160
40.29 	0.042622 	4927 	0.042266
40.31 	0.044948 	4939 	0.044593
40.33 	0.047445 	4932 	0.046495
40.35 	0.046148 	4919 	0.045195
40.37 	0.044431 	4929 	0.043718
40.39 	0.049483 	4931 	0.048651
40.41 	0.045482 	4925 	0.045363
40.43 	0.046526 	4922 	0.046169
40.45 	0.038516 	4933 	0.038397
40.47 	0.048394 	4918 	0.047917
40.49 	0.045270 	4926 	0.044556
40.51 	0.045510 	4922 	0.044677
40.53 	0.040480 	4916 	0.039646
40.55 	0.041565 	4908 	0.041087
40.57 	0.042945 	4890 	0.042087
40.59 	0.043144 	4937 	0.042788
40.61 	0.045187 	4935 	0.044831
40.63 	0.047059 	4930 	0.045989
40.65 	0.041928 	4937 	0.041691
40.67 	0.049473 	4932 	0.048641
40.69 	0.037270 	4937 	0.037032
40.71 	0.046837 	4932 	0.046006
40.73 	0.045879 	4926 	0.045047
40.75 	0.046238 	4931 	0.045407
40.77 	0.048593 	4939 	0.048000
40.79 	0.041024 	4924 	0.040310
40.81 	0.042299 	4941 	0.041825
40.83 	0.044846 	4928 	0.044251
40.85 	0.038993 	4924 	0.038160
40.87 	0.043831 	4928 	0.043356
40.89 	0.044413 	4931 	0.043700
40.91 	0.037782 	4923 	0.037187
40.93 	0.046210 	4934 	0.045616
40.95 	0.043965 	4913 	0.043369
40.97 	0.039196 	4924 	0.038343
40.99 	0.044070 	4924 	0.043237
41.01 	0.041327 	4912 	0.040354
41.03 	0.045056 	4905 	0.044459
41.05 	0.039100 	4936 	0.038626
41.07 	0.036511 	4930 	0.036392
41.09 	0.042316 	4939 	0.041130
41.11 	0.040527 	4935 	0.039933
41.13 	0.038290 	4936 	0.037815
41.15 	0.046954 	4941 	0.046243
41.17 	0.043575 	4934 	0.042863
41.19 	0.041176 	4930 	0.040939
41.21 	0.036864 	4937 	0.036390
41.23 	0.043936 	4939 	0.042730
41.25 	0.038719 	4933 	0.038363
41.27 	0.042791 	4931 	0.042315
41.29 	0.044846 	4928 	0.044608
41.31 	0.040543 	4933 	0.040187
41.33 	0.041726 	4937 	0.041488
41.35 	0.043135 	4938 	0.042423
41.37 	0.044476 	4924 	0.044357
41.39 	0.040138 	4933 	0.039900
41.41 	0.045879 	4926 	0.045760
41.43 	0.043214 	4929 	0.042719
41.45 	0.041514 	4914 	0.040541
41.47 	0.045067 	4926 	0.044472
41.49 	0.042723 	4892 	0.041885
41.51 	0.044534 	4940 	0.043704
41.53 	0.045307 	4944 	0.044952
41.55 	0.038298 	4935 	0.037348
41.57 	0.039466 	4941 	0.038873
41.59 	0.043381 	4933 	0.042550
41.61 	0.040380 	4953 	0.039906
41.63 	0.039490 	4938 	0.038897
41.65 	0.043011 	4929 	0.042060
41.67 	0.038866 	4940 	0.038036
41.69 	0.038811 	4947 	0.038575
41.71 	0.041751 	4934 	0.041157
41.73 	0.037075 	4936 	0.036837
41.75 	0.042808 	4929 	0.042332
41.77 	0.044525 	4941 	0.043814
41.79 	0.039442 	4944 	0.038968
41.81 	0.039911 	4936 	0.039555
41.83 	0.043222 	4928 	0.042747
41.85 	0.041709 	4939 	0.041116
41.87 	0.046201 	4935 	0.045231
41.89 	0.044395 	4933 	0.043920
41.91 	0.039911 	4936 	0.039317
41.93 	0.039943 	4932 	0.039468
41.95 	0.043196 	4931 	0.042602
41.97 	0.036427 	4914 	0.036069
41.99 	0.040979 	4905 	0.040023
42.01 	0.043100 	4942 	0.042251
42.03 	0.037052 	4939 	0.036696
42.05 	0.046244 	4952 	0.045534
42.07 	0.037675 	4937 	0.037437
42.09 	0.041431 	4948 	0.040602
42.11 	0.042467 	4945 	0.042112
42.13 	0.045298 	4945 	0.045180
42.15 	0.046375 	4938 	0.045545
42.17 	0.037617 	4918 	0.037379
42.19 	0.036064 	4908 	0.035586
42.21 	0.040400 	4901 	0.039563
42.23 	0.040679 	4892 	0.040319
42.25 	0.040090 	4889 	0.039371
42.27 	0.038572 	4874 	0.038091
42.29 	0.041127 	4863 	0.040645
42.31 	0.043048 	4855 	0.042807
42.33 	0.037857 	4834 	0.037130
42.35 	0.038446 	4838 	0.037941
42.37 	0.043685 	4830 	0.043564
42.39 	0.041840 	4804 	0.041352
42.41 	0.043922 	4804 	0.043678
42.43 	0.035267 	4792 	0.034900
42.45 	0.040829 	4776 	0.040461
42.47 	0.038615 	4765 	0.038369
42.49 	0.042183 	4765 	0.041814
42.51 	0.038372 	4743 	0.037755
42.53 	0.044205 	4728 	0.042801
42.55 	0.042906 	4708 	0.042284
42.57 	0.033404 	4730 	0.032908
42.59 	0.040178 	4729 	0.039806
42.61 	0.041631 	4708 	0.041382
42.63 	0.043746 	4709 	0.043000
42.65 	0.042476 	4685 	0.042101
42.67 	0.041204 	4684 	0.040829
42.69 	0.040009 	4674 	0.039758
42.71 	0.039674 	4663 	0.039172
42.73 	0.039224 	4640 	0.038972
42.75 	0.036604 	4617 	0.036477
42.77 	0.033696 	4600 	0.033568
42.79 	0.044740 	4582 	0.044101
42.81 	0.038799 	4562 	0.038157
42.83 	0.044092 	4536 	0.043833
42.85 	0.038428 	4528 	0.037781
42.87 	0.043343 	4499 	0.042692
42.89 	0.042188 	4480 	0.041926
42.91 	0.038375 	4456 	0.037718
42.93 	0.039811 	4446 	0.039548
42.95 	0.042120 	4416 	0.042120
42.97 	0.035901 	4401 	0.035768
42.99 	0.034664 	4385 	0.034263
43.01 	0.039652 	4363 	0.039517
43.03 	0.038541 	4333 	0.038136
43.05 	0.036763 	4325 	0.036357
43.07 	0.037477 	4296 	0.037068
43.09 	0.037124 	4283 	0.036850
43.11 	0.042538 	4255 	0.042263
43.13 	0.042247 	4237 	0.041694
43.15 	0.038279 	4206 	0.037025
43.17 	0.043312 	4179 	0.042471
43.19 	0.043634 	4194 	0.042796
43.21 	0.036433 	4172 	0.035849
43.23 	0.037554 	4154 	0.037272
43.25 	0.036759 	4135 	0.036476
43.27 	0.042144 	4105 	0.041288
43.29 	0.037317 	4100 	0.036888
43.31 	0.042658 	4079 	0.042083
43.33 	0.040978 	4051 	0.040110
43.35 	0.036954 	4032 	0.036809
43.37 	0.040598 	4015 	0.040306
43.39 	0.042979 	4002 	0.042539
43.41 	0.037764 	3972 	0.037027
43.43 	0.039899 	3960 	0.039751
43.45 	0.036849 	3935 	0.036700
43.47 	0.041316 	3921 	0.040718
43.49 	0.034899 	3897 	0.034899
43.51 	0.039464 	3877 	0.038708
43.53 	0.043748 	3863 	0.042384
43.55 	0.041498 	2964 	0.041300
43.57 	0.038874 	2238 	0.038351
43.59 	0.048110 	1746 	0.047439
43.61 	0.039230 	1351 	0.038363
43.63 	0.031968 	1001 	0.031968
43.65 	0.020378 	687 	0.020378
43.67 	0.045817 	502 	0.044650
43.69 	0.049046 	367 	0.049046
43.71 	0.029289 	239 	0.029289
43.73 	0.033333 	120 	0.028452
43.75 	0.125000 	16 	0.125000