File: Example_Data/25SC_s1_0006.003.dat
#F C:\frames\spec\25SC_s1_0006.003
#C title =s:6 frm:3 25SC_s1
#C wavelength =0.15406

#S 1  fr_average C:\frames\spec\25SC_s1_0006.003 C:\win32app\speccom\mask.axs chi 0 180 0 360 0.02
#C 2 theta =0.000000 to 180 deg
#C   q   =0.000000 to 81.568 nm^-1
#C  chi  =0.000000 to 360 deg
#C collumns:
#C  1 position (2theta or chi in degrees)
#C  2 average intensity (sum of all counts in the region divided with number of pixels)
#C  3 Number of pixels in region)
#C  4 error (sum of sqrt(intensity) for all pixels divided by number)
#N 4
#L TTh  Int  N_pix  Err
32.99 	0.016393 	61 	0.016393
33.01 	0.066438 	873 	0.065767
33.03 	0.057513 	1391 	0.056670
33.05 	0.059192 	1757 	0.057858
33.07 	0.066341 	2050 	0.066056
33.09 	0.054112 	2347 	0.053612
33.11 	0.061264 	2579 	0.060356
33.13 	0.058718 	2793 	0.058089
33.15 	0.055685 	2999 	0.054904
33.17 	0.054983 	3201 	0.054068
33.19 	0.059246 	3342 	0.057668
33.21 	0.059662 	3436 	0.057958
33.23 	0.057621 	3523 	0.056790
33.25 	0.062846 	3612 	0.061873
33.27 	0.055372 	3630 	0.054538
33.29 	0.058936 	3648 	0.057652
33.31 	0.063115 	3660 	0.061834
33.33 	0.058329 	3686 	0.057852
33.35 	0.060910 	3694 	0.059482
33.37 	0.065428 	3714 	0.063983
33.39 	0.066774 	3729 	0.065674
33.41 	0.062299 	3740 	0.060733
33.43 	0.064345 	3761 	0.063099
33.45 	0.058309 	3773 	0.058154
33.47 	0.058715 	3798 	0.057635
33.49 	0.058283 	3809 	0.057206
33.51 	0.058453 	3815 	0.057686
33.53 	0.064306 	3841 	0.062476
33.55 	0.066875 	3843 	0.065351
33.57 	0.066030 	3877 	0.064217
33.59 	0.061856 	3880 	0.061101
33.61 	0.062164 	3909 	0.060816
33.63 	0.060475 	3919 	0.059279
33.65 	0.057492 	3931 	0.056747
33.67 	0.065250 	3954 	0.064065
33.69 	0.062990 	3953 	0.061805
33.71 	0.061635 	3975 	0.060604
33.73 	0.059191 	4004 	0.057557
33.75 	0.061015 	3999 	0.060405
33.77 	0.062609 	4025 	0.060717
33.79 	0.060134 	4041 	0.058974
33.81 	0.057454 	4038 	0.056149
33.83 	0.055556 	4050 	0.055122
33.85 	0.056355 	4099 	0.055641
33.87 	0.062272 	4111 	0.060847
33.89 	0.062121 	4121 	0.061268
33.91 	0.061702 	4149 	0.060290
33.93 	0.060708 	4151 	0.059720
33.95 	0.064339 	4181 	0.063218
33.97 	0.060859 	4190 	0.059461
33.99 	0.064048 	4200 	0.063490
34.01 	0.058153 	4213 	0.057458
34.03 	0.061263 	4244 	0.060297
34.05 	0.055033 	4252 	0.054620
34.07 	0.059513 	4268 	0.058415
34.09 	0.067662 	4286 	0.066136
34.11 	0.064854 	4302 	0.063492
34.13 	0.063370 	4308 	0.062011
34.15 	0.060032 	4331 	0.058950
34.17 	0.062989 	4350 	0.061463
34.19 	0.054333 	4362 	0.053102
34.21 	0.062686 	4371 	0.061614
34.23 	0.060779 	4393 	0.059978
34.25 	0.060627 	4404 	0.059674
34.27 	0.055631 	4422 	0.054704
34.29 	0.059752 	4435 	0.058827
34.31 	0.059668 	4458 	0.058880
34.33 	0.059718 	4471 	0.058779
34.35 	0.060214 	4484 	0.059692
34.37 	0.063238 	4491 	0.061672
34.39 	0.056419 	4502 	0.056289
34.41 	0.059655 	4526 	0.058490
34.43 	0.060145 	4539 	0.059371
34.45 	0.058875 	4535 	0.057584
34.47 	0.055314 	4592 	0.054655
34.49 	0.065042 	4597 	0.063768
34.51 	0.055363 	4606 	0.054472
34.53 	0.057291 	4643 	0.056029
34.55 	0.063537 	4643 	0.062653
34.57 	0.061159 	4660 	0.060153
34.59 	0.059251 	4675 	0.057873
34.61 	0.058548 	4697 	0.057924
34.63 	0.061996 	4710 	0.061105
34.65 	0.062487 	4721 	0.060833
34.67 	0.062434 	4741 	0.061940
34.69 	0.064998 	4754 	0.063889
34.71 	0.056441 	4766 	0.055438
34.73 	0.057029 	4787 	0.055683
34.75 	0.057612 	4808 	0.056759
34.77 	0.062059 	4818 	0.061208
34.79 	0.059080 	4824 	0.058472
34.81 	0.058824 	4845 	0.057856
34.83 	0.058618 	4862 	0.057293
34.85 	0.056891 	4869 	0.055567
34.87 	0.060394 	4868 	0.059532
34.89 	0.066571 	4882 	0.065491
34.91 	0.068824 	4882 	0.067144
34.93 	0.057767 	4899 	0.057528
34.95 	0.059714 	4890 	0.058636
34.97 	0.058140 	4902 	0.057184
34.99 	0.055340 	4897 	0.053905
35.01 	0.062157 	4923 	0.060610
35.03 	0.054825 	4943 	0.054232
35.05 	0.055791 	4947 	0.055318
35.07 	0.056883 	4940 	0.056053
35.09 	0.061579 	4953 	0.060140
35.11 	0.058217 	4947 	0.056915
35.13 	0.060508 	4958 	0.059918
35.15 	0.063804 	4937 	0.062717
35.17 	0.062879 	4946 	0.061675
35.19 	0.056455 	4942 	0.055625
35.21 	0.060263 	4945 	0.058703
35.23 	0.065116 	4945 	0.062984
35.25 	0.058467 	4943 	0.057874
35.27 	0.057801 	4948 	0.056972
35.29 	0.061274 	4945 	0.060208
35.31 	0.062234 	4933 	0.061284
35.33 	0.058669 	4943 	0.057365
35.35 	0.060704 	4942 	0.060112
35.37 	0.060134 	4939 	0.059185
35.39 	0.057634 	4945 	0.056449
35.41 	0.062931 	4926 	0.061842
35.43 	0.059801 	4933 	0.058970
35.45 	0.063399 	4937 	0.062450
35.47 	0.057595 	4931 	0.056407
35.49 	0.066395 	4910 	0.064705
35.51 	0.066179 	4926 	0.065704
35.53 	0.066680 	4949 	0.065477
35.55 	0.055005 	4945 	0.054038
35.57 	0.066288 	4933 	0.065101
35.59 	0.066734 	4945 	0.065549
35.61 	0.058478 	4942 	0.057649
35.63 	0.061299 	4943 	0.059995
35.65 	0.063296 	4945 	0.062467
35.67 	0.061311 	4942 	0.060600
35.69 	0.058229 	4946 	0.057400
35.71 	0.065829 	4937 	0.065355
35.73 	0.053282 	4936 	0.051838
35.75 	0.062868 	4931 	0.061680
35.77 	0.063018 	4951 	0.061479
35.79 	0.061841 	4932 	0.061010
35.81 	0.067910 	4933 	0.066010
35.83 	0.058835 	4946 	0.057888
35.85 	0.061196 	4935 	0.060009
35.87 	0.051595 	4923 	0.050881
35.89 	0.067694 	4934 	0.066031
35.91 	0.058859 	4927 	0.057908
35.93 	0.060483 	4927 	0.059889
35.95 	0.052674 	4917 	0.052198
35.97 	0.063111 	4912 	0.061918
35.99 	0.059324 	4939 	0.058256
36.01 	0.064706 	4930 	0.063280
36.03 	0.067166 	4943 	0.065981
36.05 	0.056623 	4945 	0.055675
36.07 	0.062968 	4939 	0.062019
36.09 	0.055061 	4940 	0.054231
36.11 	0.058835 	4929 	0.058122
36.13 	0.055645 	4942 	0.055290
36.15 	0.059526 	4939 	0.058696
36.17 	0.061320 	4925 	0.060468
36.19 	0.063968 	4940 	0.062545
36.21 	0.054778 	4929 	0.053808
36.23 	0.062411 	4935 	0.061343
36.25 	0.054240 	4941 	0.053884
36.27 	0.059492 	4925 	0.058303
36.29 	0.063273 	4931 	0.061966
36.31 	0.062500 	4928 	0.061430
36.33 	0.058990 	4933 	0.057922
36.35 	0.060864 	4929 	0.059557
36.37 	0.057688 	4923 	0.056855
36.39 	0.056289 	4921 	0.054861
36.41 	0.057802 	4896 	0.056845
36.43 	0.060471 	4928 	0.059995
36.45 	0.065923 	4930 	0.064596
36.47 	0.064222 	4936 	0.063391
36.49 	0.063537 	4942 	0.062707
36.51 	0.059801 	4933 	0.058733
36.53 	0.055837 	4943 	0.055125
36.55 	0.058656 	4927 	0.058181
36.57 	0.056749 	4934 	0.055661
36.59 	0.061348 	4939 	0.059451
36.61 	0.060434 	4931 	0.059959
36.63 	0.056784 	4931 	0.056051
36.65 	0.059205 	4932 	0.057899
36.67 	0.059229 	4930 	0.058140
36.69 	0.058835 	4929 	0.058360
36.71 	0.057305 	4921 	0.056829
36.73 	0.063147 	4925 	0.062077
36.75 	0.059668 	4944 	0.058957
36.77 	0.060175 	4919 	0.058131
36.79 	0.061166 	4921 	0.060452
36.81 	0.061229 	4916 	0.060395
36.83 	0.059817 	4915 	0.057910
36.85 	0.055941 	4898 	0.055224
36.87 	0.056230 	4944 	0.055144
36.89 	0.062042 	4916 	0.060851
36.91 	0.056871 	4941 	0.056160
36.93 	0.056998 	4930 	0.056166
36.95 	0.059801 	4933 	0.058376
36.97 	0.055533 	4934 	0.054702
36.99 	0.066869 	4935 	0.065445
37.01 	0.064464 	4933 	0.062663
37.03 	0.060926 	4924 	0.059974
37.05 	0.058250 	4927 	0.057180
37.07 	0.062006 	4935 	0.060463
37.09 	0.056209 	4928 	0.054664
37.11 	0.060182 	4935 	0.058995
37.13 	0.061535 	4924 	0.060227
37.15 	0.056020 	4909 	0.054946
37.17 	0.053912 	4934 	0.052962
37.19 	0.064975 	4925 	0.063379
37.21 	0.058979 	4917 	0.058126
37.23 	0.050427 	4918 	0.049712
37.25 	0.052739 	4911 	0.051168
37.27 	0.055374 	4894 	0.054656
37.29 	0.051927 	4930 	0.050620
37.31 	0.052482 	4935 	0.052007
37.33 	0.053379 	4927 	0.052409
37.35 	0.054678 	4938 	0.053966
37.37 	0.051553 	4927 	0.050958
37.39 	0.053944 	4931 	0.053113
37.41 	0.057392 	4931 	0.056442
37.43 	0.050081 	4932 	0.049725
37.45 	0.056458 	4924 	0.055368
37.47 	0.052343 	4929 	0.051630
37.49 	0.057079 	4923 	0.056365
37.51 	0.051895 	4933 	0.051658
37.53 	0.052246 	4919 	0.052008
37.55 	0.054767 	4930 	0.054054
37.57 	0.052183 	4925 	0.051469
37.59 	0.050865 	4915 	0.050388
37.61 	0.060544 	4922 	0.059354
37.63 	0.050823 	4919 	0.049613
37.65 	0.057340 	4918 	0.056983
37.67 	0.056077 	4904 	0.054624
37.69 	0.052675 	4898 	0.051718
37.71 	0.058024 	4929 	0.057073
37.73 	0.052546 	4929 	0.051833
37.75 	0.053846 	4940 	0.053135
37.77 	0.052033 	4920 	0.051437
37.79 	0.054158 	4930 	0.053208
37.81 	0.061018 	4933 	0.060424
37.83 	0.053455 	4920 	0.052622
37.85 	0.055465 	4922 	0.054394
37.87 	0.051630 	4939 	0.050681
37.89 	0.044467 	4925 	0.044110
37.91 	0.055984 	4930 	0.055152
37.93 	0.052856 	4919 	0.051289
37.95 	0.058728 	4921 	0.058371
37.97 	0.052546 	4929 	0.051714
37.99 	0.053542 	4912 	0.052946
38.01 	0.058036 	4928 	0.057323
38.03 	0.048482 	4909 	0.047886
38.05 	0.059492 	4925 	0.058422
38.07 	0.045630 	4909 	0.045153
38.09 	0.051251 	4878 	0.050270
38.11 	0.054914 	4935 	0.054083
38.13 	0.055904 	4937 	0.055192
38.15 	0.060187 	4918 	0.059234
38.17 	0.052535 	4930 	0.052417
38.19 	0.055578 	4930 	0.054489
38.21 	0.054641 	4923 	0.054047
38.23 	0.057716 	4938 	0.056529
38.25 	0.053691 	4917 	0.052857
38.27 	0.059432 	4930 	0.058700
38.29 	0.058692 	4924 	0.057978
38.31 	0.050335 	4927 	0.049859
38.33 	0.059708 	4924 	0.059351
38.35 	0.064326 	4928 	0.063613
38.37 	0.058692 	4924 	0.057265
38.39 	0.058668 	4909 	0.056997
38.41 	0.057688 	4923 	0.056736
38.43 	0.052889 	4916 	0.051816
38.45 	0.069337 	4918 	0.067293
38.47 	0.059099 	4907 	0.058005
38.49 	0.059668 	4877 	0.058327
38.51 	0.065896 	4932 	0.064827
38.53 	0.068777 	4929 	0.066856
38.55 	0.062196 	4936 	0.060891
38.57 	0.060938 	4923 	0.059749
38.59 	0.058692 	4924 	0.057978
38.61 	0.064019 	4936 	0.063070
38.63 	0.058895 	4924 	0.057805
38.65 	0.062220 	4918 	0.061744
38.67 	0.057727 	4937 	0.056778
38.69 	0.056075 	4922 	0.055123
38.71 	0.053412 	4924 	0.052936
38.73 	0.057950 	4918 	0.056878
38.75 	0.055003 	4927 	0.054171
38.77 	0.059110 	4923 	0.057444
38.79 	0.054317 	4934 	0.053605
38.81 	0.050285 	4912 	0.049331
38.83 	0.052653 	4919 	0.051700
38.85 	0.054764 	4912 	0.053909
38.87 	0.047445 	4911 	0.046610
38.89 	0.050847 	4897 	0.050249
38.91 	0.051193 	4903 	0.050715
38.93 	0.051033 	4938 	0.050321
38.95 	0.048597 	4918 	0.048121
38.97 	0.052525 	4931 	0.052050
38.99 	0.051043 	4937 	0.050213
39.01 	0.050834 	4918 	0.050000
39.03 	0.054317 	4934 	0.053130
39.05 	0.046904 	4925 	0.046666
39.07 	0.051990 	4924 	0.051276
39.09 	0.050376 	4923 	0.049285
39.11 	0.040154 	4931 	0.039204
39.13 	0.048548 	4923 	0.048191
39.15 	0.046999 	4915 	0.045926
39.17 	0.044561 	4937 	0.043612
39.19 	0.053691 	4917 	0.053215
39.21 	0.047658 	4910 	0.047300
39.23 	0.052386 	4925 	0.051672
39.25 	0.045916 	4922 	0.045202
39.27 	0.047047 	4910 	0.045973
39.29 	0.052234 	4901 	0.051398
39.31 	0.051188 	4884 	0.050228
39.33 	0.047860 	4931 	0.047504
39.35 	0.050861 	4935 	0.050268
39.37 	0.048083 	4929 	0.047607
39.39 	0.044025 	4929 	0.043550
39.41 	0.050700 	4931 	0.049868
39.43 	0.045003 	4933 	0.044409
39.45 	0.047716 	4925 	0.047478
39.47 	0.046719 	4923 	0.045490
39.49 	0.055139 	4933 	0.054308
39.51 	0.049959 	4924 	0.049484
39.53 	0.046516 	4923 	0.045921
39.55 	0.045944 	4919 	0.045468
39.57 	0.044598 	4933 	0.044360
39.59 	0.048453 	4912 	0.047737
39.61 	0.045094 	4923 	0.044381
39.63 	0.050589 	4922 	0.049518
39.65 	0.051766 	4926 	0.051053
39.67 	0.051903 	4913 	0.050810
39.69 	0.056550 	4916 	0.055478
39.71 	0.049234 	4895 	0.048157
39.73 	0.047474 	4908 	0.046877
39.75 	0.045049 	4928 	0.044335
39.77 	0.046201 	4935 	0.045607
39.79 	0.055014 	4926 	0.053825
39.81 	0.049726 	4927 	0.048755
39.83 	0.049655 	4934 	0.049062
39.85 	0.056627 	4927 	0.055062
39.87 	0.048934 	4925 	0.048458
39.89 	0.051277 	4934 	0.050208
39.91 	0.049370 	4922 	0.048894
39.93 	0.045372 	4937 	0.044522
39.95 	0.046389 	4915 	0.045912
39.97 	0.047890 	4928 	0.047176
39.99 	0.049473 	4932 	0.048879
40.01 	0.051240 	4918 	0.050883
40.03 	0.048295 	4928 	0.048058
40.05 	0.044946 	4917 	0.044350
40.07 	0.047329 	4923 	0.046496
40.09 	0.047600 	4916 	0.046885
40.11 	0.047803 	4916 	0.047326
40.13 	0.052492 	4896 	0.051774
40.15 	0.046815 	4913 	0.046338
40.17 	0.051339 	4928 	0.050151
40.19 	0.045040 	4929 	0.044564
40.21 	0.053090 	4935 	0.052497
40.23 	0.044809 	4932 	0.043978
40.25 	0.046545 	4920 	0.045454
40.27 	0.042739 	4937 	0.042383
40.29 	0.051756 	4927 	0.051161
40.31 	0.045961 	4939 	0.045130
40.33 	0.042782 	4932 	0.042188
40.35 	0.044725 	4919 	0.044129
40.37 	0.050112 	4929 	0.049517
40.39 	0.039951 	4931 	0.039595
40.41 	0.046091 	4925 	0.045497
40.43 	0.050792 	4922 	0.049959
40.45 	0.044800 	4933 	0.043850
40.47 	0.051850 	4918 	0.050897
40.49 	0.052984 	4926 	0.052033
40.51 	0.049370 	4922 	0.048656
40.53 	0.050448 	4916 	0.050209
40.55 	0.047474 	4908 	0.047235
40.57 	0.039877 	4890 	0.039518
40.59 	0.048410 	4937 	0.047817
40.61 	0.052685 	4935 	0.051973
40.63 	0.047870 	4930 	0.047276
40.65 	0.051246 	4937 	0.050415
40.67 	0.048662 	4932 	0.048305
40.69 	0.043346 	4937 	0.042872
40.71 	0.044404 	4932 	0.043929
40.73 	0.042428 	4926 	0.042190
40.75 	0.043602 	4931 	0.043008
40.77 	0.047985 	4939 	0.046661
40.79 	0.047319 	4924 	0.047081
40.81 	0.047561 	4941 	0.046850
40.83 	0.047281 	4928 	0.046568
40.85 	0.047319 	4924 	0.046724
40.87 	0.046266 	4928 	0.045672
40.89 	0.044818 	4931 	0.044581
40.91 	0.043876 	4923 	0.042924
40.93 	0.054114 	4934 	0.052927
40.95 	0.043558 	4913 	0.042227
40.97 	0.050772 	4924 	0.049939
40.99 	0.046913 	4924 	0.046318
41.01 	0.047435 	4912 	0.046719
41.03 	0.050153 	4905 	0.049078
41.05 	0.049230 	4936 	0.049111
41.07 	0.044016 	4930 	0.043779
41.09 	0.045151 	4939 	0.044558
41.11 	0.047416 	4935 	0.046586
41.13 	0.050041 	4936 	0.049566
41.15 	0.051002 	4941 	0.050172
41.17 	0.049858 	4934 	0.048908
41.19 	0.049899 	4930 	0.049047
41.21 	0.046384 	4937 	0.045791
41.23 	0.048188 	4939 	0.047951
41.25 	0.043989 	4933 	0.043277
41.27 	0.042182 	4931 	0.042063
41.29 	0.049310 	4928 	0.048221
41.31 	0.048044 	4933 	0.047450
41.33 	0.044764 	4937 	0.044527
41.35 	0.043135 	4938 	0.042779
41.37 	0.044882 	4924 	0.044525
41.39 	0.045003 	4933 	0.044133
41.41 	0.049533 	4926 	0.048701
41.43 	0.039968 	4929 	0.039611
41.45 	0.049858 	4914 	0.049142
41.47 	0.043240 	4926 	0.042883
41.49 	0.041087 	4892 	0.040728
41.51 	0.048785 	4940 	0.047936
41.53 	0.042273 	4944 	0.041444
41.55 	0.048430 	4935 	0.047460
41.57 	0.047561 	4941 	0.047087
41.59 	0.044192 	4933 	0.043598
41.61 	0.054109 	4953 	0.053025
41.63 	0.043540 	4938 	0.043184
41.65 	0.050720 	4929 	0.049769
41.67 	0.041093 	4940 	0.040125
41.69 	0.041237 	4947 	0.040882
41.71 	0.043981 	4934 	0.043506
41.73 	0.043558 	4936 	0.043202
41.75 	0.042199 	4929 	0.041605
41.77 	0.047561 	4941 	0.046830
41.79 	0.045105 	4944 	0.044631
41.81 	0.045178 	4936 	0.044941
41.83 	0.042411 	4928 	0.041579
41.85 	0.043936 	4939 	0.042869
41.87 	0.048430 	4935 	0.047717
41.89 	0.039935 	4933 	0.039579
41.91 	0.043760 	4936 	0.043285
41.93 	0.045215 	4932 	0.044740
41.95 	0.042588 	4931 	0.041737
41.97 	0.046805 	4914 	0.046328
41.99 	0.047299 	4905 	0.046582
42.01 	0.046945 	4942 	0.045641
42.03 	0.043734 	4939 	0.043141
42.05 	0.042003 	4952 	0.041392
42.07 	0.049018 	4937 	0.048543
42.09 	0.041431 	4948 	0.040701
42.11 	0.044692 	4945 	0.044099
42.13 	0.043478 	4945 	0.042649
42.15 	0.040300 	4938 	0.039707
42.17 	0.040870 	4918 	0.040632
42.19 	0.044010 	4908 	0.043532
42.21 	0.041624 	4901 	0.040787
42.23 	0.045789 	4892 	0.045310
42.25 	0.042749 	4889 	0.042270
42.27 	0.042470 	4874 	0.041749
42.29 	0.040304 	4863 	0.039702
42.31 	0.039753 	4855 	0.039270
42.33 	0.040960 	4834 	0.040475
42.35 	0.044440 	4838 	0.043834
42.37 	0.046791 	4830 	0.046184
42.39 	0.041840 	4804 	0.041474
42.41 	0.045379 	4804 	0.044525
42.43 	0.040693 	4792 	0.040448
42.45 	0.043760 	4776 	0.043025
42.47 	0.040923 	4765 	0.040678
42.49 	0.041133 	4765 	0.040642
42.51 	0.049968 	4743 	0.048960
42.53 	0.043782 	4728 	0.043038
42.55 	0.042481 	4708 	0.041983
42.57 	0.042706 	4730 	0.042335
42.59 	0.042504 	4729 	0.042256
42.61 	0.046729 	4708 	0.045858
42.63 	0.047144 	4709 	0.046895
42.65 	0.044397 	4685 	0.043522
42.67 	0.047395 	4684 	0.047020
42.69 	0.039795 	4674 	0.039168
42.71 	0.046537 	4663 	0.046034
42.73 	0.042026 	4640 	0.041395
42.75 	0.043535 	4617 	0.042900
42.77 	0.046739 	4600 	0.046357
42.79 	0.039284 	4582 	0.039156
42.81 	0.038141 	4562 	0.037499
42.83 	0.041005 	4536 	0.040618
42.85 	0.044390 	4528 	0.044002
42.87 	0.046677 	4499 	0.045896
42.89 	0.043973 	4480 	0.043450
42.91 	0.042415 	4456 	0.041889
42.93 	0.046109 	4446 	0.045977
42.95 	0.035100 	4416 	0.034547
42.97 	0.044081 	4401 	0.043682
42.99 	0.045610 	4385 	0.044809
43.01 	0.038506 	4363 	0.037834
43.03 	0.041311 	4333 	0.040748
43.05 	0.047168 	4325 	0.046468
43.07 	0.048184 	4296 	0.047912
43.09 	0.038991 	4283 	0.038855
43.11 	0.046298 	4255 	0.045312
43.13 	0.044371 	4237 	0.043956
43.15 	0.042558 	4206 	0.042001
43.17 	0.039962 	4179 	0.039681
43.19 	0.042203 	4194 	0.041365
43.21 	0.045302 	4172 	0.044460
43.23 	0.044295 	4154 	0.043590
43.25 	0.042080 	4135 	0.041796
43.27 	0.039951 	4105 	0.039380
43.29 	0.046098 	4100 	0.045383
43.31 	0.035058 	4079 	0.035058
43.33 	0.034066 	4051 	0.033463
43.35 	0.042411 	4032 	0.041830
43.37 	0.040349 	4015 	0.039911
43.39 	0.042979 	4002 	0.042393
43.41 	0.040785 	3972 	0.040491
43.43 	0.050253 	3960 	0.049365
43.45 	0.047014 	3935 	0.046419
43.47 	0.042081 	3921 	0.041932
43.49 	0.046959 	3897 	0.046358
43.51 	0.043590 	3877 	0.042684
43.53 	0.040383 	3863 	0.040080
43.55 	0.042848 	2964 	0.042255
43.57 	0.035299 	2238 	0.034252
43.59 	0.037228 	1746 	0.036892
43.61 	0.046632 	1351 	0.045765
43.63 	0.031968 	1001 	0.031968
43.65 	0.043668 	687 	0.042815
43.67 	0.031873 	502 	0.031873
43.69 	0.040872 	367 	0.040872
43.71 	0.041841 	239 	0.041841
43.73 	0.041667 	120 	0.041667
43.75 	0.000000 	16 	0.000000