File: Example_Data/25SC_s1_0015.004.dat
#F C:\frames\spec\25SC_s1_0015.004
#C title =s:15 frm:4 25SC_s1
#C wavelength =0.15406

#S 1  fr_average C:\frames\spec\25SC_s1_0015.004 C:\win32app\speccom\mask.axs chi 0 180 0 360 0.02
#C 2 theta =0.000000 to 180 deg
#C   q   =0.000000 to 81.568 nm^-1
#C  chi  =0.000000 to 360 deg
#C collumns:
#C  1 position (2theta or chi in degrees)
#C  2 average intensity (sum of all counts in the region divided with number of pixels)
#C  3 Number of pixels in region)
#C  4 error (sum of sqrt(intensity) for all pixels divided by number)
#N 4
#L TTh  Int  N_pix  Err
32.99 	0.081967 	61 	0.081967
33.01 	0.052692 	873 	0.052021
33.03 	0.051761 	1391 	0.051340
33.05 	0.050655 	1757 	0.049321
33.07 	0.067317 	2050 	0.065888
33.09 	0.068598 	2347 	0.067600
33.11 	0.059325 	2579 	0.057735
33.13 	0.058718 	2793 	0.057460
33.15 	0.067022 	2999 	0.065850
33.17 	0.053421 	3201 	0.052872
33.19 	0.063435 	3342 	0.062208
33.21 	0.057043 	3436 	0.055679
33.23 	0.057905 	3523 	0.056908
33.25 	0.057586 	3612 	0.056451
33.27 	0.057576 	3630 	0.056285
33.29 	0.063322 	3648 	0.061877
33.31 	0.058743 	3660 	0.058103
33.33 	0.065111 	3686 	0.063999
33.35 	0.058202 	3694 	0.057251
33.37 	0.053850 	3714 	0.052746
33.39 	0.058729 	3729 	0.057943
33.41 	0.060160 	3740 	0.059691
33.43 	0.058761 	3761 	0.058294
33.45 	0.059634 	3773 	0.059013
33.47 	0.061348 	3798 	0.059806
33.49 	0.057495 	3809 	0.056111
33.51 	0.058453 	3815 	0.057686
33.53 	0.057277 	3841 	0.055904
33.55 	0.070778 	3843 	0.070626
33.57 	0.058808 	3877 	0.058204
33.59 	0.062629 	3880 	0.062025
33.61 	0.066513 	3909 	0.064990
33.63 	0.061240 	3919 	0.059745
33.65 	0.061308 	3931 	0.060711
33.67 	0.060445 	3954 	0.059236
33.69 	0.065267 	3953 	0.064057
33.71 	0.059119 	3975 	0.057941
33.73 	0.061439 	4004 	0.061146
33.75 	0.060765 	3999 	0.058837
33.77 	0.057888 	4025 	0.057306
33.79 	0.060134 	4041 	0.059264
33.81 	0.062159 	4038 	0.060854
33.83 	0.063704 	4050 	0.062957
33.85 	0.057575 	4099 	0.056575
33.87 	0.063002 	4111 	0.061268
33.89 	0.065033 	4121 	0.063753
33.91 	0.058086 	4149 	0.057239
33.93 	0.053722 	4151 	0.053299
33.95 	0.056207 	4181 	0.055646
33.97 	0.062768 	4190 	0.061347
33.99 	0.065238 	4200 	0.063960
34.01 	0.061951 	4213 	0.060978
34.03 	0.058907 	4244 	0.057941
34.05 	0.063735 	4252 	0.062197
34.07 	0.063730 	4268 	0.062495
34.09 	0.059496 	4286 	0.058266
34.11 	0.059740 	4302 	0.059059
34.13 	0.067549 	4308 	0.065917
34.15 	0.067421 	4331 	0.066474
34.17 	0.062529 	4350 	0.061451
34.19 	0.057772 	4362 	0.056832
34.21 	0.070236 	4371 	0.069164
34.23 	0.058730 	4393 	0.058196
34.25 	0.060627 	4404 	0.059696
34.27 	0.055405 	4422 	0.054345
34.29 	0.062909 	4435 	0.061060
34.31 	0.056528 	4458 	0.055739
34.33 	0.058824 	4471 	0.057906
34.35 	0.070473 	4484 	0.069036
34.37 	0.057003 	4491 	0.055959
34.39 	0.057974 	4502 	0.057063
34.41 	0.063632 	4526 	0.061820
34.43 	0.053977 	4539 	0.053331
34.45 	0.057993 	4535 	0.056960
34.47 	0.056185 	4592 	0.055419
34.49 	0.058951 	4597 	0.057677
34.51 	0.060139 	4606 	0.059122
34.53 	0.063321 	4643 	0.062438
34.55 	0.058152 	4643 	0.057395
34.57 	0.065451 	4660 	0.064550
34.59 	0.054332 	4675 	0.052953
34.61 	0.063232 	4697 	0.062234
34.63 	0.059660 	4710 	0.058769
34.65 	0.059309 	4721 	0.058689
34.67 	0.056528 	4741 	0.055663
34.69 	0.053639 	4754 	0.052900
34.71 	0.059169 	4766 	0.057940
34.73 	0.056403 	4787 	0.055546
34.75 	0.059484 	4808 	0.058753
34.77 	0.059153 	4818 	0.058302
34.79 	0.070688 	4824 	0.069352
34.81 	0.067079 	4845 	0.065024
34.83 	0.058001 	4862 	0.057157
34.85 	0.057712 	4869 	0.056509
34.87 	0.057929 	4868 	0.056846
34.89 	0.063499 	4882 	0.062609
34.91 	0.069234 	4882 	0.067155
34.93 	0.055317 	4899 	0.054720
34.95 	0.063190 	4890 	0.062232
34.97 	0.060792 	4902 	0.059238
34.99 	0.057790 	4897 	0.056455
35.01 	0.055251 	4923 	0.054537
35.03 	0.059883 	4943 	0.059172
35.05 	0.062462 	4947 	0.061752
35.07 	0.054858 	4940 	0.053910
35.09 	0.064607 	4953 	0.063779
35.11 	0.058015 	4947 	0.057304
35.13 	0.061315 	4958 	0.060015
35.15 	0.058943 	4937 	0.058349
35.17 	0.063283 	4946 	0.062553
35.19 	0.059085 	4942 	0.057782
35.21 	0.060465 	4945 	0.059873
35.23 	0.062690 	4945 	0.061387
35.25 	0.059478 	4943 	0.057681
35.27 	0.063662 	4948 	0.062715
35.29 	0.062690 	4945 	0.061623
35.31 	0.062842 	4933 	0.062011
35.33 	0.062108 	4943 	0.060192
35.35 	0.065358 	4942 	0.063936
35.37 	0.057299 	4939 	0.056469
35.39 	0.058443 	4945 	0.057258
35.41 	0.057856 	4926 	0.056786
35.43 	0.055747 	4933 	0.055153
35.45 	0.056309 	4937 	0.055123
35.47 	0.055770 	4931 	0.054938
35.49 	0.062933 	4910 	0.061620
35.51 	0.058668 	4926 	0.057717
35.53 	0.057587 	4949 	0.056877
35.55 	0.062690 	4945 	0.061604
35.57 	0.065680 	4933 	0.064730
35.59 	0.064105 	4945 	0.062565
35.61 	0.060907 	4942 	0.060077
35.63 	0.063929 	4943 	0.063218
35.65 	0.067139 	4945 	0.066428
35.67 	0.058681 	4942 	0.057851
35.69 	0.062475 	4946 	0.061172
35.71 	0.060158 	4937 	0.058715
35.73 	0.064425 	4936 	0.063475
35.75 	0.062259 	4931 	0.061309
35.77 	0.062412 	4951 	0.061347
35.79 	0.060422 	4932 	0.059353
35.81 	0.060815 	4933 	0.059865
35.83 	0.056611 	4946 	0.055664
35.85 	0.066059 	4935 	0.065208
35.87 	0.064798 	4923 	0.064084
35.89 	0.060195 	4934 	0.059601
35.91 	0.053785 	4927 	0.052953
35.93 	0.064745 	4927 	0.063200
35.95 	0.054505 	4917 	0.054028
35.97 	0.063314 	4912 	0.062003
35.99 	0.059324 	4939 	0.058731
36.01 	0.058012 	4930 	0.057656
36.03 	0.061097 	4943 	0.060148
36.05 	0.065319 	4945 	0.063897
36.07 	0.053655 	4939 	0.052449
36.09 	0.056073 	4940 	0.055243
36.11 	0.059647 	4929 	0.059053
36.13 	0.056860 	4942 	0.055674
36.15 	0.058919 	4939 	0.057851
36.17 	0.059898 	4925 	0.058947
36.19 	0.061336 	4940 	0.060506
36.21 	0.057415 	4929 	0.056583
36.23 	0.057953 	4935 	0.057479
36.25 	0.059907 	4941 	0.059077
36.27 	0.055431 	4925 	0.054480
36.29 	0.060028 	4931 	0.058840
36.31 	0.062906 	4928 	0.061579
36.33 	0.056963 	4933 	0.056488
36.35 	0.056604 	4929 	0.055891
36.37 	0.062157 	4923 	0.060729
36.39 	0.060354 	4921 	0.059044
36.41 	0.064338 	4896 	0.062883
36.43 	0.052963 	4928 	0.051774
36.45 	0.061258 	4930 	0.060664
36.47 	0.057536 	4936 	0.056706
36.49 	0.052813 	4942 	0.051627
36.51 	0.061829 	4933 	0.060047
36.53 	0.064738 	4943 	0.063059
36.55 	0.049726 	4927 	0.049488
36.57 	0.059992 	4934 	0.058923
36.59 	0.055477 	4939 	0.054765
36.61 	0.061042 	4931 	0.060448
36.63 	0.055161 	4931 	0.053736
36.65 	0.055150 	4932 	0.054319
36.67 	0.060243 	4930 	0.059630
36.69 	0.053763 	4929 	0.053169
36.71 	0.053648 	4921 	0.052933
36.73 	0.062335 	4925 	0.060789
36.75 	0.060680 	4944 	0.059258
36.77 	0.058955 	4919 	0.057407
36.79 	0.060760 	4921 	0.059808
36.81 	0.057974 	4916 	0.055929
36.83 	0.063072 	4915 	0.062099
36.85 	0.055125 	4898 	0.054168
36.87 	0.054409 	4944 	0.053462
36.89 	0.056143 	4916 	0.055547
36.91 	0.056062 	4941 	0.054639
36.93 	0.060446 	4930 	0.059733
36.95 	0.057774 	4933 	0.056943
36.97 	0.056546 	4934 	0.055478
36.99 	0.058359 	4935 	0.057271
37.01 	0.056355 	4933 	0.055286
37.03 	0.055849 	4924 	0.055016
37.05 	0.062919 	4927 	0.062086
37.07 	0.056940 	4935 	0.056109
37.09 	0.063312 	4928 	0.062123
37.11 	0.058967 	4935 	0.057523
37.13 	0.056458 	4924 	0.055506
37.15 	0.053575 	4909 	0.052859
37.17 	0.048845 	4934 	0.048251
37.19 	0.058680 	4925 	0.057491
37.21 	0.059386 	4917 	0.058314
37.23 	0.057544 	4918 	0.056710
37.25 	0.050906 	4911 	0.050190
37.27 	0.049857 	4894 	0.048899
37.29 	0.053550 	4930 	0.052956
37.31 	0.057345 	4935 	0.056633
37.33 	0.058250 	4927 	0.057062
37.35 	0.061361 	4938 	0.060649
37.37 	0.059874 	4927 	0.058923
37.39 	0.058812 	4931 	0.057980
37.41 	0.057798 	4931 	0.056966
37.43 	0.057583 	4932 	0.056752
37.45 	0.052803 	4924 	0.052089
37.47 	0.059038 	4929 	0.057969
37.49 	0.053016 	4923 	0.052184
37.51 	0.055342 	4933 	0.054273
37.53 	0.057735 	4919 	0.056664
37.55 	0.054564 	4930 	0.053732
37.57 	0.058477 	4925 	0.057764
37.59 	0.057579 	4915 	0.056506
37.61 	0.059325 	4922 	0.058611
37.63 	0.058955 	4919 	0.057407
37.65 	0.059577 	4918 	0.058624
37.67 	0.050163 	4904 	0.049068
37.69 	0.058391 	4898 	0.057554
37.71 	0.054372 	4929 	0.053302
37.73 	0.058227 	4929 	0.057138
37.75 	0.050202 	4940 	0.049135
37.77 	0.054878 	4920 	0.053806
37.79 	0.058215 	4930 	0.057007
37.81 	0.059193 	4933 	0.058599
37.83 	0.056504 	4920 	0.056266
37.85 	0.056278 	4922 	0.055921
37.87 	0.053047 	4939 	0.052691
37.89 	0.056244 	4925 	0.055173
37.91 	0.059838 	4930 	0.058412
37.93 	0.050823 	4919 	0.049632
37.95 	0.051616 	4921 	0.051139
37.97 	0.057618 	4929 	0.057143
37.99 	0.055782 	4912 	0.055066
38.01 	0.059050 	4928 	0.057981
38.03 	0.057446 	4909 	0.056352
38.05 	0.058680 	4925 	0.057372
38.07 	0.055816 	4909 	0.055200
38.09 	0.051046 	4878 	0.050325
38.11 	0.059777 	4935 	0.058828
38.13 	0.063601 	4937 	0.062534
38.15 	0.059984 	4918 	0.059150
38.17 	0.062880 	4930 	0.061692
38.19 	0.069168 	4930 	0.067941
38.21 	0.055860 	4923 	0.054908
38.23 	0.067841 	4938 	0.065350
38.25 	0.064267 	4917 	0.063075
38.27 	0.062677 	4930 	0.061113
38.29 	0.061129 	4924 	0.059940
38.31 	0.067384 	4927 	0.066195
38.33 	0.064379 	4924 	0.063288
38.35 	0.062703 	4928 	0.061514
38.37 	0.066816 	4924 	0.065388
38.39 	0.070890 	4909 	0.069458
38.41 	0.060329 	4923 	0.059615
38.43 	0.077909 	4916 	0.076598
38.45 	0.067507 	4918 	0.066554
38.47 	0.067455 	4907 	0.065783
38.49 	0.060693 	4877 	0.059972
38.51 	0.068329 	4932 	0.067854
38.53 	0.060256 	4929 	0.059543
38.55 	0.064830 	4936 	0.063643
38.57 	0.063985 	4923 	0.062676
38.59 	0.063363 	4924 	0.062054
38.61 	0.063614 	4936 	0.061815
38.63 	0.067019 	4924 	0.065809
38.65 	0.059374 	4918 	0.058659
38.67 	0.052866 	4937 	0.052135
38.69 	0.058513 	4922 	0.057799
38.71 	0.056458 	4924 	0.055625
38.73 	0.055510 	4918 	0.054438
38.75 	0.059671 	4927 	0.059077
38.77 	0.056063 	4923 	0.055706
38.79 	0.053709 	4934 	0.053234
38.81 	0.061279 	4912 	0.060186
38.83 	0.053060 	4919 	0.051988
38.85 	0.054764 	4912 	0.053929
38.87 	0.059255 	4911 	0.058062
38.89 	0.056974 	4897 	0.055897
38.91 	0.057312 	4903 	0.055759
38.93 	0.052653 	4938 	0.051447
38.95 	0.053884 	4918 	0.053169
38.97 	0.053539 	4931 	0.051876
38.99 	0.052664 	4937 	0.051952
39.01 	0.051647 	4918 	0.050932
39.03 	0.051074 	4934 	0.050362
39.05 	0.049137 	4925 	0.048067
39.07 	0.053412 	4924 	0.052560
39.09 	0.058095 	4923 	0.057143
39.11 	0.048469 	4931 	0.047756
39.13 	0.049360 	4923 	0.048884
39.15 	0.054934 	4915 	0.053961
39.17 	0.057727 	4937 	0.056659
39.19 	0.049217 	4917 	0.048740
39.21 	0.049695 	4910 	0.049337
39.23 	0.049746 	4925 	0.048676
39.25 	0.049777 	4922 	0.049062
39.27 	0.051324 	4910 	0.050966
39.29 	0.054887 	4901 	0.053692
39.31 	0.049550 	4884 	0.048470
39.33 	0.057189 	4931 	0.056001
39.35 	0.053698 	4935 	0.052986
39.37 	0.054372 	4929 	0.053065
39.39 	0.057415 	4929 	0.056346
39.41 	0.054147 	4931 	0.053672
39.43 	0.053720 	4933 	0.053245
39.45 	0.052792 	4925 	0.052197
39.47 	0.057282 	4923 	0.056568
39.49 	0.058180 	4933 	0.057111
39.51 	0.057474 	4924 	0.056760
39.53 	0.050782 	4923 	0.050187
39.55 	0.057125 	4919 	0.055935
39.57 	0.061220 	4933 	0.060152
39.59 	0.050489 	4912 	0.049654
39.61 	0.053220 	4923 	0.052268
39.63 	0.056684 	4922 	0.055494
39.65 	0.057247 	4926 	0.056772
39.67 	0.051496 	4913 	0.049926
39.69 	0.053702 	4916 	0.052511
39.71 	0.057406 	4895 	0.056927
39.73 	0.051141 	4908 	0.050186
39.75 	0.053166 	4928 	0.052096
39.77 	0.058967 	4935 	0.057542
39.79 	0.056638 	4926 	0.055667
39.81 	0.056221 	4927 	0.055270
39.83 	0.058776 	4934 	0.057450
39.85 	0.054394 	4927 	0.053800
39.87 	0.051980 	4925 	0.051266
39.89 	0.055330 	4934 	0.054737
39.91 	0.049777 	4922 	0.049181
39.93 	0.066640 	4937 	0.065453
39.95 	0.056562 	4915 	0.055727
39.97 	0.057630 	4928 	0.056303
39.99 	0.053325 	4932 	0.052613
40.01 	0.056934 	4918 	0.055862
40.03 	0.053166 	4928 	0.052452
40.05 	0.049217 	4917 	0.048621
40.07 	0.053829 	4923 	0.052877
40.09 	0.059398 	4916 	0.058445
40.11 	0.050244 	4916 	0.049291
40.13 	0.056168 	4896 	0.055311
40.15 	0.055160 	4913 	0.054444
40.17 	0.053166 	4928 	0.052571
40.19 	0.053155 	4929 	0.052323
40.21 	0.051672 	4935 	0.051197
40.23 	0.054542 	4932 	0.053335
40.25 	0.052439 	4920 	0.051606
40.27 	0.055094 	4937 	0.054382
40.29 	0.052162 	4927 	0.051567
40.31 	0.057704 	4939 	0.056637
40.33 	0.050284 	4932 	0.049334
40.35 	0.056922 	4919 	0.055731
40.37 	0.053966 	4929 	0.053016
40.39 	0.053539 	4931 	0.052945
40.41 	0.050152 	4925 	0.049320
40.43 	0.052215 	4922 	0.051619
40.45 	0.052098 	4933 	0.051148
40.47 	0.057137 	4918 	0.056184
40.49 	0.057247 	4926 	0.056296
40.51 	0.047745 	4922 	0.047388
40.53 	0.049430 	4916 	0.048954
40.55 	0.048085 	4908 	0.047249
40.57 	0.055828 	4890 	0.055229
40.59 	0.054487 	4937 	0.053132
40.61 	0.055522 	4935 	0.054691
40.63 	0.052333 	4930 	0.051600
40.65 	0.052056 	4937 	0.051581
40.67 	0.054136 	4932 	0.054017
40.69 	0.053879 	4937 	0.053048
40.71 	0.054136 	4932 	0.053186
40.73 	0.052984 	4926 	0.052033
40.75 	0.053742 	4931 	0.053266
40.77 	0.054262 	4939 	0.053669
40.79 	0.056661 	4924 	0.055472
40.81 	0.051609 	4941 	0.050661
40.83 	0.051136 	4928 	0.049948
40.85 	0.053412 	4924 	0.052817
40.87 	0.050122 	4928 	0.049527
40.89 	0.050294 	4931 	0.049462
40.91 	0.050376 	4923 	0.049642
40.93 	0.054722 	4934 	0.054366
40.95 	0.055567 	4913 	0.054236
40.97 	0.052803 	4924 	0.052327
40.99 	0.051381 	4924 	0.050667
41.01 	0.046621 	4912 	0.046005
41.03 	0.050561 	4905 	0.049844
41.05 	0.049838 	4936 	0.048651
41.07 	0.049087 	4930 	0.047879
41.09 	0.057502 	4939 	0.056553
41.11 	0.052482 	4935 	0.051414
41.13 	0.053079 	4936 	0.052229
41.15 	0.050192 	4941 	0.049599
41.17 	0.052290 	4934 	0.051340
41.19 	0.054564 	4930 	0.053495
41.21 	0.054689 	4937 	0.053859
41.23 	0.053250 	4939 	0.052419
41.25 	0.056355 	4933 	0.055524
41.27 	0.050497 	4931 	0.049546
41.29 	0.044237 	4928 	0.043643
41.31 	0.049463 	4933 	0.048157
41.33 	0.050435 	4937 	0.049348
41.35 	0.050830 	4938 	0.050356
41.37 	0.049147 	4924 	0.048790
41.39 	0.047841 	4933 	0.047366
41.41 	0.050548 	4926 	0.048983
41.43 	0.050923 	4929 	0.050210
41.45 	0.049858 	4914 	0.049023
41.47 	0.055014 	4926 	0.053706
41.49 	0.051104 	4892 	0.049787
41.51 	0.046761 	4940 	0.046168
41.53 	0.054814 	4944 	0.053254
41.55 	0.052888 	4935 	0.052156
41.57 	0.044728 	4941 	0.043898
41.59 	0.052909 	4933 	0.052078
41.61 	0.043004 	4953 	0.042531
41.63 	0.047590 	4938 	0.047116
41.65 	0.049503 	4929 	0.048552
41.67 	0.050405 	4940 	0.049931
41.69 	0.057409 	4947 	0.056580
41.71 	0.052898 	4934 	0.051810
41.73 	0.059562 	4936 	0.058494
41.75 	0.050517 	4929 	0.049428
41.77 	0.049990 	4941 	0.049516
41.79 	0.044903 	4944 	0.043955
41.81 	0.053079 	4936 	0.052486
41.83 	0.051948 	4928 	0.051235
41.85 	0.047783 	4939 	0.047190
41.87 	0.055522 	4935 	0.054691
41.89 	0.053517 	4933 	0.053042
41.91 	0.051459 	4936 	0.050865
41.93 	0.048054 	4932 	0.047816
41.95 	0.047455 	4931 	0.047098
41.97 	0.049044 	4914 	0.048448
41.99 	0.048318 	4905 	0.047721
42.01 	0.047754 	4942 	0.047280
42.03 	0.050820 	4939 	0.050227
42.05 	0.044830 	4952 	0.044357
42.07 	0.051651 	4937 	0.050702
42.09 	0.048302 	4948 	0.047829
42.11 	0.052578 	4945 	0.051631
42.13 	0.046107 	4945 	0.045870
42.15 	0.047185 	4938 	0.046948
42.17 	0.045954 	4918 	0.045120
42.19 	0.047677 	4908 	0.046842
42.21 	0.054071 	4901 	0.053353
42.23 	0.044154 	4892 	0.043416
42.25 	0.047863 	4889 	0.047383
42.27 	0.046779 	4874 	0.046058
42.29 	0.041744 	4863 	0.041382
42.31 	0.042842 	4855 	0.042360
42.33 	0.052338 	4834 	0.051611
42.35 	0.047747 	4838 	0.047384
42.37 	0.048033 	4830 	0.046942
42.39 	0.047252 	4804 	0.046765
42.41 	0.048293 	4804 	0.047440
42.43 	0.044866 	4792 	0.044357
42.45 	0.047948 	4776 	0.047457
42.47 	0.048478 	4765 	0.047987
42.49 	0.045540 	4765 	0.045172
42.51 	0.047227 	4743 	0.046116
42.53 	0.048435 	4728 	0.047568
42.55 	0.045667 	4708 	0.045045
42.57 	0.048203 	4730 	0.047584
42.59 	0.048425 	4729 	0.047661
42.61 	0.043543 	4708 	0.042921
42.63 	0.043321 	4709 	0.042575
42.65 	0.048666 	4685 	0.048291
42.67 	0.046114 	4684 	0.045864
42.69 	0.044288 	4674 	0.043515
42.71 	0.052541 	4663 	0.051285
42.73 	0.047629 	4640 	0.046872
42.75 	0.045917 	4617 	0.044522
42.77 	0.042391 	4600 	0.042009
42.79 	0.048232 	4582 	0.047465
42.81 	0.046909 	4562 	0.046267
42.83 	0.044092 	4536 	0.043704
42.85 	0.041078 	4528 	0.040948
42.87 	0.048900 	4499 	0.048379
42.89 	0.045759 	4480 	0.045105
42.91 	0.052065 	4456 	0.051539
42.93 	0.040936 	4446 	0.040540
42.95 	0.050951 	4416 	0.050023
42.97 	0.043626 	4401 	0.043227
42.99 	0.051767 	4385 	0.051233
43.01 	0.043777 	4363 	0.042837
43.03 	0.048696 	4333 	0.047344
43.05 	0.046705 	4325 	0.046141
43.07 	0.047020 	4296 	0.046611
43.09 	0.046930 	4283 	0.046383
43.11 	0.046769 	4255 	0.045805
43.13 	0.044607 	4237 	0.044469
43.15 	0.053733 	4206 	0.052619
43.17 	0.043312 	4179 	0.042751
43.19 	0.053171 	4194 	0.052473
43.21 	0.044343 	4172 	0.043220
43.23 	0.047424 	4154 	0.047142
43.25 	0.047158 	4135 	0.046450
43.27 	0.047990 	4105 	0.047419
43.29 	0.042195 	4100 	0.041481
43.31 	0.048296 	4079 	0.047291
43.33 	0.047396 	4051 	0.046528
43.35 	0.045883 	4032 	0.045302
43.37 	0.045828 	4015 	0.045390
43.39 	0.053723 	4002 	0.053138
43.41 	0.047835 	3972 	0.047245
43.43 	0.052273 	3960 	0.051237
43.45 	0.052097 	3935 	0.050732
43.47 	0.051773 	3921 	0.050876
43.49 	0.042084 	3897 	0.041482
43.51 	0.048233 	3877 	0.047629
43.53 	0.049185 	3863 	0.048881
43.55 	0.046221 	2964 	0.045036
43.57 	0.043342 	2238 	0.042295
43.59 	0.051546 	1746 	0.050540
43.61 	0.038490 	1351 	0.038056
43.63 	0.061938 	1001 	0.060768
43.65 	0.053857 	687 	0.053005
43.67 	0.037849 	502 	0.037849
43.69 	0.051771 	367 	0.051771
43.71 	0.037657 	239 	0.037657
43.73 	0.075000 	120 	0.070118
43.75 	0.062500 	16 	0.062500