File: Example_Data/25SC_s1_0037.000.dat
#F C:\frames\spec\25SC_s1_0037.000
#C title =s:37 frm:0 25SC_s1
#C wavelength =0.15406

#S 1  fr_average C:\frames\spec\25SC_s1_0037.000 C:\win32app\speccom\mask.axs chi 0 180 0 360 0.02
#C 2 theta =0.000000 to 180 deg
#C   q   =0.000000 to 81.568 nm^-1
#C  chi  =0.000000 to 360 deg
#C collumns:
#C  1 position (2theta or chi in degrees)
#C  2 average intensity (sum of all counts in the region divided with number of pixels)
#C  3 Number of pixels in region)
#C  4 error (sum of sqrt(intensity) for all pixels divided by number)
#N 4
#L TTh  Int  N_pix  Err
32.99 	0.081967 	61 	0.072364
33.01 	0.074456 	873 	0.071772
33.03 	0.060388 	1391 	0.059546
33.05 	0.051224 	1757 	0.050557
33.07 	0.078537 	2050 	0.076536
33.09 	0.058798 	2347 	0.058299
33.11 	0.075998 	2579 	0.075771
33.13 	0.057644 	2793 	0.056176
33.15 	0.062354 	2999 	0.059815
33.17 	0.067479 	3201 	0.066717
33.19 	0.061041 	3342 	0.059435
33.21 	0.063155 	3436 	0.061450
33.23 	0.059892 	3523 	0.058701
33.25 	0.061185 	3612 	0.060536
33.27 	0.058127 	3630 	0.056674
33.29 	0.062774 	3648 	0.061650
33.31 	0.066393 	3660 	0.065593
33.33 	0.058871 	3686 	0.057600
33.35 	0.059827 	3694 	0.059351
33.37 	0.065967 	3714 	0.065336
33.39 	0.055243 	3729 	0.054143
33.41 	0.058556 	3740 	0.057303
33.43 	0.060622 	3761 	0.058909
33.45 	0.067851 	3773 	0.066919
33.47 	0.058978 	3798 	0.058516
33.49 	0.059333 	3809 	0.058718
33.51 	0.056619 	3815 	0.056004
33.53 	0.063785 	3841 	0.062108
33.55 	0.066094 	3843 	0.064570
33.57 	0.065257 	3877 	0.064174
33.59 	0.058505 	3880 	0.057750
33.61 	0.060629 	3909 	0.059430
33.63 	0.058178 	3919 	0.056833
33.65 	0.055711 	3931 	0.055264
33.67 	0.064745 	3954 	0.063559
33.69 	0.053124 	3953 	0.052087
33.71 	0.057862 	3975 	0.056977
33.73 	0.060939 	4004 	0.059915
33.75 	0.054514 	3999 	0.053635
33.77 	0.058882 	4025 	0.057863
33.79 	0.059144 	4041 	0.058709
33.81 	0.057207 	4038 	0.055732
33.83 	0.059012 	4050 	0.057108
33.85 	0.066358 	4099 	0.065048
33.87 	0.054245 	4111 	0.053960
33.89 	0.058966 	4121 	0.058540
33.91 	0.058809 	4149 	0.057539
33.93 	0.051554 	4151 	0.050707
33.95 	0.056924 	4181 	0.055523
33.97 	0.062291 	4190 	0.061732
33.99 	0.062143 	4200 	0.061306
34.01 	0.054830 	4213 	0.053718
34.03 	0.056315 	4244 	0.055625
34.05 	0.060207 	4252 	0.059656
34.07 	0.055998 	4268 	0.055312
34.09 	0.055996 	4286 	0.054630
34.11 	0.056950 	4302 	0.056814
34.13 	0.058496 	4308 	0.057250
34.15 	0.060725 	4331 	0.060049
34.17 	0.058621 	4350 	0.057387
34.19 	0.056855 	4362 	0.055243
34.21 	0.057195 	4371 	0.055989
34.23 	0.052584 	4393 	0.051650
34.25 	0.057902 	4404 	0.056838
34.27 	0.057666 	4422 	0.056474
34.29 	0.052311 	4435 	0.051783
34.31 	0.067295 	4458 	0.065849
34.33 	0.052785 	4471 	0.051867
34.35 	0.055085 	4484 	0.054018
34.37 	0.058116 	4491 	0.056660
34.39 	0.054198 	4502 	0.053808
34.41 	0.062086 	4526 	0.060791
34.43 	0.056620 	4539 	0.055072
34.45 	0.057332 	4535 	0.056169
34.47 	0.060105 	4592 	0.059339
34.49 	0.058734 	4597 	0.057842
34.51 	0.059053 	4606 	0.058290
34.53 	0.061383 	4643 	0.060878
34.55 	0.055352 	4643 	0.054974
34.57 	0.056223 	4660 	0.055469
34.59 	0.061176 	4675 	0.060404
34.61 	0.049819 	4697 	0.049320
34.63 	0.053079 	4710 	0.051959
34.65 	0.057403 	4721 	0.056907
34.67 	0.063700 	4741 	0.062711
34.69 	0.054060 	4754 	0.053320
34.71 	0.054343 	4766 	0.053852
34.73 	0.055358 	4787 	0.053972
34.75 	0.053869 	4808 	0.052894
34.77 	0.051889 	4818 	0.050531
34.79 	0.058250 	4824 	0.057158
34.81 	0.062126 	4845 	0.061038
34.83 	0.055327 	4862 	0.054725
34.85 	0.053604 	4869 	0.053003
34.87 	0.056697 	4868 	0.055373
34.89 	0.050389 	4882 	0.049789
34.91 	0.056944 	4882 	0.055624
34.93 	0.056950 	4899 	0.056233
34.95 	0.058896 	4890 	0.058177
34.97 	0.054060 	4902 	0.053582
34.99 	0.056769 	4897 	0.055932
35.01 	0.056876 	4923 	0.055924
35.03 	0.056646 	4943 	0.055935
35.05 	0.051749 	4947 	0.050920
35.07 	0.059109 	4940 	0.057568
35.09 	0.052493 	4953 	0.051547
35.11 	0.056600 	4947 	0.055534
35.13 	0.056273 	4958 	0.055327
35.15 	0.060563 	4937 	0.059733
35.17 	0.054792 	4946 	0.053844
35.19 	0.055241 	4942 	0.054530
35.21 	0.056825 	4945 	0.055640
35.23 	0.059252 	4945 	0.058659
35.25 	0.055230 	4943 	0.054519
35.27 	0.055376 	4948 	0.054547
35.29 	0.053387 	4945 	0.052440
35.31 	0.061829 	4933 	0.060958
35.33 	0.053813 	4943 	0.053339
35.35 	0.056860 	4942 	0.056010
35.37 	0.060134 	4939 	0.058829
35.39 	0.053387 	4945 	0.051729
35.41 	0.056029 	4926 	0.055197
35.43 	0.059396 	4933 	0.058208
35.45 	0.060158 	4937 	0.058734
35.47 	0.051714 	4931 	0.050882
35.49 	0.062729 	4910 	0.061417
35.51 	0.062931 	4926 	0.062337
35.53 	0.062639 	4949 	0.061692
35.55 	0.056421 	4945 	0.054624
35.57 	0.058990 	4933 	0.058159
35.59 	0.060465 	4945 	0.059024
35.61 	0.052003 	4942 	0.051055
35.63 	0.058264 	4943 	0.056961
35.65 	0.054803 	4945 	0.054329
35.67 	0.053015 	4942 	0.051948
35.69 	0.058229 	4946 	0.057045
35.71 	0.054081 	4937 	0.053370
35.73 	0.060170 	4936 	0.058559
35.75 	0.057392 	4931 	0.056442
35.77 	0.056150 	4951 	0.055303
35.79 	0.053122 	4932 	0.052885
35.81 	0.057571 	4933 	0.056740
35.83 	0.053376 	4946 	0.051936
35.85 	0.058156 	4935 	0.056475
35.87 	0.055860 	4923 	0.054908
35.89 	0.057357 	4934 	0.056407
35.91 	0.054597 	4927 	0.054122
35.93 	0.055206 	4927 	0.054255
35.95 	0.059386 	4917 	0.058671
35.97 	0.054967 	4912 	0.053894
35.99 	0.057906 	4939 	0.057551
36.01 	0.052535 	4930 	0.051823
36.03 	0.063322 	4943 	0.062611
36.05 	0.065116 	4945 	0.064524
36.07 	0.062361 	4939 	0.061056
36.09 	0.054049 	4940 	0.053100
36.11 	0.054981 	4929 	0.054387
36.13 	0.054027 	4942 	0.053434
36.15 	0.061348 	4939 	0.060518
36.17 	0.054822 	4925 	0.054228
36.19 	0.064372 	4940 	0.063187
36.21 	0.054778 	4929 	0.053946
36.23 	0.054509 	4935 	0.053915
36.25 	0.054038 	4941 	0.053208
36.27 	0.060102 	4925 	0.059745
36.29 	0.053539 	4931 	0.052588
36.31 	0.057833 	4928 	0.057001
36.33 	0.058990 	4933 	0.058397
36.35 	0.060661 	4929 	0.059592
36.37 	0.057688 	4923 	0.056736
36.39 	0.060354 	4921 	0.058310
36.41 	0.053105 	4896 	0.052247
36.43 	0.056209 	4928 	0.055377
36.45 	0.066937 	4930 	0.066224
36.47 	0.050243 	4936 	0.049294
36.49 	0.056860 	4942 	0.055911
36.51 	0.056963 	4933 	0.055657
36.53 	0.060894 	4943 	0.059709
36.55 	0.053582 	4927 	0.053226
36.57 	0.059992 	4934 	0.059398
36.59 	0.062361 	4939 	0.060918
36.61 	0.059014 	4931 	0.058302
36.63 	0.059826 	4931 	0.058638
36.65 	0.054542 	4932 	0.053235
36.67 	0.054767 	4930 	0.054054
36.69 	0.056604 	4929 	0.055653
36.71 	0.057102 	4921 	0.056626
36.73 	0.051574 	4925 	0.051217
36.75 	0.051173 	4944 	0.050818
36.77 	0.055906 	4919 	0.055072
36.79 	0.054867 	4921 	0.054391
36.81 	0.056550 	4916 	0.055954
36.83 	0.062055 	4915 	0.060228
36.85 	0.057983 	4898 	0.057026
36.87 	0.054409 	4944 	0.053817
36.89 	0.061229 	4916 	0.060633
36.91 	0.047764 	4941 	0.047408
36.93 	0.058824 	4930 	0.057754
36.95 	0.056558 	4933 	0.055489
36.97 	0.053709 	4934 	0.052997
36.99 	0.061601 	4935 	0.060533
37.01 	0.055747 	4933 	0.054560
37.03 	0.055037 	4924 	0.054204
37.05 	0.058859 	4927 	0.058146
37.07 	0.054509 	4935 	0.053559
37.09 	0.059659 	4928 	0.059421
37.11 	0.052888 	4935 	0.052275
37.13 	0.057271 	4924 	0.056061
37.15 	0.052760 	4909 	0.052164
37.17 	0.056344 	4934 	0.055275
37.19 	0.052792 	4925 	0.051840
37.21 	0.060403 	4917 	0.059330
37.23 	0.056120 	4918 	0.055048
37.25 	0.058440 	4911 	0.057725
37.27 	0.051492 	4894 	0.051133
37.29 	0.059635 	4930 	0.058566
37.31 	0.058967 	4935 	0.057048
37.33 	0.056018 	4927 	0.054829
37.35 	0.055893 	4938 	0.055300
37.37 	0.053988 	4927 	0.053156
37.39 	0.051308 	4931 	0.050695
37.41 	0.053336 	4931 	0.052861
37.43 	0.056772 	4932 	0.055822
37.45 	0.055849 	4924 	0.055135
37.47 	0.054372 	4929 	0.053540
37.49 	0.056267 	4923 	0.055672
37.51 	0.055544 	4933 	0.055307
37.53 	0.055499 	4919 	0.054546
37.55 	0.053955 	4930 	0.053599
37.57 	0.056041 	4925 	0.055327
37.59 	0.060224 	4915 	0.058913
37.61 	0.058310 	4922 	0.057715
37.63 	0.051637 	4919 	0.051041
37.65 	0.056730 	4918 	0.055777
37.67 	0.050571 	4904 	0.049735
37.69 	0.058391 	4898 	0.057554
37.71 	0.055589 	4929 	0.054757
37.73 	0.063096 	4929 	0.062264
37.75 	0.051822 	4940 	0.051110
37.77 	0.053659 	4920 	0.052567
37.79 	0.053955 	4930 	0.053361
37.81 	0.059801 	4933 	0.058851
37.83 	0.052033 	4920 	0.050961
37.85 	0.056684 	4922 	0.055494
37.87 	0.054464 	4939 	0.053871
37.89 	0.056447 	4925 	0.055733
37.91 	0.060041 	4930 	0.059446
37.93 	0.053873 	4919 	0.051948
37.95 	0.061166 	4921 	0.060076
37.97 	0.053561 	4929 	0.052491
37.99 	0.054153 	4912 	0.053438
38.01 	0.056615 	4928 	0.055407
38.03 	0.054594 	4909 	0.053758
38.05 	0.051777 	4925 	0.051301
38.07 	0.058057 	4909 	0.057341
38.09 	0.053916 	4878 	0.052955
38.11 	0.051064 	4935 	0.050708
38.13 	0.058943 	4937 	0.057993
38.15 	0.060797 	4918 	0.059348
38.17 	0.061055 	4930 	0.059985
38.19 	0.060041 	4930 	0.059446
38.21 	0.061345 	4923 	0.060631
38.23 	0.064601 	4938 	0.063633
38.25 	0.064267 	4917 	0.063075
38.27 	0.062069 	4930 	0.060485
38.29 	0.059504 	4924 	0.058791
38.31 	0.066978 	4927 	0.065789
38.33 	0.069456 	4924 	0.068147
38.35 	0.074675 	4928 	0.072773
38.37 	0.074533 	4924 	0.073581
38.39 	0.074150 	4909 	0.072598
38.41 	0.075767 	4923 	0.074577
38.43 	0.076688 	4916 	0.075735
38.45 	0.076454 	4918 	0.075501
38.47 	0.074180 	4907 	0.071623
38.49 	0.077712 	4877 	0.076511
38.51 	0.083131 	4932 	0.080636
38.53 	0.079326 	4929 	0.077781
38.55 	0.077796 	4936 	0.076372
38.57 	0.079423 	4923 	0.077232
38.59 	0.075548 	4924 	0.073883
38.61 	0.079619 	4936 	0.078195
38.63 	0.076158 	4924 	0.074016
38.65 	0.076657 	4918 	0.074990
38.67 	0.070286 	4937 	0.068486
38.69 	0.069687 	4922 	0.067783
38.71 	0.069456 	4924 	0.068028
38.73 	0.068727 	4918 	0.067278
38.75 	0.070022 	4927 	0.067763
38.77 	0.068860 	4923 	0.067790
38.79 	0.057357 	4934 	0.056289
38.81 	0.062500 	4912 	0.061288
38.83 	0.057939 	4919 	0.057085
38.85 	0.055171 	4912 	0.054575
38.87 	0.057626 	4911 	0.056671
38.89 	0.055136 	4897 	0.054538
38.91 	0.058332 	4903 	0.056540
38.93 	0.056096 	4938 	0.054909
38.95 	0.056934 	4918 	0.055485
38.97 	0.052525 	4931 	0.052050
38.99 	0.054081 	4937 	0.053132
39.01 	0.052054 	4918 	0.050982
39.03 	0.054722 	4934 	0.053990
39.05 	0.051371 	4925 	0.050657
39.07 	0.046507 	4924 	0.045674
39.09 	0.055048 	4923 	0.054334
39.11 	0.050294 	4931 	0.049581
39.13 	0.046719 	4923 	0.046006
39.15 	0.047202 	4915 	0.046368
39.17 	0.048410 	4937 	0.047342
39.19 	0.053488 	4917 	0.052773
39.21 	0.044196 	4910 	0.043818
39.23 	0.046497 	4925 	0.045665
39.25 	0.049167 	4922 	0.048929
39.27 	0.050509 	4910 	0.050390
39.29 	0.049378 	4901 	0.048541
39.31 	0.045864 	4884 	0.045864
39.33 	0.045832 	4931 	0.045357
39.35 	0.050051 	4935 	0.049695
39.37 	0.044228 	4929 	0.043872
39.39 	0.053561 	4929 	0.052491
39.41 	0.044818 	4931 	0.043849
39.43 	0.049260 	4933 	0.048548
39.45 	0.048325 	4925 	0.047611
39.47 	0.045907 	4923 	0.045669
39.49 	0.042773 	4933 	0.042061
39.51 	0.044476 	4924 	0.043643
39.53 	0.049563 	4923 	0.048968
39.55 	0.049604 	4919 	0.049127
39.57 	0.041760 	4933 	0.041166
39.59 	0.045399 	4912 	0.044545
39.61 	0.045501 	4923 	0.044648
39.63 	0.050996 	4922 	0.050519
39.65 	0.045473 	4926 	0.044878
39.67 	0.045797 	4913 	0.045558
39.69 	0.048007 	4916 	0.047172
39.71 	0.043922 	4895 	0.043204
39.73 	0.048289 	4908 	0.047572
39.75 	0.042614 	4928 	0.042019
39.77 	0.040324 	4935 	0.039612
39.79 	0.046285 	4926 	0.045690
39.81 	0.042013 	4927 	0.041300
39.83 	0.045602 	4934 	0.044533
39.85 	0.045870 	4927 	0.044800
39.87 	0.044264 	4925 	0.043312
39.89 	0.045602 	4934 	0.044652
39.91 	0.045307 	4922 	0.044236
39.93 	0.047397 	4937 	0.046310
39.95 	0.044354 	4915 	0.043520
39.97 	0.052557 	4928 	0.051725
39.99 	0.041160 	4932 	0.040685
40.01 	0.045547 	4918 	0.044594
40.03 	0.040990 	4928 	0.040396
40.05 	0.044539 	4917 	0.044182
40.07 	0.039610 	4923 	0.039134
40.09 	0.040683 	4916 	0.040207
40.11 	0.042718 	4916 	0.042122
40.13 	0.044322 	4896 	0.043963
40.15 	0.044779 	4913 	0.044302
40.17 	0.040990 	4928 	0.040515
40.19 	0.041996 	4929 	0.041640
40.21 	0.045795 	4935 	0.045439
40.23 	0.046837 	4932 	0.046718
40.25 	0.036992 	4920 	0.036397
40.27 	0.053271 	4937 	0.052085
40.29 	0.041202 	4927 	0.040488
40.31 	0.044746 	4939 	0.044509
40.33 	0.041565 	4932 	0.040971
40.35 	0.042692 	4919 	0.042453
40.37 	0.049300 	4929 	0.048825
40.39 	0.045224 	4931 	0.044630
40.41 	0.048122 	4925 	0.046695
40.43 	0.045916 	4922 	0.045321
40.45 	0.039327 	4933 	0.038971
40.47 	0.047580 	4918 	0.046985
40.49 	0.043240 	4926 	0.042289
40.51 	0.039618 	4922 	0.039618
40.53 	0.039870 	4916 	0.039512
40.55 	0.037490 	4908 	0.036893
40.57 	0.044785 	4890 	0.044306
40.59 	0.041118 	4937 	0.040525
40.61 	0.044985 	4935 	0.044629
40.63 	0.038945 	4930 	0.038945
40.65 	0.042131 	4937 	0.041538
40.67 	0.042174 	4932 	0.042055
40.69 	0.041321 	4937 	0.040371
40.71 	0.044809 	4932 	0.044453
40.73 	0.047300 	4926 	0.046705
40.75 	0.040560 	4931 	0.040085
40.77 	0.038064 	4939 	0.037590
40.79 	0.039602 	4924 	0.039007
40.81 	0.039870 	4941 	0.039396
40.83 	0.044643 	4928 	0.044049
40.85 	0.041633 	4924 	0.041038
40.87 	0.045455 	4928 	0.044385
40.89 	0.042993 	4931 	0.042142
40.91 	0.046923 	4923 	0.046209
40.93 	0.040130 	4934 	0.039892
40.95 	0.041319 	4913 	0.040842
40.97 	0.039602 	4924 	0.039245
40.99 	0.045288 	4924 	0.045050
41.01 	0.038477 	4912 	0.038477
41.03 	0.042406 	4905 	0.042047
41.05 	0.046394 	4936 	0.045563
41.07 	0.045842 	4930 	0.045010
41.09 	0.042519 	4939 	0.041926
41.11 	0.037487 	4935 	0.037013
41.13 	0.037682 	4936 	0.037326
41.15 	0.041692 	4941 	0.041455
41.17 	0.040130 	4934 	0.039279
41.19 	0.039959 	4930 	0.039603
41.21 	0.045169 	4937 	0.044101
41.23 	0.041709 	4939 	0.041334
41.25 	0.043381 	4933 	0.043025
41.27 	0.040154 	4931 	0.040035
41.29 	0.038149 	4928 	0.037793
41.31 	0.039935 	4933 	0.039579
41.33 	0.039093 	4937 	0.038480
41.35 	0.041920 	4938 	0.041208
41.37 	0.040414 	4924 	0.040057
41.39 	0.047233 	4933 	0.046995
41.41 	0.040195 	4926 	0.039462
41.43 	0.039765 	4929 	0.039408
41.45 	0.035409 	4914 	0.035290
41.47 	0.041819 	4926 	0.041224
41.49 	0.043132 	4892 	0.043012
41.51 	0.037854 	4940 	0.037736
41.53 	0.042678 	4944 	0.042323
41.55 	0.037893 	4935 	0.037280
41.57 	0.039263 	4941 	0.039026
41.59 	0.038719 	4933 	0.037512
41.61 	0.042600 	4953 	0.041891
41.63 	0.038680 	4938 	0.038442
41.65 	0.037736 	4929 	0.037379
41.67 	0.041903 	4940 	0.040954
41.69 	0.037396 	4947 	0.036804
41.71 	0.040940 	4934 	0.040703
41.73 	0.038695 	4936 	0.038458
41.75 	0.035098 	4929 	0.034742
41.77 	0.036430 	4941 	0.035837
41.79 	0.037015 	4944 	0.036422
41.81 	0.037277 	4936 	0.037040
41.83 	0.043628 	4928 	0.042915
41.85 	0.039482 	4939 	0.039126
41.87 	0.040729 	4935 	0.040492
41.89 	0.042773 	4933 	0.042298
41.91 	0.038898 	4936 	0.038661
41.93 	0.035280 	4932 	0.034923
41.95 	0.032448 	4931 	0.032448
41.97 	0.037648 	4914 	0.037290
41.99 	0.039959 	4905 	0.039123
42.01 	0.034804 	4942 	0.034567
42.03 	0.034217 	4939 	0.033980
42.05 	0.038974 	4952 	0.038619
42.07 	0.035852 	4937 	0.035614
42.09 	0.041027 	4948 	0.040060
42.11 	0.036400 	4945 	0.036163
42.13 	0.044692 	4945 	0.044455
42.15 	0.040097 	4938 	0.039623
42.17 	0.037820 	4918 	0.037582
42.19 	0.040954 	4908 	0.040595
42.21 	0.041828 	4901 	0.040872
42.23 	0.041905 	4892 	0.041426
42.25 	0.033749 	4889 	0.033749
42.27 	0.041444 	4874 	0.041084
42.29 	0.038865 	4863 	0.038383
42.31 	0.038517 	4855 	0.038396
42.33 	0.037029 	4834 	0.036666
42.35 	0.038859 	4838 	0.038375
42.37 	0.035404 	4830 	0.034676
42.39 	0.036012 	4804 	0.035646
42.41 	0.038510 	4804 	0.038144
42.43 	0.043823 	4792 	0.042845
42.45 	0.034757 	4776 	0.033653
42.47 	0.034627 	4765 	0.034382
42.49 	0.039874 	4765 	0.039382
42.51 	0.038162 	4743 	0.037153
42.53 	0.036802 	4728 	0.036554
42.55 	0.036958 	4708 	0.036461
42.57 	0.039535 	4730 	0.039287
42.59 	0.038486 	4729 	0.038238
42.61 	0.037808 	4708 	0.037684
42.63 	0.034615 	4709 	0.034241
42.65 	0.039488 	4685 	0.038988
42.67 	0.038642 	4684 	0.038017
42.69 	0.036585 	4674 	0.036084
42.71 	0.040103 	4663 	0.039600
42.73 	0.037716 	4640 	0.037463
42.75 	0.033138 	4617 	0.032885
42.77 	0.035435 	4600 	0.035307
42.79 	0.036883 	4582 	0.036500
42.81 	0.038799 	4562 	0.038542
42.83 	0.037257 	4536 	0.036870
42.85 	0.038207 	4528 	0.037948
42.87 	0.039564 	4499 	0.039434
42.89 	0.037500 	4480 	0.037108
42.91 	0.041741 	4456 	0.041084
42.93 	0.039811 	4446 	0.039416
42.95 	0.042799 	4416 	0.042666
42.97 	0.036128 	4401 	0.035862
42.99 	0.036488 	4385 	0.036087
43.01 	0.031859 	4363 	0.031456
43.03 	0.039003 	4333 	0.038462
43.05 	0.033757 	4325 	0.033757
43.07 	0.041667 	4296 	0.041121
43.09 	0.035956 	4283 	0.035683
43.11 	0.037133 	4255 	0.036857
43.13 	0.039179 	4237 	0.038487
43.15 	0.039467 	4206 	0.039050
43.17 	0.035176 	4179 	0.034615
43.19 	0.034573 	4194 	0.034294
43.21 	0.034516 	4172 	0.033814
43.23 	0.043091 	4154 	0.042668
43.25 	0.033857 	4135 	0.033007
43.27 	0.034592 	4105 	0.034307
43.29 	0.036585 	4100 	0.036157
43.31 	0.036038 	4079 	0.035607
43.33 	0.035547 	4051 	0.035258
43.35 	0.035962 	4032 	0.035091
43.37 	0.036115 	4015 	0.034947
43.39 	0.042979 	4002 	0.041954
43.41 	0.038016 	3972 	0.037574
43.43 	0.043939 	3960 	0.043644
43.45 	0.038374 	3935 	0.037927
43.47 	0.039021 	3921 	0.038572
43.49 	0.038235 	3897 	0.037483
43.51 	0.035079 	3877 	0.034776
43.53 	0.036241 	3863 	0.035913
43.55 	0.039474 	2964 	0.039474
43.57 	0.040214 	2238 	0.039691
43.59 	0.035510 	1746 	0.035174
43.61 	0.042191 	1351 	0.041757
43.63 	0.039960 	1001 	0.039960
43.65 	0.042213 	687 	0.040507
43.67 	0.033865 	502 	0.033865
43.69 	0.043597 	367 	0.043597
43.71 	0.029289 	239 	0.029289
43.73 	0.000000 	120 	0.000000
43.75 	0.062500 	16 	0.062500