File: Example_Data/25SC_s1_0011.003.dat
#F C:\frames\spec\25SC_s1_0011.003
#C title =s:11 frm:3 25SC_s1
#C wavelength =0.15406

#S 1  fr_average C:\frames\spec\25SC_s1_0011.003 C:\win32app\speccom\mask.axs chi 0 180 0 360 0.02
#C 2 theta =0.000000 to 180 deg
#C   q   =0.000000 to 81.568 nm^-1
#C  chi  =0.000000 to 360 deg
#C collumns:
#C  1 position (2theta or chi in degrees)
#C  2 average intensity (sum of all counts in the region divided with number of pixels)
#C  3 Number of pixels in region)
#C  4 error (sum of sqrt(intensity) for all pixels divided by number)
#N 4
#L TTh  Int  N_pix  Err
32.99 	0.065574 	61 	0.065574
33.01 	0.051546 	873 	0.050204
33.03 	0.058950 	1391 	0.058529
33.05 	0.070575 	1757 	0.068241
33.07 	0.058049 	2050 	0.057477
33.09 	0.053686 	2347 	0.052438
33.11 	0.071345 	2579 	0.070210
33.13 	0.060508 	2793 	0.059460
33.15 	0.055018 	2999 	0.054628
33.17 	0.052484 	3201 	0.051752
33.19 	0.068821 	3342 	0.067068
33.21 	0.054715 	3436 	0.054033
33.23 	0.061028 	3523 	0.060362
33.25 	0.067553 	3612 	0.065606
33.27 	0.061708 	3630 	0.061224
33.29 	0.064419 	3648 	0.062492
33.31 	0.062842 	3660 	0.061081
33.33 	0.062127 	3686 	0.060856
33.35 	0.057390 	3694 	0.056571
33.37 	0.067313 	3714 	0.064763
33.39 	0.059265 	3729 	0.058794
33.41 	0.055615 	3740 	0.054362
33.43 	0.054507 	3761 	0.053572
33.45 	0.063080 	3773 	0.062148
33.47 	0.062665 	3798 	0.061276
33.49 	0.058020 	3809 	0.057559
33.51 	0.058191 	3815 	0.057577
33.53 	0.061182 	3841 	0.060419
33.55 	0.062451 	3843 	0.061384
33.57 	0.053650 	3877 	0.053045
33.59 	0.057732 	3880 	0.057128
33.61 	0.058583 	3909 	0.057534
33.63 	0.062261 	3919 	0.061065
33.65 	0.059527 	3931 	0.057590
33.67 	0.059181 	3954 	0.058736
33.69 	0.057931 	3953 	0.057042
33.71 	0.066667 	3975 	0.065635
33.73 	0.062687 	4004 	0.061371
33.75 	0.060265 	3999 	0.059533
33.77 	0.058385 	4025 	0.057512
33.79 	0.067558 	4041 	0.066833
33.81 	0.059435 	4038 	0.058275
33.83 	0.064444 	4050 	0.063143
33.85 	0.062698 	4099 	0.061246
33.87 	0.062758 	4111 	0.061903
33.89 	0.059209 	4121 	0.058356
33.91 	0.062666 	4149 	0.061536
33.93 	0.062395 	4151 	0.061125
33.95 	0.063860 	4181 	0.062319
33.97 	0.056325 	4190 	0.055486
33.99 	0.054286 	4200 	0.053728
34.01 	0.065037 	4213 	0.063924
34.03 	0.055844 	4244 	0.055153
34.05 	0.058796 	4252 	0.057418
34.07 	0.061153 	4268 	0.060329
34.09 	0.057163 	4286 	0.056753
34.11 	0.061367 	4302 	0.060005
34.13 	0.057799 	4308 	0.057120
34.15 	0.059801 	4331 	0.058449
34.17 	0.065747 	4350 	0.064535
34.19 	0.056625 	4362 	0.056088
34.21 	0.054907 	4371 	0.054773
34.23 	0.066469 	4393 	0.065114
34.25 	0.061081 	4404 	0.060416
34.27 	0.062641 	4422 	0.061714
34.29 	0.058850 	4435 	0.057772
34.31 	0.058322 	4458 	0.057271
34.33 	0.064415 	4471 	0.062450
34.35 	0.060437 	4484 	0.059653
34.37 	0.059007 	4491 	0.058224
34.39 	0.058641 	4502 	0.057990
34.41 	0.060760 	4526 	0.059983
34.43 	0.064111 	4539 	0.063079
34.45 	0.063947 	4535 	0.063043
34.47 	0.056402 	4592 	0.055637
34.49 	0.058734 	4597 	0.057715
34.51 	0.062527 	4606 	0.061891
34.53 	0.066121 	4643 	0.064355
34.55 	0.060737 	4643 	0.059601
34.57 	0.060944 	4660 	0.059813
34.59 	0.057112 	4675 	0.056069
34.61 	0.058761 	4697 	0.057638
34.63 	0.062633 	4710 	0.061638
34.65 	0.063758 	4721 	0.063013
34.67 	0.060747 	4741 	0.059635
34.69 	0.065839 	4754 	0.063848
34.71 	0.063156 	4766 	0.061804
34.73 	0.055985 	4787 	0.055495
34.75 	0.059900 	4808 	0.058804
34.77 	0.059776 	4818 	0.059046
34.79 	0.064055 	4824 	0.062355
34.81 	0.061920 	4845 	0.060952
34.83 	0.054504 	4862 	0.053059
34.85 	0.059150 	4869 	0.057947
34.87 	0.061422 	4868 	0.059617
34.89 	0.062270 	4882 	0.061550
34.91 	0.061655 	4882 	0.060695
34.93 	0.067157 	4899 	0.066200
34.95 	0.058487 	4890 	0.057768
34.97 	0.060792 	4902 	0.059477
34.99 	0.059833 	4897 	0.058756
35.01 	0.058298 	4923 	0.056751
35.03 	0.067368 	4943 	0.066538
35.05 	0.060845 	4947 	0.060016
35.07 	0.061943 	4940 	0.060619
35.09 	0.062790 	4953 	0.061371
35.11 	0.061654 	4947 	0.060825
35.13 	0.064139 	4958 	0.063194
35.15 	0.053474 	4937 	0.052287
35.17 	0.062070 	4946 	0.061123
35.19 	0.055038 	4942 	0.054564
35.21 	0.060667 	4945 	0.059957
35.23 	0.058645 	4945 	0.057204
35.25 	0.059276 	4943 	0.058091
35.27 	0.059014 	4948 	0.058185
35.29 	0.058038 	4945 	0.056854
35.31 	0.060815 	4933 	0.059865
35.33 	0.058062 	4943 	0.056857
35.35 	0.062121 	4942 	0.060580
35.37 	0.066613 	4939 	0.065545
35.39 	0.065116 	4945 	0.063083
35.41 	0.062119 	4926 	0.061406
35.43 	0.066694 	4933 	0.065269
35.45 	0.060563 	4937 	0.059495
35.47 	0.062665 	4931 	0.061438
35.49 	0.062525 	4910 	0.061432
35.51 	0.058668 	4926 	0.057598
35.53 	0.060416 	4949 	0.059450
35.55 	0.058645 	4945 	0.057579
35.57 	0.059599 	4933 	0.058767
35.59 	0.061072 	4945 	0.059631
35.61 	0.063132 	4942 	0.061947
35.63 	0.056848 	4943 	0.055307
35.65 	0.058038 	4945 	0.057565
35.67 	0.060704 	4942 	0.060349
35.69 	0.064699 	4946 	0.063278
35.71 	0.059753 	4937 	0.058685
35.73 	0.059562 	4936 	0.058494
35.75 	0.061854 	4931 	0.061022
35.77 	0.062412 	4951 	0.061228
35.79 	0.067113 	4932 	0.066143
35.81 	0.052301 	4933 	0.051826
35.83 	0.064092 	4946 	0.063026
35.85 	0.055927 	4935 	0.055334
35.87 	0.062360 	4923 	0.060813
35.89 	0.053506 	4934 	0.053031
35.91 	0.057642 	4927 	0.056928
35.93 	0.054597 	4927 	0.053765
35.95 	0.067317 	4917 	0.066126
35.97 	0.055782 	4912 	0.055424
35.99 	0.065195 	4939 	0.064009
36.01 	0.061055 	4930 	0.060461
36.03 	0.059478 	4943 	0.058293
36.05 	0.060263 	4945 	0.059315
36.07 	0.060741 	4939 	0.059911
36.09 	0.057287 	4940 	0.056576
36.11 	0.060661 	4929 	0.060186
36.13 	0.069405 	4942 	0.068457
36.15 	0.059121 	4939 	0.058291
36.17 	0.063959 	4925 	0.062294
36.19 	0.058704 	4940 	0.058092
36.21 	0.053155 	4929 	0.052561
36.23 	0.063019 	4935 	0.061575
36.25 	0.057276 	4941 	0.056565
36.27 	0.054416 	4925 	0.053584
36.29 	0.055770 	4931 	0.055057
36.31 	0.055601 	4928 	0.054412
36.33 	0.062639 	4933 	0.061689
36.35 	0.061879 	4929 	0.061166
36.37 	0.060735 	4923 	0.060140
36.39 	0.060354 	4921 	0.059639
36.41 	0.066585 	4896 	0.065389
36.43 	0.059253 	4928 	0.058183
36.45 	0.062677 	4930 	0.061370
36.47 	0.059157 	4936 	0.058089
36.49 	0.059692 	4942 	0.058606
36.51 	0.061626 	4933 	0.061032
36.53 	0.059276 	4943 	0.058446
36.55 	0.062107 	4927 	0.061037
36.57 	0.051074 	4934 	0.050362
36.59 	0.056894 	4939 	0.055945
36.61 	0.063273 	4931 	0.061561
36.63 	0.056784 	4931 	0.056665
36.65 	0.052920 	4932 	0.051970
36.67 	0.057201 	4930 	0.056607
36.69 	0.056401 	4929 	0.055688
36.71 	0.059541 	4921 	0.058707
36.73 	0.054619 	4925 	0.054144
36.75 	0.055016 	4944 	0.053476
36.77 	0.056719 	4919 	0.055647
36.79 	0.058321 	4921 	0.057369
36.81 	0.056550 	4916 	0.055716
36.83 	0.060834 	4915 	0.059642
36.85 	0.057983 	4898 	0.057265
36.87 	0.058859 	4944 	0.058385
36.89 	0.056753 	4916 	0.055681
36.91 	0.059300 	4941 	0.057957
36.93 	0.053347 	4930 	0.052614
36.95 	0.055544 	4933 	0.054238
36.97 	0.054925 	4934 	0.053856
36.99 	0.054509 	4935 	0.053421
37.01 	0.059193 	4933 	0.058481
37.03 	0.058489 	4924 	0.057537
37.05 	0.059062 	4927 	0.058111
37.07 	0.061601 	4935 	0.060394
37.09 	0.058442 	4928 	0.057609
37.11 	0.052077 	4935 	0.051602
37.13 	0.053615 	4924 	0.053020
37.15 	0.055816 	4909 	0.054265
37.17 	0.059587 	4934 	0.058518
37.19 	0.055025 	4925 	0.053360
37.21 	0.058979 	4917 	0.058383
37.23 	0.056934 	4918 	0.056219
37.25 	0.054571 	4911 	0.054333
37.27 	0.058848 	4894 	0.057651
37.29 	0.054158 	4930 	0.053208
37.31 	0.057953 	4935 	0.056866
37.33 	0.058250 	4927 	0.056685
37.35 	0.059943 	4938 	0.058738
37.37 	0.053582 	4927 	0.052017
37.39 	0.055770 	4931 	0.054819
37.41 	0.053742 	4931 	0.052653
37.43 	0.061841 	4932 	0.061128
37.45 	0.058286 	4924 	0.057196
37.47 	0.060864 	4929 	0.059676
37.49 	0.053626 	4923 	0.052912
37.51 	0.057977 	4933 	0.056196
37.53 	0.053060 	4919 	0.052107
37.55 	0.055172 	4930 	0.054341
37.57 	0.054619 	4925 	0.054381
37.59 	0.055341 	4915 	0.054387
37.61 	0.053637 	4922 	0.052923
37.63 	0.053263 	4919 	0.052310
37.65 	0.049614 	4918 	0.048661
37.67 	0.049144 	4904 	0.047830
37.69 	0.053695 	4898 	0.053097
37.71 	0.055995 	4929 	0.055044
37.73 	0.053155 	4929 	0.052204
37.75 	0.053036 	4940 	0.052206
37.77 	0.049593 	4920 	0.049236
37.79 	0.051521 	4930 	0.050571
37.81 	0.049868 	4933 	0.048799
37.83 	0.052846 	4920 	0.051516
37.85 	0.055059 	4922 	0.054464
37.87 	0.054667 	4939 	0.053955
37.89 	0.051371 	4925 	0.050875
37.91 	0.049087 	4930 	0.048018
37.93 	0.052856 	4919 	0.052261
37.95 	0.052022 	4921 	0.051189
37.97 	0.057821 	4929 	0.056970
37.99 	0.052117 	4912 	0.051759
38.01 	0.049716 	4928 	0.048884
38.03 	0.049094 	4909 	0.048378
38.05 	0.055431 	4925 	0.054599
38.07 	0.060909 	4909 	0.060073
38.09 	0.053301 	4878 	0.052080
38.11 	0.051266 	4935 	0.050673
38.13 	0.053474 	4937 	0.052999
38.15 	0.057544 	4918 	0.055995
38.17 	0.054361 	4930 	0.053153
38.19 	0.060041 	4930 	0.059209
38.21 	0.053016 	4923 	0.051708
38.23 	0.054678 	4938 	0.053591
38.25 	0.056335 	4917 	0.055382
38.27 	0.053955 	4930 	0.053124
38.29 	0.058286 	4924 	0.058048
38.31 	0.055206 	4927 	0.054255
38.33 	0.056255 	4924 	0.054946
38.35 	0.054992 	4928 	0.054259
38.37 	0.059504 	4924 	0.058553
38.39 	0.059890 	4909 	0.058458
38.41 	0.063579 	4923 	0.062508
38.43 	0.063670 	4916 	0.062836
38.45 	0.064660 	4918 	0.063946
38.47 	0.059914 	4907 	0.059198
38.49 	0.060898 	4877 	0.059937
38.51 	0.056975 	4932 	0.056262
38.53 	0.056604 	4929 	0.055534
38.55 	0.060373 	4936 	0.059285
38.57 	0.061751 	4923 	0.060799
38.59 	0.055240 	4924 	0.054407
38.61 	0.054092 	4936 	0.052787
38.63 	0.061332 	4924 	0.060143
38.65 	0.067914 	4918 	0.066365
38.67 	0.063804 	4937 	0.063329
38.69 	0.055668 	4922 	0.055192
38.71 	0.057677 	4924 	0.057082
38.73 	0.054087 	4918 	0.053611
38.75 	0.057033 	4927 	0.056438
38.77 	0.056063 	4923 	0.055349
38.79 	0.061613 	4934 	0.060307
38.81 	0.055985 	4912 	0.054793
38.83 	0.056312 	4919 	0.055479
38.85 	0.054967 	4912 	0.054490
38.87 	0.050703 	4911 	0.050225
38.89 	0.051868 	4897 	0.051031
38.91 	0.052621 	4903 	0.051904
38.93 	0.045565 	4938 	0.045328
38.95 	0.044937 	4918 	0.043865
38.97 	0.046238 	4931 	0.045763
38.99 	0.047397 	4937 	0.046685
39.01 	0.048394 	4918 	0.047322
39.03 	0.052898 	4934 	0.052305
39.05 	0.052589 	4925 	0.051737
39.07 	0.048132 	4924 	0.047537
39.09 	0.055657 	4923 	0.054705
39.11 	0.047860 	4931 	0.046891
39.13 	0.046110 	4923 	0.045753
39.15 	0.048627 	4915 	0.048031
39.17 	0.051651 	4937 	0.050939
39.19 	0.049624 	4917 	0.048671
39.21 	0.056415 	4910 	0.055819
39.23 	0.049746 	4925 	0.049270
39.25 	0.047135 	4922 	0.046659
39.27 	0.048065 	4910 	0.047588
39.29 	0.054275 	4901 	0.053677
39.31 	0.053030 	4884 	0.052431
39.33 	0.045224 	4931 	0.044987
39.35 	0.054306 	4935 	0.053119
39.37 	0.055184 	4929 	0.054946
39.39 	0.047271 	4929 	0.046439
39.41 	0.047658 	4931 	0.047301
39.43 	0.052504 	4933 	0.051791
39.45 	0.052792 	4925 	0.052197
39.47 	0.046923 	4923 	0.046328
39.49 	0.047638 	4933 	0.047282
39.51 	0.049959 	4924 	0.049365
39.53 	0.051391 	4923 	0.050559
39.55 	0.048384 	4919 	0.047431
39.57 	0.049868 	4933 	0.049274
39.59 	0.043974 	4912 	0.043020
39.61 	0.046516 	4923 	0.045921
39.63 	0.051808 	4922 	0.050975
39.65 	0.048721 	4926 	0.048008
39.67 	0.051292 	4913 	0.050100
39.69 	0.050854 	4916 	0.050616
39.71 	0.049847 	4895 	0.048530
39.73 	0.045844 	4908 	0.045366
39.75 	0.053166 	4928 	0.052314
39.77 	0.049848 	4935 	0.049373
39.79 	0.048518 	4926 	0.048280
39.81 	0.055815 	4927 	0.054507
39.83 	0.051480 	4934 	0.050767
39.85 	0.049726 	4927 	0.048537
39.87 	0.045279 	4925 	0.044566
39.89 	0.048439 	4934 	0.047252
39.91 	0.053027 	4922 	0.052313
39.93 	0.049828 	4937 	0.048997
39.95 	0.047202 	4915 	0.046845
39.97 	0.048093 	4928 	0.047855
39.99 	0.040552 	4932 	0.040076
40.01 	0.047377 	4918 	0.046662
40.03 	0.053774 	4928 	0.052942
40.05 	0.051047 	4917 	0.050452
40.07 	0.049563 	4923 	0.048849
40.09 	0.050041 	4916 	0.048134
40.11 	0.051261 	4916 	0.050665
40.13 	0.049837 	4896 	0.048879
40.15 	0.050275 	4913 	0.050036
40.17 	0.049107 	4928 	0.048275
40.19 	0.049503 	4929 	0.049146
40.21 	0.043566 	4935 	0.042953
40.23 	0.042376 	4932 	0.041426
40.25 	0.044309 	4920 	0.043714
40.27 	0.053879 	4937 	0.053029
40.29 	0.045464 	4927 	0.044869
40.31 	0.045353 	4939 	0.044523
40.33 	0.055961 	4932 	0.055130
40.35 	0.043911 	4919 	0.043554
40.37 	0.044431 	4929 	0.043599
40.39 	0.050091 	4931 	0.049260
40.41 	0.045482 	4925 	0.044888
40.43 	0.044291 	4922 	0.043696
40.45 	0.043179 	4933 	0.043179
40.47 	0.044327 	4918 	0.043374
40.49 	0.047706 	4926 	0.047111
40.51 	0.050183 	4922 	0.049588
40.53 	0.047193 	4916 	0.046716
40.55 	0.042380 	4908 	0.042260
40.57 	0.049693 	4890 	0.049094
40.59 	0.046992 	4937 	0.046755
40.61 	0.046403 	4935 	0.045810
40.63 	0.044625 	4930 	0.044149
40.65 	0.042739 	4937 	0.041908
40.67 	0.049878 	4932 	0.049047
40.69 	0.044967 	4937 	0.044611
40.71 	0.053731 	4932 	0.052424
40.73 	0.050142 	4926 	0.048814
40.75 	0.049686 	4931 	0.048735
40.77 	0.046366 	4939 	0.045773
40.79 	0.045288 	4924 	0.044813
40.81 	0.048776 	4941 	0.048301
40.83 	0.045860 	4928 	0.045028
40.85 	0.046913 	4924 	0.046437
40.87 	0.046469 	4928 	0.046113
40.89 	0.046035 	4931 	0.045441
40.91 	0.043469 	4923 	0.042755
40.93 	0.039724 	4934 	0.039487
40.95 	0.043151 	4913 	0.042793
40.97 	0.046304 	4924 	0.045590
40.99 	0.048741 	4924 	0.048384
41.01 	0.049064 	4912 	0.048825
41.03 	0.053823 	4905 	0.053206
41.05 	0.042545 	4936 	0.042070
41.07 	0.048276 	4930 	0.047543
41.09 	0.042316 	4939 	0.042079
41.11 	0.045795 	4935 	0.044608
41.13 	0.046596 	4936 	0.045766
41.15 	0.046145 	4941 	0.045670
41.17 	0.044589 	4934 	0.044232
41.19 	0.043813 	4930 	0.043219
41.21 	0.048815 	4937 	0.047985
41.23 	0.047176 	4939 	0.046701
41.25 	0.043381 	4933 	0.042788
41.27 	0.043399 	4931 	0.042785
41.29 	0.042208 	4928 	0.041970
41.31 	0.043584 	4933 	0.043109
41.33 	0.038687 	4937 	0.038193
41.35 	0.048198 	4938 	0.047605
41.37 	0.044679 	4924 	0.044322
41.39 	0.047638 	4933 	0.047401
41.41 	0.049127 	4926 	0.048651
41.43 	0.044837 	4929 	0.044837
41.45 	0.043142 	4914 	0.042427
41.47 	0.048112 	4926 	0.047280
41.49 	0.048242 	4892 	0.047643
41.51 	0.047571 	4940 	0.046978
41.53 	0.039644 	4944 	0.039644
41.55 	0.042351 	4935 	0.041994
41.57 	0.049383 	4941 	0.048553
41.59 	0.043179 	4933 	0.042585
41.61 	0.040783 	4953 	0.040429
41.63 	0.041717 	4938 	0.041361
41.65 	0.046257 	4929 	0.045405
41.67 	0.044332 	4940 	0.043601
41.69 	0.041035 	4947 	0.040206
41.71 	0.043373 	4934 	0.042898
41.73 	0.045989 	4936 	0.045039
41.75 	0.047677 	4929 	0.046845
41.77 	0.044930 	4941 	0.044318
41.79 	0.039644 	4944 	0.039644
41.81 	0.044165 	4936 	0.043928
41.83 	0.041193 	4928 	0.040361
41.85 	0.046568 	4939 	0.046212
41.87 	0.047416 	4935 	0.046704
41.89 	0.045206 	4933 	0.044493
41.91 	0.041734 	4936 	0.041378
41.93 	0.046634 	4932 	0.045684
41.95 	0.038937 	4931 	0.038700
41.97 	0.046602 	4914 	0.045529
41.99 	0.045668 	4905 	0.045190
42.01 	0.041076 	4942 	0.040128
42.03 	0.046163 	4939 	0.045096
42.05 	0.039176 	4952 	0.038703
42.07 	0.044561 	4937 	0.044324
42.09 	0.044867 	4948 	0.044156
42.11 	0.047321 	4945 	0.046373
42.13 	0.039838 	4945 	0.039483
42.15 	0.038882 	4938 	0.038764
42.17 	0.044937 	4918 	0.044103
42.19 	0.039324 	4908 	0.039085
42.21 	0.039584 	4901 	0.039345
42.23 	0.044971 	4892 	0.044253
42.25 	0.040090 	4889 	0.039491
42.27 	0.044727 	4874 	0.043886
42.29 	0.042155 	4863 	0.041432
42.31 	0.041195 	4855 	0.040350
42.33 	0.043442 	4834 	0.042958
42.35 	0.048160 	4838 	0.047434
42.37 	0.048447 	4830 	0.047598
42.39 	0.049958 	4804 	0.048861
42.41 	0.041007 	4804 	0.040642
42.43 	0.039858 	4792 	0.039491
42.45 	0.048786 	4776 	0.048418
42.47 	0.044491 	4765 	0.043876
42.49 	0.041553 	4765 	0.041430
42.51 	0.047017 	4743 	0.045411
42.53 	0.044839 	4728 	0.044344
42.55 	0.046092 	4708 	0.045449
42.57 	0.041015 	4730 	0.040396
42.59 	0.038274 	4729 	0.037779
42.61 	0.040144 	4708 	0.039771
42.63 	0.041622 	4709 	0.041249
42.65 	0.040555 	4685 	0.039930
42.67 	0.045901 	4684 	0.044755
42.69 	0.037869 	4674 	0.037618
42.71 	0.043534 	4663 	0.042760
42.73 	0.043966 	4640 	0.043587
42.75 	0.045484 	4617 	0.044596
42.77 	0.046739 	4600 	0.046230
42.79 	0.041903 	4582 	0.041264
42.81 	0.040991 	4562 	0.040220
42.83 	0.042769 	4536 	0.042640
42.85 	0.043507 	4528 	0.043119
42.87 	0.039342 	4499 	0.038951
42.89 	0.037723 	4480 	0.037723
42.91 	0.039497 	4456 	0.039234
42.93 	0.042060 	4446 	0.041665
42.95 	0.043478 	4416 	0.042815
42.97 	0.039991 	4401 	0.039858
42.99 	0.036944 	4385 	0.036410
43.01 	0.045611 	4363 	0.045208
43.03 	0.041542 	4333 	0.041001
43.05 	0.043006 	4325 	0.042329
43.07 	0.044460 	4296 	0.043642
43.09 	0.052300 	4283 	0.051342
43.11 	0.040658 	4255 	0.040658
43.13 	0.047911 	4237 	0.046805
43.15 	0.041845 	4206 	0.041566
43.17 	0.041637 	4179 	0.041356
43.19 	0.040773 	4194 	0.040493
43.21 	0.042665 	4172 	0.041823
43.23 	0.049350 	4154 	0.048645
43.25 	0.039903 	4135 	0.039762
43.27 	0.040926 	4105 	0.040212
43.29 	0.046585 	4100 	0.046585
43.31 	0.051483 	4079 	0.050478
43.33 	0.042952 	4051 	0.042374
43.35 	0.041171 	4032 	0.040590
43.37 	0.037360 	4015 	0.037068
43.39 	0.036732 	4002 	0.036439
43.41 	0.042296 	3972 	0.041264
43.43 	0.045455 	3960 	0.044715
43.45 	0.038374 	3935 	0.038225
43.47 	0.042591 	3921 	0.041844
43.49 	0.048499 	3897 	0.047296
43.51 	0.042817 	3877 	0.042212
43.53 	0.039607 	3863 	0.039303
43.55 	0.039474 	2964 	0.039276
43.57 	0.037534 	2238 	0.037272
43.59 	0.044101 	1746 	0.043765
43.61 	0.030348 	1351 	0.030348
43.63 	0.046953 	1001 	0.045783
43.65 	0.049491 	687 	0.049491
43.67 	0.049801 	502 	0.049801
43.69 	0.049046 	367 	0.049046
43.71 	0.037657 	239 	0.037657
43.73 	0.025000 	120 	0.025000
43.75 	0.000000 	16 	0.000000