File: Example_Data/25SC_s1_0045.002.dat
#F C:\frames\spec\25SC_s1_0045.002
#C title =s:45 frm:2 25SC_s1
#C wavelength =0.15406

#S 1  fr_average C:\frames\spec\25SC_s1_0045.002 C:\win32app\speccom\mask.axs chi 0 180 0 360 0.02
#C 2 theta =0.000000 to 180 deg
#C   q   =0.000000 to 81.568 nm^-1
#C  chi  =0.000000 to 360 deg
#C collumns:
#C  1 position (2theta or chi in degrees)
#C  2 average intensity (sum of all counts in the region divided with number of pixels)
#C  3 Number of pixels in region)
#C  4 error (sum of sqrt(intensity) for all pixels divided by number)
#N 4
#L TTh  Int  N_pix  Err
32.99 	0.081967 	61 	0.072364
33.01 	0.064147 	873 	0.064147
33.03 	0.070453 	1391 	0.068768
33.05 	0.063176 	1757 	0.062509
33.07 	0.055610 	2050 	0.055038
33.09 	0.056242 	2347 	0.054994
33.11 	0.055060 	2579 	0.055060
33.13 	0.056570 	2793 	0.054473
33.15 	0.060687 	2999 	0.059710
33.17 	0.063418 	3201 	0.062107
33.19 	0.053262 	3342 	0.053086
33.21 	0.054133 	3436 	0.053110
33.23 	0.056486 	3523 	0.055987
33.25 	0.062292 	3612 	0.061968
33.27 	0.061157 	3630 	0.059705
33.29 	0.055099 	3648 	0.054938
33.31 	0.055464 	3660 	0.054664
33.33 	0.048562 	3686 	0.048244
33.35 	0.056308 	3694 	0.055673
33.37 	0.057889 	3714 	0.056943
33.39 	0.055511 	3729 	0.054700
33.41 	0.050000 	3740 	0.049373
33.43 	0.061686 	3761 	0.060284
33.45 	0.058574 	3773 	0.057798
33.47 	0.059768 	3798 	0.059306
33.49 	0.064059 	3809 	0.063136
33.51 	0.060026 	3815 	0.058951
33.53 	0.058578 	3841 	0.057206
33.55 	0.064273 	3843 	0.063511
33.57 	0.061388 	3877 	0.060179
33.59 	0.052835 	3880 	0.052231
33.61 	0.060118 	3909 	0.059069
33.63 	0.057413 	3919 	0.056366
33.65 	0.060799 	3931 	0.059905
33.67 	0.061710 	3954 	0.060524
33.69 	0.063749 	3953 	0.062119
33.71 	0.053836 	3975 	0.052952
33.73 	0.055195 	4004 	0.054756
33.75 	0.060265 	3999 	0.059386
33.77 	0.054907 	4025 	0.053743
33.79 	0.054937 	4041 	0.054019
33.81 	0.056959 	4038 	0.056669
33.83 	0.055802 	4050 	0.055513
33.85 	0.053184 	4099 	0.052469
33.87 	0.063245 	4111 	0.062105
33.89 	0.061878 	4121 	0.061594
33.91 	0.055435 	4149 	0.054306
33.93 	0.055167 	4151 	0.053897
33.95 	0.058359 	4181 	0.057659
33.97 	0.052267 	4190 	0.051708
33.99 	0.056905 	4200 	0.056207
34.01 	0.062426 	4213 	0.061731
34.03 	0.060085 	4244 	0.059234
34.05 	0.055974 	4252 	0.055285
34.07 	0.056467 	4268 	0.056055
34.09 	0.064396 	4286 	0.063986
34.11 	0.057183 	4302 	0.056230
34.13 	0.052228 	4308 	0.051413
34.15 	0.059340 	4331 	0.057852
34.17 	0.055862 	4350 	0.054919
34.19 	0.057772 	4362 	0.057637
34.21 	0.053763 	4371 	0.053227
34.23 	0.061234 	4393 	0.059900
34.25 	0.058810 	4404 	0.057879
34.27 	0.056083 	4422 	0.055156
34.29 	0.059526 	4435 	0.058470
34.31 	0.063930 	4458 	0.063010
34.33 	0.055692 	4471 	0.054775
34.35 	0.056646 	4484 	0.055862
34.37 	0.059230 	4491 	0.057904
34.39 	0.053532 	4502 	0.053011
34.41 	0.065621 	4526 	0.064327
34.43 	0.056180 	4539 	0.055276
34.45 	0.056229 	4535 	0.055454
34.47 	0.048998 	4592 	0.047723
34.49 	0.059604 	4597 	0.058712
34.51 	0.047112 	4606 	0.046349
34.53 	0.054060 	4643 	0.052525
34.55 	0.056429 	4643 	0.054989
34.57 	0.055150 	4660 	0.054270
34.59 	0.056257 	4675 	0.055505
34.61 	0.054503 	4697 	0.053755
34.63 	0.056900 	4710 	0.055636
34.65 	0.057403 	4721 	0.056410
34.67 	0.059692 	4741 	0.058065
34.69 	0.057215 	4754 	0.055983
34.71 	0.053294 	4766 	0.053048
34.73 	0.050762 	4787 	0.050008
34.75 	0.054493 	4808 	0.052909
34.77 	0.055832 	4818 	0.054616
34.79 	0.064469 	4824 	0.063114
34.81 	0.051393 	4845 	0.050668
34.83 	0.050185 	4862 	0.049583
34.85 	0.057712 	4869 	0.056389
34.87 	0.062654 	4868 	0.061932
34.89 	0.061041 	4882 	0.060201
34.91 	0.057968 	4882 	0.056768
34.93 	0.058992 	4899 	0.058155
34.95 	0.061350 	4890 	0.060032
34.97 	0.062831 	4902 	0.061637
34.99 	0.062896 	4897 	0.061819
35.01 	0.054641 	4923 	0.053214
35.03 	0.054420 	4943 	0.053591
35.05 	0.054983 	4947 	0.054036
35.07 	0.054858 	4940 	0.053791
35.09 	0.053503 	4953 	0.052183
35.11 	0.060643 	4947 	0.059084
35.13 	0.055063 	4958 	0.053980
35.15 	0.063399 	4937 	0.061955
35.17 	0.059644 	4946 	0.058322
35.19 	0.057669 	4942 	0.056721
35.21 	0.051769 	4945 	0.051177
35.23 	0.053387 	4945 	0.051966
35.25 	0.059478 	4943 	0.058510
35.27 	0.058407 	4948 	0.056731
35.29 	0.057230 	4945 	0.056163
35.31 	0.056558 	4933 	0.056083
35.33 	0.051386 	4943 	0.051030
35.35 	0.059085 	4942 	0.057900
35.37 	0.052237 	4939 	0.051644
35.39 	0.060667 	4945 	0.059009
35.41 	0.055217 	4926 	0.054742
35.43 	0.055950 	4933 	0.054743
35.45 	0.050841 	4937 	0.050366
35.47 	0.059014 	4931 	0.058044
35.49 	0.059674 	4910 	0.058958
35.51 	0.055623 	4926 	0.055148
35.53 	0.050919 	4949 	0.050328
35.55 	0.052983 	4945 	0.051917
35.57 	0.052504 	4933 	0.051791
35.59 	0.063094 	4945 	0.062620
35.61 	0.059895 	4942 	0.059065
35.63 	0.062917 	4943 	0.061851
35.65 	0.055814 	4945 	0.054866
35.67 	0.053622 	4942 	0.052773
35.69 	0.060049 	4946 	0.058746
35.71 	0.059348 	4937 	0.058399
35.73 	0.057536 	4936 	0.056706
35.75 	0.053944 	4931 	0.052875
35.77 	0.058776 	4951 	0.057593
35.79 	0.056772 	4932 	0.056059
35.81 	0.057977 	4933 	0.057146
35.83 	0.056207 	4946 	0.054648
35.85 	0.049443 	4935 	0.048731
35.87 	0.062970 	4923 	0.061542
35.89 	0.054722 	4934 	0.053416
35.91 	0.045870 	4927 	0.045037
35.93 	0.059062 	4927 	0.057873
35.95 	0.054708 	4917 	0.053874
35.97 	0.053746 	4912 	0.053030
35.99 	0.059729 	4939 	0.058780
36.01 	0.049290 	4930 	0.048577
36.03 	0.063120 	4943 	0.061322
36.05 	0.055005 	4945 	0.054294
36.07 	0.055072 	4939 	0.054360
36.09 	0.053239 	4940 	0.052172
36.11 	0.059038 	4929 	0.057375
36.13 	0.052813 	4942 	0.052101
36.15 	0.056287 	4939 	0.055456
36.17 	0.052995 	4925 	0.052162
36.19 	0.053239 	4940 	0.053120
36.21 	0.054981 	4929 	0.054030
36.23 	0.058967 	4935 	0.058373
36.25 	0.058085 	4941 	0.057137
36.27 	0.056447 	4925 	0.055376
36.29 	0.054756 	4931 	0.054043
36.31 	0.062297 	4928 	0.061227
36.33 	0.055950 	4933 	0.055356
36.35 	0.052140 	4929 	0.051427
36.37 	0.053220 	4923 	0.052387
36.39 	0.055070 	4921 	0.054594
36.41 	0.055351 	4896 	0.054274
36.43 	0.053369 	4928 	0.052655
36.45 	0.049290 	4930 	0.048102
36.47 	0.055713 	4936 	0.054645
36.49 	0.055038 	4942 	0.053952
36.51 	0.052909 	4933 	0.052553
36.53 	0.057657 	4943 	0.056235
36.55 	0.054394 	4927 	0.053681
36.57 	0.054520 	4934 	0.053451
36.59 	0.056084 	4939 	0.055116
36.61 	0.054553 	4931 	0.053602
36.63 	0.055364 	4931 	0.054770
36.65 	0.056569 	4932 	0.056094
36.67 	0.058215 	4930 	0.057621
36.69 	0.057212 	4929 	0.055886
36.71 	0.065027 	4921 	0.064670
36.73 	0.059289 	4925 	0.057981
36.75 	0.056837 	4944 	0.055889
36.77 	0.059972 	4919 	0.058642
36.79 	0.061370 	4921 	0.059703
36.81 	0.045769 	4916 	0.045292
36.83 	0.049237 	4915 	0.048383
36.85 	0.058595 	4898 	0.057469
36.87 	0.055218 	4944 	0.054488
36.89 	0.058788 	4916 	0.057834
36.91 	0.057073 	4941 	0.056106
36.93 	0.047870 	4930 	0.047633
36.95 	0.058382 	4933 	0.057532
36.97 	0.045805 	4934 	0.045567
36.99 	0.053495 	4935 	0.052427
37.01 	0.052301 	4933 	0.051588
37.03 	0.059708 	4924 	0.058518
37.05 	0.052770 	4927 	0.052176
37.07 	0.056535 	4935 	0.055467
37.09 	0.058442 	4928 	0.056540
37.11 	0.060790 	4935 	0.059821
37.13 	0.051381 	4924 	0.050667
37.15 	0.052149 	4909 	0.051175
37.17 	0.052493 	4934 	0.051899
37.19 	0.050558 	4925 	0.050083
37.21 	0.056945 	4917 	0.055853
37.23 	0.055307 	4918 	0.054473
37.25 	0.057422 	4911 	0.056468
37.27 	0.056191 	4894 	0.054735
37.29 	0.063489 	4930 	0.062657
37.31 	0.056130 	4935 	0.055061
37.33 	0.051147 	4927 	0.050552
37.35 	0.056906 	4938 	0.055957
37.37 	0.054597 	4927 	0.053408
37.39 	0.055364 	4931 	0.054532
37.41 	0.055770 	4931 	0.054938
37.43 	0.058800 	4932 	0.058087
37.45 	0.043867 	4924 	0.043272
37.47 	0.052343 	4929 	0.051749
37.49 	0.057688 	4923 	0.055904
37.51 	0.045408 	4933 	0.044815
37.53 	0.053060 	4919 	0.052345
37.55 	0.055172 	4930 	0.054440
37.57 	0.055635 	4925 	0.055159
37.59 	0.055137 	4915 	0.054422
37.61 	0.058716 	4922 	0.058121
37.63 	0.057532 	4919 	0.056937
37.65 	0.053477 	4918 	0.052762
37.67 	0.060971 	4904 	0.059378
37.69 	0.054512 	4898 	0.054153
37.71 	0.055995 	4929 	0.055044
37.73 	0.047474 	4929 	0.046880
37.75 	0.052024 	4940 	0.051669
37.77 	0.050000 	4920 	0.049167
37.79 	0.057201 	4930 	0.055993
37.81 	0.052909 	4933 	0.052196
37.83 	0.053049 	4920 	0.052315
37.85 	0.056481 	4922 	0.055152
37.87 	0.057299 	4939 	0.055994
37.89 	0.059898 	4925 	0.059185
37.91 	0.050913 	4930 	0.049705
37.93 	0.050620 	4919 	0.049786
37.95 	0.050193 	4921 	0.049122
37.97 	0.053358 	4929 	0.052645
37.99 	0.053135 	4912 	0.051943
38.01 	0.051136 	4928 	0.049829
38.03 	0.057853 	4909 	0.057018
38.05 	0.052183 	4925 	0.050637
38.07 	0.051131 	4909 	0.050534
38.09 	0.048995 	4878 	0.048755
38.11 	0.059372 	4935 	0.058660
38.13 	0.052866 	4937 	0.052036
38.15 	0.051240 	4918 	0.050526
38.17 	0.051521 	4930 	0.050808
38.19 	0.049290 	4930 	0.048221
38.21 	0.060126 	4923 	0.059412
38.23 	0.057513 	4938 	0.056801
38.25 	0.058776 	4917 	0.057703
38.27 	0.063286 	4930 	0.061227
38.29 	0.059911 	4924 	0.059078
38.31 	0.055815 	4927 	0.054864
38.33 	0.054833 	4924 	0.053862
38.35 	0.060471 	4928 	0.058906
38.37 	0.056864 	4924 	0.056032
38.39 	0.060705 	4909 	0.060108
38.41 	0.070079 	4923 	0.068870
38.43 	0.061025 	4916 	0.059576
38.45 	0.065270 	4918 	0.064079
38.47 	0.065621 	4907 	0.064546
38.49 	0.064384 	4877 	0.063303
38.51 	0.060827 	4932 	0.059877
38.53 	0.070805 	4929 	0.069617
38.55 	0.063817 	4936 	0.062867
38.57 	0.066017 	4923 	0.065065
38.59 	0.060926 	4924 	0.059974
38.61 	0.066248 	4936 	0.064330
38.63 	0.062551 	4924 	0.061718
38.65 	0.053680 	4918 	0.052727
38.67 	0.064614 	4937 	0.063546
38.69 	0.059325 	4922 	0.057897
38.71 	0.053818 	4924 	0.052747
38.73 	0.051240 	4918 	0.050883
38.75 	0.050741 	4927 	0.050027
38.77 	0.050782 	4923 	0.049830
38.79 	0.054722 	4934 	0.053634
38.81 	0.052321 	4912 	0.051605
38.83 	0.050213 	4919 	0.049003
38.85 	0.050692 	4912 	0.049738
38.87 	0.050906 	4911 	0.050310
38.89 	0.050235 	4897 	0.049278
38.91 	0.046502 	4903 	0.046024
38.93 	0.051438 	4938 	0.050489
38.95 	0.047174 	4918 	0.045983
38.97 	0.046238 	4931 	0.045407
38.99 	0.049220 	4937 	0.048390
39.01 	0.046970 	4918 	0.046851
39.03 	0.046210 	4934 	0.045379
39.05 	0.044873 	4925 	0.044397
39.07 	0.046710 	4924 	0.046234
39.09 	0.046110 	4923 	0.045277
39.11 	0.047860 	4931 	0.047148
39.13 	0.048345 	4923 	0.047869
39.15 	0.047609 	4915 	0.047133
39.17 	0.047195 	4937 	0.046601
39.19 	0.043116 	4917 	0.042401
39.21 	0.046843 	4910 	0.046366
39.23 	0.045685 	4925 	0.045328
39.25 	0.044697 	4922 	0.044340
39.27 	0.044399 	4910 	0.044161
39.29 	0.043052 	4901 	0.042335
39.31 	0.042588 	4884 	0.041849
39.33 	0.048874 	4931 	0.047905
39.35 	0.045998 	4935 	0.045286
39.37 	0.046663 	4929 	0.046187
39.39 	0.046054 	4929 	0.045579
39.41 	0.039343 	4931 	0.038987
39.43 	0.049260 	4933 	0.048785
39.45 	0.042640 	4925 	0.042045
39.47 	0.050782 	4923 	0.050068
39.49 	0.045814 	4933 	0.044508
39.51 	0.047929 	4924 	0.047334
39.53 	0.050376 	4923 	0.049424
39.55 	0.046757 	4919 	0.045904
39.57 	0.042368 	4933 	0.042011
39.59 	0.045603 	4912 	0.045006
39.61 	0.048954 	4923 	0.048716
39.63 	0.045510 	4922 	0.044558
39.65 	0.043037 	4926 	0.042542
39.67 	0.044576 	4913 	0.043622
39.69 	0.041497 	4916 	0.041021
39.71 	0.048621 	4895 	0.047783
39.73 	0.043195 	4908 	0.042220
39.75 	0.048904 	4928 	0.048290
39.77 	0.043972 	4935 	0.043259
39.79 	0.044255 	4926 	0.043541
39.81 	0.047493 	4927 	0.046899
39.83 	0.046413 	4934 	0.045463
39.85 	0.048305 	4927 	0.047711
39.87 	0.048934 	4925 	0.048458
39.89 	0.045399 	4934 	0.044687
39.91 	0.046526 	4922 	0.046050
39.93 	0.044967 	4937 	0.043780
39.95 	0.044761 	4915 	0.043807
39.97 	0.041802 	4928 	0.041445
39.99 	0.045823 	4932 	0.045229
40.01 	0.048800 	4918 	0.048324
40.03 	0.043831 	4928 	0.043237
40.05 	0.045556 	4917 	0.044961
40.07 	0.051391 	4923 	0.050677
40.09 	0.041090 	4916 	0.040375
40.11 	0.037836 	4916 	0.037597
40.13 	0.045956 	4896 	0.045597
40.15 	0.039691 	4913 	0.039094
40.17 	0.050731 	4928 	0.049760
40.19 	0.041591 	4929 	0.041353
40.21 	0.047822 	4935 	0.047703
40.23 	0.042376 	4932 	0.041782
40.25 	0.045122 	4920 	0.044646
40.27 	0.044967 	4937 	0.044255
40.29 	0.044246 	4927 	0.043533
40.31 	0.043126 	4939 	0.042632
40.33 	0.041971 	4932 	0.041377
40.35 	0.043505 	4919 	0.042790
40.37 	0.043417 	4929 	0.043179
40.39 	0.041777 	4931 	0.041301
40.41 	0.045888 	4925 	0.045294
40.43 	0.045916 	4922 	0.045083
40.45 	0.044598 	4933 	0.044004
40.47 	0.042090 	4918 	0.041733
40.49 	0.039789 	4926 	0.039432
40.51 	0.045104 	4922 	0.044727
40.53 	0.043124 	4916 	0.043005
40.55 	0.041157 	4908 	0.040919
40.57 	0.036605 	4890 	0.036486
40.59 	0.042333 	4937 	0.041503
40.61 	0.044985 	4935 	0.044391
40.63 	0.044422 	4930 	0.043828
40.65 	0.042333 	4937 	0.041859
40.67 	0.042782 	4932 	0.042069
40.69 	0.040510 	4937 	0.040036
40.71 	0.043796 	4932 	0.043202
40.73 	0.040398 	4926 	0.040398
40.75 	0.044616 	4931 	0.044022
40.77 	0.041709 	4939 	0.040997
40.79 	0.045695 	4924 	0.045338
40.81 	0.044121 	4941 	0.043884
40.83 	0.043831 	4928 	0.043593
40.85 	0.041633 	4924 	0.041157
40.87 	0.040381 	4928 	0.039787
40.89 	0.044413 	4931 	0.044175
40.91 	0.039610 	4923 	0.039372
40.93 	0.041143 	4934 	0.040549
40.95 	0.046611 	4913 	0.046373
40.97 	0.047522 	4924 	0.047403
40.99 	0.042648 	4924 	0.042291
41.01 	0.039088 	4912 	0.038730
41.03 	0.043629 	4905 	0.043151
41.05 	0.043558 	4936 	0.043202
41.07 	0.043813 	4930 	0.043695
41.09 	0.039077 	4939 	0.038602
41.11 	0.042148 	4935 	0.041673
41.13 	0.041329 	4936 	0.040380
41.15 	0.043109 	4941 	0.042634
41.17 	0.044183 	4934 	0.043471
41.19 	0.045030 	4930 	0.044436
41.21 	0.044764 	4937 	0.044408
41.23 	0.039887 	4939 	0.039294
41.25 	0.043381 	4933 	0.042550
41.27 	0.042385 	4931 	0.041553
41.29 	0.040787 	4928 	0.040668
41.31 	0.045408 	4933 	0.044933
41.33 	0.041118 	4937 	0.040643
41.35 	0.044350 	4938 	0.043994
41.37 	0.041836 	4924 	0.041241
41.39 	0.043179 	4933 	0.042466
41.41 	0.042834 	4926 	0.042477
41.43 	0.042605 	4929 	0.042486
41.45 	0.043346 	4914 	0.043226
41.47 	0.042225 	4926 	0.041868
41.49 	0.043336 	4892 	0.042498
41.51 	0.044534 	4940 	0.044179
41.53 	0.038430 	4944 	0.037956
41.55 	0.043364 	4935 	0.042770
41.57 	0.039870 	4941 	0.039515
41.59 	0.042976 	4933 	0.042263
41.61 	0.038764 	4953 	0.038055
41.63 	0.039287 	4938 	0.038931
41.65 	0.041185 	4929 	0.040472
41.67 	0.036842 	4940 	0.036486
41.69 	0.041237 	4947 	0.040882
41.71 	0.040738 	4934 	0.040382
41.73 	0.037075 	4936 	0.036956
41.75 	0.043417 	4929 	0.042941
41.77 	0.038454 	4941 	0.037486
41.79 	0.043487 	4944 	0.043013
41.81 	0.041734 	4936 	0.041141
41.83 	0.042614 	4928 	0.041900
41.85 	0.040292 	4939 	0.039817
41.87 	0.043161 	4935 	0.042449
41.89 	0.041557 	4933 	0.041082
41.91 	0.041734 	4936 	0.041259
41.93 	0.040552 	4932 	0.040314
41.95 	0.046441 	4931 	0.045847
41.97 	0.037851 	4914 	0.037613
41.99 	0.036086 	4905 	0.035608
42.01 	0.041279 	4942 	0.041042
42.03 	0.039077 	4939 	0.038840
42.05 	0.041599 	4952 	0.041008
42.07 	0.040308 	4937 	0.039477
42.09 	0.038399 	4948 	0.037926
42.11 	0.037209 	4945 	0.036854
42.13 	0.041254 	4945 	0.040898
42.15 	0.041920 	4938 	0.041208
42.17 	0.039040 	4918 	0.038921
42.19 	0.039935 	4908 	0.039696
42.21 	0.038972 	4901 	0.038494
42.23 	0.040474 	4892 	0.040115
42.25 	0.037226 	4889 	0.036987
42.27 	0.039188 	4874 	0.038466
42.29 	0.038042 	4863 	0.037561
42.31 	0.038311 	4855 	0.037346
42.33 	0.040339 	4834 	0.039976
42.35 	0.038446 	4838 	0.038203
42.37 	0.036646 	4830 	0.036282
42.39 	0.040383 	4804 	0.039895
42.41 	0.037469 	4804 	0.036859
42.43 	0.036728 	4792 	0.036361
42.45 	0.039782 	4776 	0.039046
42.47 	0.043232 	4765 	0.042740
42.49 	0.038615 	4765 	0.037734
42.51 	0.039427 	4743 	0.038912
42.53 	0.037648 	4728 	0.037276
42.55 	0.033772 	4708 	0.033275
42.57 	0.035941 	4730 	0.034930
42.59 	0.042504 	4729 	0.041884
42.61 	0.044817 	4708 	0.044320
42.63 	0.037375 	4709 	0.037002
42.65 	0.037353 	4685 	0.036978
42.67 	0.031810 	4684 	0.031685
42.69 	0.037013 	4674 	0.036763
42.71 	0.038387 	4663 	0.037885
42.73 	0.039655 	4640 	0.039150
42.75 	0.037470 	4617 	0.037216
42.77 	0.036304 	4600 	0.036050
42.79 	0.039939 	4582 	0.039300
42.81 	0.046690 	4562 	0.046305
42.83 	0.041446 	4536 	0.041188
42.85 	0.041740 	4528 	0.041223
42.87 	0.038008 	4499 	0.037878
42.89 	0.039063 	4480 	0.038801
42.91 	0.035682 	4456 	0.035419
42.93 	0.042735 	4446 	0.041945
42.95 	0.039855 	4416 	0.039457
42.97 	0.036810 	4401 	0.036011
42.99 	0.035348 	4385 	0.034680
43.01 	0.036672 	4363 	0.036269
43.03 	0.040619 	4333 	0.039943
43.05 	0.043468 	4325 	0.043333
43.07 	0.039804 	4296 	0.039100
43.09 	0.036657 	4283 	0.036246
43.11 	0.038308 	4255 	0.037482
43.13 	0.037763 	4237 	0.037486
43.15 	0.039705 	4206 	0.039427
43.17 	0.035415 	4179 	0.035135
43.19 	0.038150 	4194 	0.038010
43.21 	0.038830 	4172 	0.038269
43.23 	0.037073 	4154 	0.036509
43.25 	0.040629 	4135 	0.040062
43.27 	0.037515 	4105 	0.036802
43.29 	0.037073 	4100 	0.036359
43.31 	0.043638 	4079 	0.043638
43.33 	0.035794 	4051 	0.034926
43.35 	0.035466 	4032 	0.035030
43.37 	0.039352 	4015 	0.038623
43.39 	0.034983 	4002 	0.034543
43.41 	0.042296 	3972 	0.041854
43.43 	0.039899 	3960 	0.039603
43.45 	0.035578 	3935 	0.035280
43.47 	0.035960 	3921 	0.035661
43.49 	0.043880 	3897 	0.042978
43.51 	0.040495 	3877 	0.039740
43.53 	0.036759 	3863 	0.036304
43.55 	0.041835 	2964 	0.041045
43.57 	0.034853 	2238 	0.034329
43.59 	0.037228 	1746 	0.035550
43.61 	0.033309 	1351 	0.033309
43.63 	0.036963 	1001 	0.036378
43.65 	0.030568 	687 	0.028862
43.67 	0.037849 	502 	0.036682
43.69 	0.032698 	367 	0.032698
43.71 	0.008368 	239 	0.008368
43.73 	0.058333 	120 	0.053452
43.75 	0.000000 	16 	0.000000