File: Example_Data/25SC_s1_0012.003.dat
#F C:\frames\spec\25SC_s1_0012.003
#C title =s:12 frm:3 25SC_s1
#C wavelength =0.15406

#S 1  fr_average C:\frames\spec\25SC_s1_0012.003 C:\win32app\speccom\mask.axs chi 0 180 0 360 0.02
#C 2 theta =0.000000 to 180 deg
#C   q   =0.000000 to 81.568 nm^-1
#C  chi  =0.000000 to 360 deg
#C collumns:
#C  1 position (2theta or chi in degrees)
#C  2 average intensity (sum of all counts in the region divided with number of pixels)
#C  3 Number of pixels in region)
#C  4 error (sum of sqrt(intensity) for all pixels divided by number)
#N 4
#L TTh  Int  N_pix  Err
32.99 	0.049180 	61 	0.049180
33.01 	0.067583 	873 	0.066241
33.03 	0.064702 	1391 	0.063438
33.05 	0.062038 	1757 	0.060371
33.07 	0.076098 	2050 	0.073765
33.09 	0.057520 	2347 	0.056023
33.11 	0.058162 	2579 	0.057254
33.13 	0.063015 	2793 	0.061966
33.15 	0.063021 	2999 	0.061849
33.17 	0.051859 	3201 	0.051127
33.19 	0.061041 	3342 	0.059814
33.21 	0.052386 	3436 	0.051875
33.23 	0.058189 	3523 	0.057358
33.25 	0.053156 	3612 	0.052183
33.27 	0.057576 	3630 	0.056769
33.29 	0.060033 	3648 	0.058909
33.31 	0.056831 	3660 	0.055390
33.33 	0.060228 	3686 	0.059592
33.35 	0.061180 	3694 	0.060229
33.37 	0.063274 	3714 	0.062643
33.39 	0.059802 	3729 	0.059330
33.41 	0.060160 	3740 	0.059377
33.43 	0.055304 	3761 	0.054993
33.45 	0.067055 	3773 	0.066279
33.47 	0.061875 	3798 	0.060307
33.49 	0.060908 	3809 	0.060139
33.51 	0.056094 	3815 	0.055634
33.53 	0.058839 	3841 	0.058381
33.55 	0.055686 	3843 	0.055076
33.57 	0.066288 	3877 	0.065080
33.59 	0.070361 	3880 	0.069455
33.61 	0.052443 	3909 	0.051844
33.63 	0.063537 	3919 	0.062789
33.65 	0.052658 	3931 	0.052062
33.67 	0.069550 	3954 	0.068068
33.69 	0.057931 	3953 	0.057486
33.71 	0.059119 	3975 	0.057351
33.73 	0.061688 	4004 	0.060664
33.75 	0.058015 	3999 	0.056696
33.77 	0.062360 	4025 	0.061633
33.79 	0.063351 	4041 	0.062191
33.81 	0.062655 	4038 	0.061784
33.83 	0.060988 	4050 	0.059541
33.85 	0.061966 	4099 	0.061109
33.87 	0.059839 	4111 	0.058700
33.89 	0.062364 	4121 	0.061368
33.91 	0.061220 	4149 	0.059949
33.93 	0.062876 	4151 	0.061160
33.95 	0.055728 	4181 	0.054607
33.97 	0.063007 	4190 	0.061190
33.99 	0.058810 	4200 	0.057415
34.01 	0.059340 	4213 	0.057927
34.03 	0.058671 	4244 	0.057291
34.05 	0.064205 	4252 	0.062690
34.07 	0.070056 	4268 	0.069233
34.09 	0.069995 	4286 	0.067809
34.11 	0.059740 	4302 	0.059195
34.13 	0.056871 	4308 	0.055919
34.15 	0.060032 	4331 	0.059086
34.17 	0.060920 	4350 	0.059573
34.19 	0.058459 	4362 	0.057385
34.21 	0.064059 	4371 	0.062718
34.23 	0.059413 	4393 	0.058057
34.25 	0.057448 	4404 	0.056916
34.27 	0.061511 	4422 	0.060981
34.29 	0.065614 	4435 	0.064536
34.31 	0.062135 	4458 	0.061478
34.33 	0.063520 	4471 	0.062844
34.35 	0.063336 	4484 	0.062291
34.37 	0.057226 	4491 	0.055921
34.39 	0.063972 	4502 	0.062670
34.41 	0.055236 	4526 	0.054848
34.43 	0.063891 	4539 	0.062600
34.45 	0.066814 	4535 	0.065134
34.47 	0.063807 	4592 	0.062148
34.49 	0.067435 	4597 	0.066267
34.51 	0.058836 	4606 	0.057946
34.53 	0.063321 	4643 	0.062438
34.55 	0.059014 	4643 	0.057752
34.57 	0.047854 	4660 	0.046723
34.59 	0.061818 	4675 	0.061192
34.61 	0.063658 	4697 	0.062411
34.63 	0.063907 	4710 	0.063036
34.65 	0.062275 	4721 	0.061530
34.67 	0.057161 	4741 	0.056543
34.69 	0.061212 	4754 	0.059979
34.71 	0.065254 	4766 	0.064271
34.73 	0.057238 	4787 	0.056239
34.75 	0.060316 	4808 	0.059220
34.77 	0.059983 	4818 	0.059497
34.79 	0.058872 	4824 	0.058629
34.81 	0.067079 	4845 	0.065125
34.83 	0.062320 	4862 	0.061477
34.85 	0.061204 	4869 	0.060482
34.87 	0.064708 	4868 	0.063746
34.89 	0.065752 	4882 	0.063352
34.91 	0.062679 	4882 	0.061839
34.93 	0.059604 	4899 	0.059006
34.95 	0.062986 	4890 	0.061409
34.97 	0.062220 	4902 	0.061264
34.99 	0.061875 	4897 	0.060918
35.01 	0.061751 	4923 	0.060561
35.03 	0.067166 	4943 	0.066080
35.05 	0.059228 	4947 	0.057452
35.07 	0.056478 	4940 	0.055628
35.09 	0.055522 	4953 	0.054201
35.11 	0.057004 	4947 	0.056294
35.13 	0.064744 	4958 	0.063799
35.15 	0.062184 	4937 	0.061234
35.17 	0.060049 	4946 	0.059219
35.19 	0.060907 	4942 	0.060077
35.21 	0.060061 	4945 	0.059231
35.23 	0.060667 	4945 	0.059720
35.25 	0.063726 	4943 	0.062778
35.27 	0.065885 	4948 	0.064465
35.29 	0.060870 	4945 	0.060277
35.31 	0.058788 	4933 	0.058075
35.33 	0.062310 	4943 	0.061244
35.35 	0.062930 	4942 	0.061626
35.37 	0.059324 	4939 	0.058256
35.39 	0.060667 	4945 	0.059720
35.41 	0.056029 	4926 	0.055554
35.43 	0.057571 	4933 	0.056859
35.45 	0.061981 	4937 	0.060656
35.47 	0.054553 	4931 	0.053484
35.49 	0.061711 	4910 	0.060260
35.51 	0.060292 	4926 	0.059222
35.53 	0.057385 	4949 	0.055827
35.55 	0.055612 	4945 	0.054664
35.57 	0.059193 	4933 	0.058006
35.59 	0.066330 	4945 	0.065027
35.61 	0.061514 	4942 	0.060565
35.63 	0.061097 	4943 	0.059793
35.65 	0.053792 	4945 	0.053199
35.67 	0.060502 	4942 	0.059317
35.69 	0.054590 	4946 	0.053405
35.71 	0.061373 	4937 	0.060187
35.73 	0.062804 	4936 	0.061479
35.75 	0.065707 	4931 	0.064024
35.77 	0.060796 	4951 	0.059849
35.79 	0.059002 	4932 	0.057933
35.81 	0.055950 	4933 	0.055712
35.83 	0.062070 	4946 	0.061478
35.85 	0.060182 	4935 	0.058521
35.87 	0.058298 	4923 	0.057941
35.89 	0.058979 	4934 	0.057772
35.91 	0.059671 	4927 	0.058601
35.93 	0.059265 	4927 	0.058552
35.95 	0.051658 	4917 	0.051062
35.97 	0.060261 	4912 	0.059426
35.99 	0.061348 	4939 	0.060400
36.01 	0.059229 	4930 	0.057685
36.03 	0.061097 	4943 	0.060010
36.05 	0.058038 	4945 	0.057683
36.07 	0.057704 	4939 	0.057111
36.09 	0.059514 	4940 	0.058921
36.11 	0.055184 	4929 	0.054570
36.13 	0.058276 	4942 	0.057802
36.15 	0.054464 	4939 	0.053160
36.17 	0.059086 	4925 	0.058492
36.19 	0.062348 	4940 	0.061518
36.21 	0.064922 	4929 	0.063377
36.23 	0.059777 	4935 	0.058946
36.25 	0.063145 	4941 	0.061940
36.27 	0.052995 	4925 	0.051548
36.29 	0.060231 	4931 	0.059162
36.31 	0.058036 	4928 	0.056827
36.33 	0.063248 	4933 	0.061684
36.35 	0.060053 	4929 	0.058627
36.37 	0.060126 	4923 	0.059531
36.39 	0.064418 	4921 	0.063108
36.41 	0.058415 	4896 	0.057219
36.43 	0.065544 	4928 	0.064474
36.45 	0.062272 	4930 	0.061915
36.47 	0.061386 	4936 	0.060318
36.49 	0.060704 	4942 	0.059993
36.51 	0.064058 	4933 	0.063346
36.53 	0.062513 	4943 	0.061190
36.55 	0.062107 	4927 	0.061750
36.57 	0.055938 	4934 	0.055107
36.59 	0.059526 	4939 	0.058577
36.61 	0.060231 	4931 	0.058924
36.63 	0.061042 	4931 	0.060291
36.65 	0.055150 	4932 	0.054081
36.67 	0.056998 	4930 	0.055642
36.69 	0.055995 	4929 	0.054331
36.71 	0.057305 	4921 	0.056115
36.73 	0.061117 	4925 	0.060760
36.75 	0.057241 	4944 	0.055819
36.77 	0.054279 	4919 	0.052969
36.79 	0.054054 	4921 	0.052864
36.81 	0.062042 	4916 	0.060970
36.83 	0.062665 	4915 	0.061473
36.85 	0.062270 	4898 	0.061055
36.87 	0.063511 	4944 	0.062563
36.89 	0.060415 	4916 	0.059462
36.91 	0.050597 	4941 	0.049411
36.93 	0.056389 	4930 	0.054964
36.95 	0.061220 	4933 	0.060745
36.97 	0.063235 	4934 	0.061929
36.99 	0.062209 	4935 	0.061615
37.01 	0.052909 	4933 	0.052196
37.03 	0.053209 	4924 	0.052257
37.05 	0.059468 	4927 	0.059230
37.07 	0.058156 	4935 	0.057206
37.09 	0.056006 	4928 	0.055531
37.11 	0.053293 	4935 	0.052225
37.13 	0.055646 	4924 	0.054813
37.15 	0.050519 	4909 	0.050042
37.17 	0.059789 	4934 	0.059077
37.19 	0.056650 	4925 	0.055579
37.21 	0.060403 	4917 	0.059450
37.23 	0.051647 	4918 	0.051290
37.25 	0.058440 	4911 	0.057605
37.27 	0.061913 	4894 	0.060835
37.29 	0.060243 	4930 	0.059055
37.31 	0.054711 	4935 	0.054355
37.33 	0.051553 	4927 	0.050958
37.35 	0.053058 	4938 	0.052346
37.37 	0.054597 	4927 	0.053646
37.39 	0.061042 	4931 	0.060686
37.41 	0.054350 	4931 	0.053637
37.43 	0.060219 	4932 	0.058912
37.45 	0.048538 	4924 	0.047943
37.47 	0.054372 	4929 	0.053421
37.49 	0.051391 	4923 	0.051153
37.51 	0.058585 	4933 	0.057991
37.53 	0.058142 	4919 	0.057427
37.55 	0.056998 	4930 	0.055414
37.57 	0.051777 	4925 	0.051420
37.59 	0.047406 	4915 	0.046572
37.61 	0.058919 	4922 	0.058205
37.63 	0.054076 	4919 	0.053242
37.65 	0.057950 	4918 	0.057355
37.67 	0.057912 	4904 	0.057195
37.69 	0.053083 	4898 	0.052485
37.71 	0.050517 	4929 	0.049785
37.73 	0.051938 	4929 	0.051462
37.75 	0.055668 	4940 	0.054601
37.77 	0.053862 	4920 	0.052294
37.79 	0.053955 	4930 	0.053005
37.81 	0.056963 	4933 	0.055895
37.83 	0.052642 	4920 	0.052027
37.85 	0.054043 	4922 	0.053686
37.87 	0.057502 	4939 	0.056078
37.89 	0.054213 	4925 	0.053599
37.91 	0.058824 	4930 	0.058229
37.93 	0.057125 	4919 	0.056292
37.95 	0.051006 	4921 	0.050054
37.97 	0.053358 	4929 	0.052526
37.99 	0.058021 	4912 	0.056809
38.01 	0.053571 	4928 	0.052620
38.03 	0.053575 	4909 	0.052740
38.05 	0.051777 	4925 	0.051301
38.07 	0.052964 	4909 	0.051771
38.09 	0.050431 	4878 	0.049590
38.11 	0.051672 	4935 	0.050841
38.13 	0.053879 	4937 	0.052673
38.15 	0.053680 	4918 	0.053323
38.17 	0.055984 	4930 	0.055390
38.19 	0.056795 	4930 	0.056201
38.21 	0.058298 	4923 	0.057465
38.23 	0.057513 	4938 	0.056545
38.25 	0.055318 	4917 	0.054365
38.27 	0.051927 	4930 	0.051571
38.29 	0.058692 	4924 	0.057621
38.31 	0.053785 	4927 	0.052477
38.33 	0.059098 	4924 	0.058008
38.35 	0.062094 	4928 	0.060767
38.37 	0.062754 	4924 	0.061445
38.39 	0.056223 	4909 	0.055269
38.41 	0.059923 	4923 	0.059209
38.43 	0.056347 	4916 	0.055036
38.45 	0.058764 	4918 	0.057573
38.47 	0.059507 	4907 	0.058791
38.49 	0.063154 	4877 	0.062073
38.51 	0.062449 	4932 	0.061855
38.53 	0.065936 	4929 	0.064748
38.55 	0.063817 	4936 	0.062017
38.57 	0.057892 	4923 	0.056464
38.59 	0.066206 	4924 	0.064779
38.61 	0.059562 	4936 	0.058732
38.63 	0.065394 	4924 	0.064323
38.65 	0.057544 	4918 	0.056353
38.67 	0.059145 	4937 	0.058789
38.69 	0.053434 	4922 	0.052362
38.71 	0.058895 	4924 	0.058300
38.73 	0.055510 	4918 	0.054677
38.75 	0.061904 	4927 	0.059586
38.77 	0.052407 	4923 	0.051693
38.79 	0.049655 	4934 	0.048706
38.81 	0.051099 	4912 	0.050742
38.83 	0.051230 	4919 	0.050634
38.85 	0.053950 	4912 	0.053472
38.87 	0.057626 	4911 	0.057029
38.89 	0.061670 	4897 	0.059996
38.91 	0.051397 	4903 	0.049844
38.93 	0.052045 	4938 	0.051452
38.95 	0.044530 	4918 	0.043697
38.97 	0.056378 	4931 	0.055190
38.99 	0.057525 	4937 	0.056694
39.01 	0.053274 	4918 	0.052440
39.03 	0.049858 	4934 	0.048790
39.05 	0.049746 	4925 	0.049270
39.07 	0.050366 	4924 	0.049890
39.09 	0.052813 	4923 	0.052337
39.11 	0.046441 	4931 	0.045966
39.13 	0.047938 	4923 	0.047581
39.15 	0.052289 	4915 	0.051197
39.17 	0.048613 	4937 	0.048257
39.19 	0.049420 	4917 	0.048567
39.21 	0.048065 	4910 	0.047707
39.23 	0.047716 	4925 	0.046764
39.25 	0.048354 	4922 	0.047997
39.27 	0.047454 	4910 	0.046599
39.29 	0.045705 	4901 	0.045346
39.31 	0.047912 	4884 	0.047552
39.33 	0.053539 	4931 	0.052945
39.35 	0.047416 	4935 	0.046704
39.37 	0.055589 	4929 	0.054639
39.39 	0.047068 	4929 	0.046355
39.41 	0.049483 	4931 	0.048889
39.43 	0.044800 	4933 	0.044563
39.45 	0.049746 	4925 	0.049270
39.47 	0.051595 	4923 	0.050762
39.49 	0.049666 	4933 	0.049072
39.51 	0.051990 	4924 	0.051138
39.53 	0.054032 	4923 	0.053199
39.55 	0.046757 	4919 	0.046162
39.57 	0.046625 	4933 	0.046150
39.59 	0.044992 	4912 	0.044396
39.61 	0.048954 	4923 	0.048359
39.63 	0.050996 	4922 	0.050043
39.65 	0.044052 	4926 	0.043457
39.67 	0.051700 	4913 	0.051342
39.69 	0.050854 	4916 	0.049424
39.71 	0.048008 	4895 	0.047529
39.73 	0.049918 	4908 	0.049560
39.75 	0.053977 	4928 	0.053383
39.77 	0.049443 	4935 	0.048612
39.79 	0.045067 	4926 	0.044235
39.81 	0.048914 	4927 	0.048557
39.83 	0.045602 	4934 	0.045364
39.85 	0.050335 	4927 	0.049503
39.87 	0.045685 	4925 	0.045091
39.89 	0.054722 	4934 	0.053654
39.91 	0.049370 	4922 	0.049251
39.93 	0.047802 	4937 	0.046616
39.95 	0.046592 	4915 	0.045877
39.97 	0.043831 	4928 	0.043237
39.99 	0.052514 	4932 	0.051683
40.01 	0.053477 	4918 	0.052762
40.03 	0.049919 	4928 	0.048968
40.05 	0.050031 	4917 	0.049673
40.07 	0.050173 	4923 	0.049578
40.09 	0.045566 	4916 	0.044493
40.11 	0.049024 	4916 	0.047832
40.13 	0.047181 	4896 	0.046205
40.15 	0.048443 	4913 	0.048204
40.17 	0.049310 	4928 	0.048835
40.19 	0.046460 	4929 	0.045866
40.21 	0.041337 	4935 	0.040625
40.23 	0.050487 	4932 	0.049873
40.25 	0.050000 	4920 	0.049643
40.27 	0.044359 	4937 	0.043766
40.29 	0.047290 	4927 	0.046934
40.31 	0.047985 	4939 	0.046918
40.33 	0.045215 	4932 	0.044740
40.35 	0.049197 	4919 	0.047768
40.37 	0.052952 	4929 	0.052358
40.39 	0.045427 	4931 	0.044833
40.41 	0.049949 	4925 	0.049236
40.43 	0.045713 	4922 	0.045356
40.45 	0.049666 	4933 	0.049191
40.47 	0.047580 	4918 	0.047223
40.49 	0.046488 	4926 	0.046012
40.51 	0.050386 	4922 	0.050029
40.53 	0.044752 	4916 	0.043898
40.55 	0.046047 	4908 	0.045689
40.57 	0.041513 	4890 	0.041154
40.59 	0.052461 	4937 	0.051512
40.61 	0.045187 	4935 	0.044475
40.63 	0.048884 	4930 	0.048528
40.65 	0.051246 	4937 	0.050652
40.67 	0.048459 	4932 	0.047746
40.69 	0.047600 	4937 	0.047125
40.71 	0.043593 	4932 	0.043355
40.73 	0.046285 	4926 	0.045690
40.75 	0.048063 	4931 	0.047707
40.77 	0.047783 	4939 	0.047071
40.79 	0.047319 	4924 	0.046843
40.81 	0.046752 	4941 	0.046396
40.83 	0.042614 	4928 	0.042019
40.85 	0.045085 	4924 	0.044233
40.87 	0.051745 	4928 	0.050794
40.89 	0.047049 	4931 	0.045861
40.91 	0.042860 	4923 	0.042384
40.93 	0.049250 	4934 	0.048775
40.95 	0.044983 	4913 	0.044625
40.97 	0.047116 	4924 	0.046283
40.99 	0.047116 	4924 	0.046759
41.01 	0.046824 	4912 	0.045512
41.03 	0.044241 	4905 	0.043643
41.05 	0.048825 	4936 	0.048588
41.07 	0.048479 	4930 	0.047271
41.09 	0.042721 	4939 	0.042010
41.11 	0.046403 	4935 	0.046047
41.13 	0.045381 	4936 	0.044787
41.15 	0.048168 	4941 	0.047082
41.17 	0.046818 	4934 	0.046462
41.19 	0.046653 	4930 	0.046297
41.21 	0.044561 	4937 	0.043612
41.23 	0.046771 	4939 	0.046296
41.25 	0.049463 	4933 	0.048731
41.27 	0.046238 	4931 	0.045644
41.29 	0.045657 	4928 	0.044806
41.31 	0.039935 	4933 	0.039223
41.33 	0.048005 	4937 	0.047174
41.35 	0.050020 	4938 	0.049427
41.37 	0.043664 	4924 	0.043188
41.39 	0.045814 	4933 	0.045458
41.41 	0.050345 	4926 	0.049275
41.43 	0.051126 	4929 	0.049819
41.45 	0.048433 	4914 	0.047479
41.47 	0.047503 	4926 	0.047146
41.49 	0.046198 	4892 	0.045719
41.51 	0.047166 	4940 	0.046810
41.53 	0.043487 	4944 	0.042875
41.55 	0.043566 	4935 	0.042973
41.57 	0.045537 	4941 	0.044826
41.59 	0.047638 	4933 	0.047045
41.61 	0.046235 	4953 	0.045643
41.63 	0.047590 	4938 	0.047234
41.65 	0.044634 	4929 	0.043921
41.67 	0.042915 	4940 	0.042441
41.69 	0.045886 	4947 	0.045413
41.71 	0.048439 	4934 	0.048202
41.73 	0.044773 	4936 	0.044417
41.75 	0.042199 	4929 	0.041724
41.77 	0.045335 	4941 	0.045098
41.79 	0.047735 	4944 	0.047261
41.81 	0.046596 	4936 	0.046003
41.83 	0.045860 	4928 	0.045147
41.85 	0.040292 	4939 	0.039343
41.87 	0.042958 	4935 	0.042484
41.89 	0.037908 	4933 	0.037314
41.91 	0.045989 	4936 	0.045514
41.93 	0.049473 	4932 	0.049117
41.95 	0.043805 	4931 	0.043329
41.97 	0.048433 	4914 	0.047956
41.99 	0.047910 	4905 	0.047194
42.01 	0.043505 	4942 	0.043149
42.03 	0.043531 	4939 	0.042701
42.05 	0.044628 	4952 	0.043919
42.07 	0.047802 	4937 	0.046853
42.09 	0.042846 	4948 	0.042254
42.11 	0.044692 	4945 	0.044336
42.13 	0.048534 	4945 	0.047804
42.15 	0.035844 	4938 	0.035370
42.17 	0.043310 	4918 	0.042080
42.19 	0.040546 	4908 	0.039949
42.21 	0.047745 	4901 	0.047267
42.23 	0.046198 	4892 	0.046198
42.25 	0.044794 	4889 	0.044435
42.27 	0.038982 	4874 	0.038381
42.29 	0.041744 	4863 	0.041382
42.31 	0.041195 	4855 	0.040953
42.33 	0.045097 	4834 	0.044613
42.35 	0.042786 	4838 	0.042665
42.37 	0.043892 	4830 	0.043528
42.39 	0.043922 	4804 	0.043414
42.41 	0.043505 	4804 	0.043018
42.43 	0.040484 	4792 	0.039751
42.45 	0.041248 	4776 	0.040389
42.47 	0.041973 	4765 	0.041112
42.49 	0.041343 	4765 	0.040851
42.51 	0.041746 	4743 	0.041252
42.53 	0.047166 	4728 	0.046546
42.55 	0.045455 	4708 	0.045330
42.57 	0.036152 	4730 	0.035781
42.59 	0.047790 	4729 	0.047047
42.61 	0.041631 	4708 	0.040636
42.63 	0.037800 	4709 	0.037551
42.65 	0.043330 	4685 	0.042434
42.67 	0.040991 	4684 	0.040740
42.69 	0.047283 	4674 	0.046907
42.71 	0.042033 	4663 	0.041531
42.73 	0.044612 	4640 	0.044360
42.75 	0.041369 	4617 	0.040608
42.77 	0.038696 	4600 	0.038568
42.79 	0.044959 	4582 	0.044447
42.81 	0.047128 	4562 	0.047000
42.83 	0.040564 	4536 	0.040306
42.85 	0.044611 	4528 	0.044223
42.87 	0.040453 	4499 	0.040193
42.89 	0.042634 	4480 	0.042242
42.91 	0.040395 	4456 	0.039869
42.93 	0.042960 	4446 	0.042433
42.95 	0.043705 	4416 	0.043439
42.97 	0.039309 	4401 	0.039176
42.99 	0.036260 	4385 	0.035859
43.01 	0.035526 	4363 	0.035526
43.03 	0.042696 	4333 	0.042155
43.05 	0.041387 	4325 	0.040846
43.07 	0.038641 	4296 	0.037822
43.09 	0.038758 	4283 	0.038484
43.11 	0.044183 	4255 	0.043748
43.13 	0.045315 	4237 	0.044624
43.15 	0.039943 	4206 	0.039664
43.17 	0.039244 	4179 	0.039104
43.19 	0.043157 	4194 	0.042598
43.21 	0.046261 	4172 	0.045699
43.23 	0.041165 	4154 	0.040601
43.25 	0.051511 	4135 	0.050803
43.27 	0.041413 	4105 	0.040842
43.29 	0.042195 	4100 	0.041624
43.31 	0.043393 	4079 	0.042962
43.33 	0.045668 	4051 	0.045234
43.35 	0.044395 	4032 	0.043959
43.37 	0.044334 	4015 	0.044042
43.39 	0.044228 	4002 	0.043935
43.41 	0.043051 	3972 	0.042756
43.43 	0.042929 	3960 	0.042486
43.45 	0.041423 	3935 	0.040828
43.47 	0.048712 	3921 	0.047791
43.49 	0.041570 	3897 	0.041270
43.51 	0.043075 	3877 	0.042470
43.53 	0.037794 	3863 	0.037340
43.55 	0.045209 	2964 	0.044814
43.57 	0.043342 	2238 	0.043081
43.59 	0.046392 	1746 	0.046392
43.61 	0.035529 	1351 	0.035529
43.63 	0.046953 	1001 	0.046368
43.65 	0.036390 	687 	0.036390
43.67 	0.025896 	502 	0.025896
43.69 	0.046322 	367 	0.046322
43.71 	0.020921 	239 	0.020921
43.73 	0.066667 	120 	0.066667
43.75 	0.062500 	16 	0.062500