File: Example_Data/25SC_s1_0018.000.dat
#F C:\frames\spec\25SC_s1_0018.000
#C title =s:18 frm:0 25SC_s1
#C wavelength =0.15406

#S 1  fr_average C:\frames\spec\25SC_s1_0018.000 C:\win32app\speccom\mask.axs chi 0 180 0 360 0.02
#C 2 theta =0.000000 to 180 deg
#C   q   =0.000000 to 81.568 nm^-1
#C  chi  =0.000000 to 360 deg
#C collumns:
#C  1 position (2theta or chi in degrees)
#C  2 average intensity (sum of all counts in the region divided with number of pixels)
#C  3 Number of pixels in region)
#C  4 error (sum of sqrt(intensity) for all pixels divided by number)
#N 4
#L TTh  Int  N_pix  Err
32.99 	0.032787 	61 	0.032787
33.01 	0.071019 	873 	0.069677
33.03 	0.058231 	1391 	0.057389
33.05 	0.060899 	1757 	0.059899
33.07 	0.061951 	2050 	0.060808
33.09 	0.063911 	2347 	0.062913
33.11 	0.059713 	2579 	0.058350
33.13 	0.050841 	2793 	0.049339
33.15 	0.067022 	2999 	0.066046
33.17 	0.057794 	3201 	0.055964
33.19 	0.060144 	3342 	0.059267
33.21 	0.052095 	3436 	0.051584
33.23 	0.062447 	3523 	0.061283
33.25 	0.059801 	3612 	0.058990
33.27 	0.063085 	3630 	0.061633
33.29 	0.069353 	3648 	0.067881
33.31 	0.060383 	3660 	0.059422
33.33 	0.063212 	3686 	0.061782
33.35 	0.062534 	3694 	0.061741
33.37 	0.060312 	3714 	0.059524
33.39 	0.056852 	3729 	0.055909
33.41 	0.063904 	3740 	0.062807
33.43 	0.064610 	3761 	0.063832
33.45 	0.066525 	3773 	0.064792
33.47 	0.055029 	3798 	0.054104
33.49 	0.056183 	3809 	0.055568
33.51 	0.062385 	3815 	0.061771
33.53 	0.056496 	3841 	0.055428
33.55 	0.062711 	3843 	0.061644
33.57 	0.054681 	3877 	0.053926
33.59 	0.062887 	3880 	0.061679
33.61 	0.056792 	3909 	0.055144
33.63 	0.063792 	3919 	0.062447
33.65 	0.054185 	3931 	0.053738
33.67 	0.060445 	3954 	0.059236
33.69 	0.052365 	3953 	0.051328
33.71 	0.061132 	3975 	0.059953
33.73 	0.064436 	4004 	0.062826
33.75 	0.057764 	3999 	0.056886
33.77 	0.057640 	4025 	0.056039
33.79 	0.064093 	4041 	0.062354
33.81 	0.056464 	4038 	0.056028
33.83 	0.059753 	4050 	0.058741
33.85 	0.062454 	4099 	0.061168
33.87 	0.064948 	4111 	0.063499
33.89 	0.056782 	4121 	0.055645
33.91 	0.052784 	4149 	0.052360
33.93 	0.056131 	4151 	0.055143
33.95 	0.057163 	4181 	0.056183
33.97 	0.055609 	4190 	0.054770
33.99 	0.062381 	4200 	0.060824
34.01 	0.062663 	4213 	0.061134
34.03 	0.056550 	4244 	0.055860
34.05 	0.059266 	4252 	0.058026
34.07 	0.062090 	4268 	0.060969
34.09 	0.057396 	4286 	0.056576
34.11 	0.061599 	4302 	0.060646
34.13 	0.054085 	4308 	0.053813
34.15 	0.063727 	4331 	0.062780
34.17 	0.055862 	4350 	0.054628
34.19 	0.062815 	4362 	0.061875
34.21 	0.059483 	4371 	0.058523
34.23 	0.061689 	4393 	0.061156
34.25 	0.058129 	4404 	0.057198
34.27 	0.057666 	4422 	0.057004
34.29 	0.057948 	4435 	0.056099
34.31 	0.060341 	4458 	0.059290
34.33 	0.056587 	4471 	0.055670
34.35 	0.060214 	4484 	0.058777
34.37 	0.057894 	4491 	0.056720
34.39 	0.060195 	4502 	0.059024
34.41 	0.055678 	4526 	0.055031
34.43 	0.063009 	4539 	0.061827
34.45 	0.055347 	4535 	0.053926
34.47 	0.058362 	4592 	0.057469
34.49 	0.054818 	4597 	0.054181
34.51 	0.057534 	4606 	0.056643
34.53 	0.056644 	4643 	0.055635
34.55 	0.055568 	4643 	0.054811
34.57 	0.054936 	4660 	0.054056
34.59 	0.054759 	4675 	0.053757
34.61 	0.052587 	4697 	0.051838
34.63 	0.060510 	4710 	0.059017
34.65 	0.059733 	4721 	0.058616
34.67 	0.058848 	4741 	0.057613
34.69 	0.060370 	4754 	0.059754
34.71 	0.056861 	4766 	0.056492
34.73 	0.062879 	4787 	0.061900
34.75 	0.051789 	4808 	0.050570
34.77 	0.058115 	4818 	0.057386
34.79 	0.057214 	4824 	0.056242
34.81 	0.056553 	4845 	0.056070
34.83 	0.056972 	4862 	0.056250
34.85 	0.057712 	4869 	0.056509
34.87 	0.054643 	4868 	0.053800
34.89 	0.060426 	4882 	0.059586
34.91 	0.054896 	4882 	0.054056
34.93 	0.054705 	4899 	0.053988
34.95 	0.055828 	4890 	0.054511
34.97 	0.052020 	4902 	0.051781
34.99 	0.057995 	4897 	0.056559
35.01 	0.057079 	4923 	0.055770
35.03 	0.055837 	4943 	0.055125
35.05 	0.057611 	4947 	0.056427
35.07 	0.057490 	4940 	0.056778
35.09 	0.058348 	4953 	0.056792
35.11 	0.064281 	4947 	0.063216
35.13 	0.057079 	4958 	0.056371
35.15 	0.063399 	4937 	0.062331
35.17 	0.056409 	4946 	0.055225
35.19 	0.059895 	4942 	0.058472
35.21 	0.063094 	4945 	0.062146
35.23 	0.060870 	4945 	0.060040
35.25 	0.064333 	4943 	0.062556
35.27 	0.055376 	4948 	0.054429
35.29 	0.058645 	4945 	0.057559
35.31 	0.063045 	4933 	0.062095
35.33 	0.057253 	4943 	0.055949
35.35 	0.057062 	4942 	0.056232
35.37 	0.053857 	4939 	0.053027
35.39 	0.056016 	4945 	0.055049
35.41 	0.060495 	4926 	0.059782
35.43 	0.054936 	4933 	0.054105
35.45 	0.054081 	4937 	0.053231
35.47 	0.051511 	4931 	0.050560
35.49 	0.060489 	4910 	0.059654
35.51 	0.059886 	4926 	0.059530
35.53 	0.058396 	4949 	0.057449
35.55 	0.058038 	4945 	0.056854
35.57 	0.057571 	4933 	0.057215
35.59 	0.059050 	4945 	0.058813
35.61 	0.058883 	4942 	0.058172
35.63 	0.061299 	4943 	0.060232
35.65 	0.060870 	4945 	0.059567
35.67 	0.053420 	4942 	0.052827
35.69 	0.057218 	4946 	0.056270
35.71 	0.057322 	4937 	0.056729
35.73 	0.053485 	4936 	0.053010
35.75 	0.058000 	4931 	0.057525
35.77 	0.062816 	4951 	0.061751
35.79 	0.055556 	4932 	0.054705
35.81 	0.055747 	4933 	0.054560
35.83 	0.055803 	4946 	0.054737
35.85 	0.060790 	4935 	0.059366
35.87 	0.053829 	4923 	0.052976
35.89 	0.053101 	4934 	0.052389
35.91 	0.060280 	4927 	0.059210
35.93 	0.060483 	4927 	0.059056
35.95 	0.058776 	4917 	0.057703
35.97 	0.060057 	4912 	0.059203
35.99 	0.059526 	4939 	0.058696
36.01 	0.065112 	4930 	0.064517
36.03 	0.058264 	4943 	0.057316
36.05 	0.058443 	4945 	0.057495
36.07 	0.058311 	4939 	0.058074
36.09 	0.060729 	4940 	0.059069
36.11 	0.058835 	4929 	0.057647
36.13 	0.057062 	4942 	0.056213
36.15 	0.062766 	4939 	0.061442
36.17 	0.063959 	4925 	0.062889
36.19 	0.049798 	4940 	0.049442
36.21 	0.060459 	4929 	0.058914
36.23 	0.065248 	4935 	0.064180
36.25 	0.065979 	4941 	0.065267
36.27 	0.057868 	4925 	0.056421
36.29 	0.062259 	4931 	0.061546
36.31 	0.065138 	4928 	0.063593
36.33 	0.052301 	4933 	0.051351
36.35 	0.061067 	4929 	0.059265
36.37 	0.061548 	4923 	0.060596
36.39 	0.061370 	4921 	0.060417
36.41 	0.064134 	4896 	0.063057
36.43 	0.059050 	4928 	0.057981
36.45 	0.057809 	4930 	0.056978
36.47 	0.057536 	4936 	0.056330
36.49 	0.064549 	4942 	0.063462
36.51 	0.062031 	4933 	0.060112
36.53 	0.060287 	4943 	0.058628
36.55 	0.062107 	4927 	0.060779
36.57 	0.055128 	4934 	0.054534
36.59 	0.058514 	4939 	0.057328
36.61 	0.064896 	4931 	0.063470
36.63 	0.058609 	4931 	0.057540
36.65 	0.061233 	4932 	0.059451
36.67 	0.066329 	4930 	0.065477
36.69 	0.055792 	4929 	0.054604
36.71 	0.057915 	4921 	0.056467
36.73 	0.064365 	4925 	0.063533
36.75 	0.058657 	4944 	0.058302
36.77 	0.066070 	4919 	0.064641
36.79 	0.057509 	4921 	0.057032
36.81 	0.054312 	4916 	0.053240
36.83 	0.069379 	4915 	0.067572
36.85 	0.060433 	4898 	0.059835
36.87 	0.062298 	4944 	0.061942
36.89 	0.061229 	4916 	0.059799
36.91 	0.062943 	4941 	0.061757
36.93 	0.059026 	4930 	0.058076
36.95 	0.060409 	4933 	0.058985
36.97 	0.063235 	4934 	0.062285
36.99 	0.056130 	4935 	0.055536
37.01 	0.062234 	4933 	0.061284
37.03 	0.061942 	4924 	0.061109
37.05 	0.062513 	4927 	0.061562
37.07 	0.056738 	4935 	0.055907
37.09 	0.059253 	4928 	0.058065
37.11 	0.053698 	4935 	0.052986
37.13 	0.059504 	4924 	0.058553
37.15 	0.063353 	4909 	0.062140
37.17 	0.057965 	4934 	0.057134
37.19 	0.058477 	4925 	0.057288
37.21 	0.056335 	4917 	0.054767
37.23 	0.061204 	4918 	0.059894
37.25 	0.063938 	4911 	0.062984
37.27 	0.057622 	4894 	0.056425
37.29 	0.064503 	4930 	0.062939
37.31 	0.062614 	4935 	0.061546
37.33 	0.058859 	4927 	0.058146
37.35 	0.056096 	4938 	0.055502
37.37 	0.058250 	4927 	0.058013
37.39 	0.058609 	4931 	0.057658
37.41 	0.058609 	4931 	0.058015
37.43 	0.063058 	4932 	0.061989
37.45 	0.059504 	4924 	0.058553
37.47 	0.055386 	4929 	0.054555
37.49 	0.058298 	4923 	0.056751
37.51 	0.065275 	4933 	0.064562
37.53 	0.059972 	4919 	0.059019
37.55 	0.050913 	4930 	0.049725
37.57 	0.052589 	4925 	0.051875
37.59 	0.056765 	4915 	0.055692
37.61 	0.055465 	4922 	0.054037
37.63 	0.053873 	4919 	0.053039
37.65 	0.057544 	4918 	0.056829
37.67 	0.060359 	4904 	0.059523
37.69 	0.055125 	4898 	0.053929
37.71 	0.058430 	4929 	0.057241
37.73 	0.055589 	4929 	0.054995
37.75 	0.062348 	4940 	0.061755
37.77 	0.057927 	4920 	0.057093
37.79 	0.056998 	4930 	0.056047
37.81 	0.058990 	4933 	0.057803
37.83 	0.052236 	4920 	0.051521
37.85 	0.055059 	4922 	0.054464
37.87 	0.052845 	4939 	0.052252
37.89 	0.052589 	4925 	0.051994
37.91 	0.062475 	4930 	0.061999
37.93 	0.055499 	4919 	0.054665
37.95 	0.051412 	4921 	0.050936
37.97 	0.057212 	4929 	0.056143
37.99 	0.054764 	4912 	0.053214
38.01 	0.056615 	4928 	0.055545
38.03 	0.056427 	4909 	0.056188
38.05 	0.056041 	4925 	0.054138
38.07 	0.059686 	4909 	0.058612
38.09 	0.054531 	4878 	0.053210
38.11 	0.055117 	4935 	0.054167
38.13 	0.057727 	4937 	0.056659
38.15 	0.050834 	4918 	0.050476
38.17 	0.057404 	4930 	0.056334
38.19 	0.054564 	4930 	0.054089
38.21 	0.059110 	4923 	0.058753
38.23 	0.055286 	4938 	0.053981
38.25 	0.061623 	4917 	0.060789
38.27 	0.052535 	4930 	0.051466
38.29 	0.058895 	4924 	0.057587
38.31 	0.064542 	4927 	0.064067
38.33 	0.064988 	4924 	0.063560
38.35 	0.064326 	4928 	0.063256
38.37 	0.069456 	4924 	0.067295
38.39 	0.067223 	4909 	0.065295
38.41 	0.070892 	4923 	0.069206
38.43 	0.065907 	4916 	0.064239
38.45 	0.062627 	4918 	0.061674
38.47 	0.067455 	4907 	0.066619
38.49 	0.075661 	4877 	0.073739
38.51 	0.080292 	4932 	0.078867
38.53 	0.075472 	4929 	0.073432
38.55 	0.085089 	4936 	0.083190
38.57 	0.077392 	4923 	0.075468
38.59 	0.069862 	4924 	0.068077
38.61 	0.075365 	4936 	0.073347
38.63 	0.074127 	4924 	0.072223
38.65 	0.082351 	4918 	0.080802
38.67 	0.074337 	4937 	0.073031
38.69 	0.084925 	4922 	0.083378
38.71 	0.084687 	4924 	0.082546
38.73 	0.082961 	4918 	0.080916
38.75 	0.077532 	4927 	0.075749
38.77 	0.077392 	4923 	0.075468
38.79 	0.080057 	4934 	0.077920
38.81 	0.072272 	4912 	0.071199
38.83 	0.075015 	4919 	0.073348
38.85 	0.073290 	4912 	0.071978
38.87 	0.064956 	4911 	0.063883
38.89 	0.068205 	4897 	0.066870
38.91 	0.075464 	4903 	0.073791
38.93 	0.065816 	4938 	0.065104
38.95 	0.062424 	4918 	0.061709
38.97 	0.059623 	4931 	0.058791
38.99 	0.056107 	4937 	0.054920
39.01 	0.056527 	4918 	0.055336
39.03 	0.058370 	4934 	0.057658
39.05 	0.060711 	4925 	0.059878
39.07 	0.056255 	4924 	0.055898
39.09 	0.050376 	4923 	0.050019
39.11 	0.048469 	4931 	0.047756
39.13 	0.053829 	4923 	0.052639
39.15 	0.057782 	4915 	0.056690
39.17 	0.056512 	4937 	0.055800
39.19 	0.052268 	4917 	0.051791
39.21 	0.049898 	4910 	0.049182
39.23 	0.055025 	4925 	0.054669
39.25 	0.053230 	4922 	0.052635
39.27 	0.053971 	4910 	0.052898
39.29 	0.048562 	4901 	0.047844
39.31 	0.050164 	4884 	0.049684
39.33 	0.048874 	4931 	0.048162
39.35 	0.049645 	4935 	0.048814
39.37 	0.045851 	4929 	0.045019
39.39 	0.049503 	4929 	0.048909
39.41 	0.045427 	4931 	0.044714
39.43 	0.049868 	4933 	0.049393
39.45 	0.048528 	4925 	0.047695
39.47 	0.046923 	4923 	0.046566
39.49 	0.048652 	4933 	0.047821
39.51 	0.045898 	4924 	0.045422
39.53 	0.044485 	4923 	0.043771
39.55 	0.043911 	4919 	0.042959
39.57 	0.049260 	4933 	0.048666
39.59 	0.043770 	4912 	0.043293
39.61 	0.042657 	4923 	0.042300
39.63 	0.044900 	4922 	0.044543
39.65 	0.039383 	4926 	0.039026
39.67 	0.048036 	4913 	0.047082
39.69 	0.047803 	4916 	0.047446
39.71 	0.047191 	4895 	0.046094
39.73 	0.047677 	4908 	0.046583
39.75 	0.047484 	4928 	0.047008
39.77 	0.045593 	4935 	0.045237
39.79 	0.050751 	4926 	0.050632
39.81 	0.047696 	4927 	0.047221
39.83 	0.044386 	4934 	0.043792
39.85 	0.046885 	4927 	0.046052
39.87 	0.047716 	4925 	0.047002
39.89 	0.037900 	4934 	0.037782
39.91 	0.049573 	4922 	0.049097
39.93 	0.043954 	4937 	0.043578
39.95 	0.046796 	4915 	0.046319
39.97 	0.047078 	4928 	0.046840
39.99 	0.045215 	4932 	0.044859
40.01 	0.043514 	4918 	0.042799
40.03 	0.050122 	4928 	0.049409
40.05 	0.048403 	4917 	0.047689
40.07 	0.045907 	4923 	0.045193
40.09 	0.045362 	4916 	0.044766
40.11 	0.043328 	4916 	0.042713
40.13 	0.048815 	4896 	0.048097
40.15 	0.046815 	4913 	0.045841
40.17 	0.046875 	4928 	0.046400
40.19 	0.047677 	4929 	0.046845
40.21 	0.041540 	4935 	0.041303
40.23 	0.044404 	4932 	0.043810
40.25 	0.043496 	4920 	0.042901
40.27 	0.050030 	4937 	0.049318
40.29 	0.045058 	4927 	0.044701
40.31 	0.044746 	4939 	0.044271
40.33 	0.046837 	4932 	0.046243
40.35 	0.042488 	4919 	0.042012
40.37 	0.041793 	4929 	0.041199
40.39 	0.049888 	4931 	0.049057
40.41 	0.044670 	4925 	0.043837
40.43 	0.045916 	4922 	0.045202
40.45 	0.048449 	4933 	0.047855
40.47 	0.042497 	4918 	0.042021
40.49 	0.044052 	4926 	0.043814
40.51 	0.046119 	4922 	0.045643
40.53 	0.046379 	4916 	0.045783
40.55 	0.047474 	4908 	0.046638
40.57 	0.044990 	4890 	0.044491
40.59 	0.039295 	4937 	0.039058
40.61 	0.043972 	4935 	0.043378
40.63 	0.040162 	4930 	0.040162
40.65 	0.043549 	4937 	0.043074
40.67 	0.039335 	4932 	0.038622
40.69 	0.037270 	4937 	0.036538
40.71 	0.043796 	4932 	0.043321
40.73 	0.042631 	4926 	0.041799
40.75 	0.043805 	4931 	0.042973
40.77 	0.041911 	4939 	0.041556
40.79 	0.046913 	4924 	0.046080
40.81 	0.043513 	4941 	0.042921
40.83 	0.044440 	4928 	0.044083
40.85 	0.036759 	4924 	0.036759
40.87 	0.039976 	4928 	0.039619
40.89 	0.041979 	4931 	0.041742
40.91 	0.041235 	4923 	0.040997
40.93 	0.042562 	4934 	0.042087
40.95 	0.042337 	4913 	0.041621
40.97 	0.036353 	4924 	0.035877
40.99 	0.042445 	4924 	0.041850
41.01 	0.036441 	4912 	0.036441
41.03 	0.041794 	4905 	0.041555
41.05 	0.041126 	4936 	0.040889
41.07 	0.039959 	4930 	0.039484
41.09 	0.046568 	4939 	0.046331
41.11 	0.044377 	4935 	0.043546
41.13 	0.040924 	4936 	0.040330
41.15 	0.043513 	4941 	0.043039
41.17 	0.043170 	4934 	0.042339
41.19 	0.039554 	4930 	0.039316
41.21 	0.041321 	4937 	0.040965
41.23 	0.038469 	4939 	0.037876
41.25 	0.043381 	4933 	0.042531
41.27 	0.043196 	4931 	0.042840
41.29 	0.038149 	4928 	0.037674
41.31 	0.035475 	4933 	0.034763
41.33 	0.040713 	4937 	0.040120
41.35 	0.043945 	4938 	0.043708
41.37 	0.039399 	4924 	0.038447
41.39 	0.038313 	4933 	0.038195
41.41 	0.042022 	4926 	0.041784
41.43 	0.043417 	4929 	0.042822
41.45 	0.036834 	4914 	0.036238
41.47 	0.048315 	4926 	0.047958
41.49 	0.046198 	4892 	0.045839
41.51 	0.047166 	4940 	0.046929
41.53 	0.040858 	4944 	0.040502
41.55 	0.039108 	4935 	0.038634
41.57 	0.041490 	4941 	0.040778
41.59 	0.037503 	4933 	0.037146
41.61 	0.041793 	4953 	0.041202
41.63 	0.042122 	4938 	0.041648
41.65 	0.038142 	4929 	0.038142
41.67 	0.039069 	4940 	0.038832
41.69 	0.041439 	4947 	0.041084
41.71 	0.043170 	4934 	0.042695
41.73 	0.041734 	4936 	0.041378
41.75 	0.040982 	4929 	0.040269
41.77 	0.041287 	4941 	0.040813
41.79 	0.042273 	4944 	0.042155
41.81 	0.035859 	4936 	0.035503
41.83 	0.042817 	4928 	0.042460
41.85 	0.038469 	4939 	0.038114
41.87 	0.045998 	4935 	0.045642
41.89 	0.042976 	4933 	0.042620
41.91 	0.039708 	4936 	0.039471
41.93 	0.038321 	4932 	0.037965
41.95 	0.039546 	4931 	0.039546
41.97 	0.040904 	4914 	0.040308
41.99 	0.036901 	4905 	0.036543
42.01 	0.045528 	4942 	0.044698
42.03 	0.042519 	4939 	0.041807
42.05 	0.040590 	4952 	0.040116
42.07 	0.033624 	4937 	0.033386
42.09 	0.038601 	4948 	0.038010
42.11 	0.037816 	4945 	0.037579
42.13 	0.040445 	4945 	0.039853
42.15 	0.045160 	4938 	0.044448
42.17 	0.036194 	4918 	0.035955
42.19 	0.045436 	4908 	0.044839
42.21 	0.041216 	4901 	0.040738
42.23 	0.039452 	4892 	0.038494
42.25 	0.041317 	4889 	0.040339
42.27 	0.041444 	4874 	0.040603
42.29 	0.038042 	4863 	0.037922
42.31 	0.040577 	4855 	0.040215
42.33 	0.043029 	4834 	0.042301
42.35 	0.042580 	4838 	0.042095
42.37 	0.035818 	4830 	0.035454
42.39 	0.039759 	4804 	0.039271
42.41 	0.043089 	4804 	0.042601
42.43 	0.046536 	4792 	0.046169
42.45 	0.038526 	4776 	0.038158
42.47 	0.036726 	4765 	0.036234
42.49 	0.032949 	4765 	0.032826
42.51 	0.039848 	4743 	0.039354
42.53 	0.041667 	4728 	0.041047
42.55 	0.035472 	4708 	0.035098
42.57 	0.036575 	4730 	0.036451
42.59 	0.042715 	4729 	0.042220
42.61 	0.036746 	4708 	0.035999
42.63 	0.041198 	4709 	0.040949
42.65 	0.042476 	4685 	0.041851
42.67 	0.039923 	4684 	0.039548
42.69 	0.040650 	4674 	0.040024
42.71 	0.037744 	4663 	0.037744
42.73 	0.039871 	4640 	0.039618
42.75 	0.041369 	4617 	0.040861
42.77 	0.043696 	4600 	0.043441
42.79 	0.041903 	4582 	0.040987
42.81 	0.040991 	4562 	0.040477
42.83 	0.039021 	4536 	0.038246
42.85 	0.042624 	4528 	0.042106
42.87 	0.044677 	4499 	0.044026
42.89 	0.042188 	4480 	0.041403
42.91 	0.042190 	4456 	0.041796
42.93 	0.036662 	4446 	0.036267
42.95 	0.036685 	4416 	0.036154
42.97 	0.037719 	4401 	0.037452
42.99 	0.039681 	4385 	0.039280
43.01 	0.041027 	4363 	0.040893
43.03 	0.040849 	4333 	0.040173
43.05 	0.039769 	4325 	0.039633
43.07 	0.039339 	4296 	0.039066
43.09 	0.035489 	4283 	0.035216
43.11 	0.036898 	4255 	0.036485
43.13 	0.039887 	4237 	0.039610
43.15 	0.035188 	4206 	0.034909
43.17 	0.033979 	4179 	0.033839
43.19 	0.040534 	4194 	0.039836
43.21 	0.040748 	4172 	0.040748
43.23 	0.045258 	4154 	0.044694
43.25 	0.042080 	4135 	0.041513
43.27 	0.046529 	4105 	0.045672
43.29 	0.038537 	4100 	0.037965
43.31 	0.041677 	4079 	0.041102
43.33 	0.039743 	4051 	0.038876
43.35 	0.035714 	4032 	0.035278
43.37 	0.040349 	4015 	0.039619
43.39 	0.038481 	4002 	0.038042
43.41 	0.037513 	3972 	0.036923
43.43 	0.043182 	3960 	0.042738
43.45 	0.039136 	3935 	0.038689
43.47 	0.039786 	3921 	0.039188
43.49 	0.038491 	3897 	0.038191
43.51 	0.042817 	3877 	0.042666
43.53 	0.040383 	3863 	0.040080
43.55 	0.040823 	2964 	0.040823
43.57 	0.037980 	2238 	0.037457
43.59 	0.046392 	1746 	0.045385
43.61 	0.050333 	1351 	0.049466
43.63 	0.037962 	1001 	0.037962
43.65 	0.027656 	687 	0.027656
43.67 	0.037849 	502 	0.037849
43.69 	0.040872 	367 	0.039276
43.71 	0.054393 	239 	0.054393
43.73 	0.058333 	120 	0.058333
43.75 	0.000000 	16 	0.000000