File: Example_Data/25SC_s1_0024.001.dat
#F C:\frames\spec\25SC_s1_0024.001
#C title =s:24 frm:1 25SC_s1
#C wavelength =0.15406

#S 1  fr_average C:\frames\spec\25SC_s1_0024.001 C:\win32app\speccom\mask.axs chi 0 180 0 360 0.02
#C 2 theta =0.000000 to 180 deg
#C   q   =0.000000 to 81.568 nm^-1
#C  chi  =0.000000 to 360 deg
#C collumns:
#C  1 position (2theta or chi in degrees)
#C  2 average intensity (sum of all counts in the region divided with number of pixels)
#C  3 Number of pixels in region)
#C  4 error (sum of sqrt(intensity) for all pixels divided by number)
#N 4
#L TTh  Int  N_pix  Err
32.99 	0.065574 	61 	0.065574
33.01 	0.065292 	873 	0.064621
33.03 	0.058231 	1391 	0.056968
33.05 	0.060899 	1757 	0.059844
33.07 	0.068780 	2050 	0.067352
33.09 	0.063485 	2347 	0.061947
33.11 	0.055836 	2579 	0.054927
33.13 	0.064447 	2793 	0.063188
33.15 	0.059687 	2999 	0.058710
33.17 	0.057170 	3201 	0.056255
33.19 	0.057451 	3342 	0.056574
33.21 	0.061118 	3436 	0.060947
33.23 	0.060460 	3523 	0.058936
33.25 	0.051218 	3612 	0.050407
33.27 	0.058402 	3630 	0.057757
33.29 	0.057840 	3648 	0.056234
33.31 	0.059836 	3660 	0.058876
33.33 	0.061042 	3686 	0.059929
33.35 	0.056578 	3694 	0.055944
33.37 	0.060582 	3714 	0.058821
33.39 	0.062215 	3729 	0.060958
33.41 	0.059626 	3740 	0.058686
33.43 	0.060356 	3761 	0.059110
33.45 	0.065730 	3773 	0.064022
33.47 	0.055556 	3798 	0.054939
33.49 	0.060646 	3809 	0.059877
33.51 	0.059764 	3815 	0.059303
33.53 	0.056235 	3841 	0.055320
33.55 	0.067655 	3843 	0.066284
33.57 	0.054166 	3877 	0.052957
33.59 	0.062371 	3880 	0.060408
33.61 	0.060885 	3909 	0.059836
33.63 	0.061240 	3919 	0.059895
33.65 	0.059781 	3931 	0.058887
33.67 	0.069550 	3954 	0.068513
33.69 	0.059701 	3953 	0.057923
33.71 	0.057862 	3975 	0.056683
33.73 	0.057942 	4004 	0.056918
33.75 	0.052013 	3999 	0.051720
33.77 	0.052671 	4025 	0.052089
33.79 	0.057906 	4041 	0.057327
33.81 	0.061664 	4038 	0.060504
33.83 	0.060988 	4050 	0.060241
33.85 	0.055379 	4099 	0.054093
33.87 	0.050596 	4111 	0.050026
33.89 	0.057025 	4121 	0.056172
33.91 	0.063630 	4149 	0.062336
33.93 	0.057336 	4151 	0.056066
33.95 	0.052141 	4181 	0.050880
33.97 	0.052506 	4190 	0.051388
33.99 	0.050238 	4200 	0.049541
34.01 	0.055780 	4213 	0.054945
34.03 	0.058671 	4244 	0.056601
34.05 	0.055974 	4252 	0.054849
34.07 	0.051312 	4268 	0.050626
34.09 	0.062529 	4286 	0.061572
34.11 	0.058577 	4302 	0.057330
34.13 	0.056639 	4308 	0.055959
34.15 	0.060494 	4331 	0.059006
34.17 	0.059080 	4350 	0.058407
34.19 	0.055021 	4362 	0.054081
34.21 	0.059025 	4371 	0.058087
34.23 	0.055543 	4393 	0.054876
34.25 	0.061308 	4404 	0.059712
34.27 	0.057892 	4422 	0.057230
34.29 	0.049380 	4435 	0.048455
34.31 	0.065052 	4458 	0.063606
34.33 	0.055692 	4471 	0.054906
34.35 	0.062667 	4484 	0.061622
34.37 	0.054776 	4491 	0.054124
34.39 	0.055753 	4502 	0.055233
34.41 	0.053469 	4526 	0.052951
34.43 	0.059925 	4539 	0.059151
34.45 	0.055347 	4535 	0.054185
34.47 	0.051611 	4592 	0.051101
34.49 	0.056994 	4597 	0.055592
34.51 	0.053409 	4606 	0.052391
34.53 	0.058583 	4643 	0.057447
34.55 	0.054921 	4643 	0.054038
34.57 	0.055150 	4660 	0.054019
34.59 	0.056257 	4675 	0.054753
34.61 	0.059613 	4697 	0.058740
34.63 	0.059873 	4710 	0.059002
34.65 	0.059309 	4721 	0.058193
34.67 	0.051044 	4741 	0.049932
34.69 	0.057005 	4754 	0.055772
34.71 	0.053504 	4766 	0.052521
34.73 	0.053687 	4787 	0.052830
34.75 	0.058028 	4808 	0.057297
34.77 	0.057700 	4818 	0.056849
34.79 	0.050166 	4824 	0.049559
34.81 	0.056553 	4845 	0.055707
34.83 	0.055533 	4862 	0.054689
34.85 	0.057096 	4869 	0.055873
34.87 	0.055259 	4868 	0.054657
34.89 	0.053257 	4882 	0.052777
34.91 	0.060631 	4882 	0.059791
34.93 	0.050010 	4899 	0.049293
34.95 	0.057669 	4890 	0.057190
34.97 	0.055896 	4902 	0.054820
34.99 	0.060241 	4897 	0.059284
35.01 	0.060938 	4923 	0.059868
35.03 	0.058062 	4943 	0.056976
35.05 	0.059228 	4947 	0.057807
35.07 	0.053644 	4940 	0.052320
35.09 	0.060973 	4953 	0.060145
35.11 	0.058217 	4947 	0.056915
35.13 	0.057483 	4958 	0.055474
35.15 	0.061778 	4937 	0.060829
35.17 	0.060655 	4946 	0.059589
35.19 	0.056253 	4942 	0.055541
35.21 	0.056421 	4945 	0.055947
35.23 	0.052578 	4945 	0.052105
35.25 	0.061299 	4943 	0.059995
35.27 	0.056993 	4948 	0.056046
35.29 	0.061476 	4945 	0.060529
35.31 	0.053517 	4933 	0.053042
35.33 	0.059276 	4943 	0.058091
35.35 	0.064549 	4942 	0.063482
35.37 	0.061956 	4939 	0.060276
35.39 	0.059050 	4945 	0.057628
35.41 	0.052375 	4926 	0.051899
35.43 	0.064869 	4933 	0.064276
35.45 	0.058132 	4937 	0.057183
35.47 	0.052525 	4931 	0.051693
35.49 	0.055193 	4910 	0.054239
35.51 	0.065367 	4926 	0.064397
35.53 	0.055163 	4949 	0.053861
35.55 	0.053994 	4945 	0.052809
35.57 	0.059801 	4933 	0.058851
35.59 	0.060465 	4945 	0.060110
35.61 	0.057669 	4942 	0.057076
35.63 	0.059883 	4943 	0.059172
35.65 	0.056218 	4945 	0.055389
35.67 	0.052813 	4942 	0.051864
35.69 	0.048726 	4946 	0.047660
35.71 	0.058335 	4937 	0.057504
35.73 	0.055916 	4936 	0.055560
35.75 	0.056581 	4931 	0.056224
35.77 	0.060796 	4951 	0.059849
35.79 	0.056975 	4932 	0.055668
35.81 	0.054936 	4933 	0.053986
35.83 	0.057218 	4946 	0.056626
35.85 	0.057345 	4935 	0.056158
35.87 	0.056673 	4923 	0.055840
35.89 	0.063032 	4934 	0.061726
35.91 	0.056424 	4927 	0.055473
35.93 	0.059062 	4927 	0.057754
35.95 	0.055522 	4917 	0.054807
35.97 	0.058225 	4912 	0.057271
35.99 	0.054060 	4939 	0.053467
36.01 	0.056187 	4930 	0.054998
36.03 	0.061906 	4943 	0.061076
36.05 	0.057432 	4945 	0.056484
36.07 	0.058716 	4939 	0.057768
36.09 	0.056883 	4940 	0.056152
36.11 	0.057821 	4929 	0.056276
36.13 	0.065358 	4942 	0.063580
36.15 	0.056692 	4939 	0.055980
36.17 	0.060305 	4925 	0.059710
36.19 	0.050000 	4940 	0.049289
36.21 	0.060053 	4929 	0.058864
36.23 	0.052280 	4935 	0.051211
36.25 	0.056871 	4941 	0.056278
36.27 	0.061117 	4925 	0.060027
36.29 	0.059826 	4931 	0.058281
36.31 	0.047484 	4928 	0.046771
36.33 	0.060207 	4933 	0.059237
36.35 	0.059444 	4929 	0.057899
36.37 	0.057079 	4923 	0.056484
36.39 	0.056493 	4921 	0.056016
36.41 	0.056985 	4896 	0.055908
36.43 	0.059456 	4928 	0.058505
36.45 	0.052941 	4930 	0.051872
36.47 	0.060373 	4936 	0.058830
36.49 	0.063335 	4942 	0.062031
36.51 	0.057571 	4933 	0.056740
36.53 	0.057860 	4943 	0.057267
36.55 	0.053988 	4927 	0.053394
36.57 	0.058979 	4934 	0.057673
36.59 	0.058109 	4939 	0.057635
36.61 	0.057798 	4931 	0.056471
36.63 	0.057798 	4931 	0.057085
36.65 	0.056164 	4932 	0.054481
36.67 	0.056795 	4930 	0.055607
36.69 	0.053358 	4929 	0.052882
36.71 	0.058525 	4921 	0.058168
36.73 	0.054213 	4925 	0.053618
36.75 	0.057646 	4944 	0.056224
36.77 	0.058548 	4919 	0.057953
36.79 	0.055883 	4921 	0.055169
36.81 	0.055126 	4916 	0.054649
36.83 	0.059003 	4915 	0.058407
36.85 	0.053083 	4898 	0.052126
36.87 	0.057241 	4944 	0.055227
36.89 	0.057364 	4916 	0.056291
36.91 	0.058288 	4941 	0.057339
36.93 	0.056389 	4930 	0.055439
36.95 	0.056761 	4933 	0.055791
36.97 	0.051682 	4934 	0.051326
36.99 	0.058156 	4935 	0.057187
37.01 	0.055342 	4933 	0.053917
37.03 	0.058286 	4924 	0.057334
37.05 	0.055815 	4927 	0.054626
37.07 	0.056535 	4935 	0.055941
37.09 	0.053571 	4928 	0.052977
37.11 	0.056332 	4935 	0.055363
37.13 	0.053006 	4924 	0.052292
37.15 	0.065390 	4909 	0.064316
37.17 	0.057560 	4934 	0.056610
37.19 	0.055228 	4925 	0.054019
37.21 	0.056742 	4917 	0.056027
37.23 	0.061204 	4918 	0.059655
37.25 	0.055793 	4911 	0.054958
37.27 	0.055783 	4894 	0.054825
37.29 	0.056592 	4930 	0.055642
37.31 	0.060588 	4935 	0.059994
37.33 	0.054597 	4927 	0.054003
37.35 	0.055083 	4938 	0.054490
37.37 	0.056018 	4927 	0.055305
37.39 	0.054756 	4931 	0.053686
37.41 	0.062868 	4931 	0.062274
37.43 	0.054339 	4932 	0.053745
37.45 	0.057067 	4924 	0.055997
37.47 	0.055184 	4929 	0.054589
37.49 	0.062360 	4923 	0.060913
37.51 	0.057774 	4933 	0.056468
37.53 	0.052043 	4919 	0.051190
37.55 	0.058824 	4930 	0.058348
37.57 	0.051574 	4925 	0.050860
37.59 	0.054730 	4915 	0.053539
37.61 	0.056075 	4922 	0.054528
37.63 	0.056312 	4919 	0.055360
37.65 	0.057544 	4918 	0.057067
37.67 	0.055465 	4904 	0.054509
37.69 	0.057370 	4898 	0.056892
37.71 	0.058835 	4929 	0.057528
37.73 	0.049909 	4929 	0.048839
37.75 	0.050202 	4940 	0.049728
37.77 	0.052846 	4920 	0.052131
37.79 	0.052333 	4930 	0.051976
37.81 	0.055342 	4933 	0.053660
37.83 	0.061179 	4920 	0.060703
37.85 	0.054449 	4922 	0.053854
37.87 	0.052237 	4939 	0.051763
37.89 	0.055431 	4925 	0.055075
37.91 	0.056592 	4930 	0.055523
37.93 	0.056109 	4919 	0.055156
37.95 	0.059541 	4921 	0.057993
37.97 	0.058430 	4929 	0.057717
37.99 	0.055985 	4912 	0.054654
38.01 	0.057021 	4928 	0.055832
38.03 	0.057038 	4909 	0.055606
38.05 	0.052589 	4925 	0.051994
38.07 	0.050316 	4909 	0.049480
38.09 	0.053506 	4878 	0.052785
38.11 	0.053698 	4935 	0.053105
38.13 	0.055904 	4937 	0.055311
38.15 	0.059170 	4918 	0.057741
38.17 	0.051724 	4930 	0.050892
38.19 	0.056187 	4930 	0.055474
38.21 	0.058095 	4923 	0.057024
38.23 	0.054070 	4938 	0.053121
38.25 	0.059996 	4917 	0.058566
38.27 	0.061663 	4930 	0.060594
38.29 	0.058692 	4924 	0.057463
38.31 	0.063730 	4927 	0.062304
38.33 	0.069050 	4924 	0.067245
38.35 	0.060877 	4928 	0.060163
38.37 	0.068237 	4924 	0.066572
38.39 	0.066816 	4909 	0.065861
38.41 	0.066423 	4923 	0.065233
38.43 	0.070382 	4916 	0.068953
38.45 	0.077064 	4918 	0.074742
38.47 	0.075810 	4907 	0.074000
38.49 	0.062128 	4877 	0.061388
38.51 	0.074412 	4932 	0.072749
38.53 	0.076283 	4929 	0.074382
38.55 	0.076175 	4936 	0.074988
38.57 	0.065001 	4923 	0.064168
38.59 	0.068440 	4924 	0.067370
38.61 	0.074554 	4936 	0.072299
38.63 	0.078392 	4924 	0.076012
38.65 	0.064457 	4918 	0.063504
38.67 	0.073121 	4937 	0.071342
38.69 	0.074970 	4922 	0.073779
38.71 	0.072299 	4924 	0.070852
38.73 	0.067710 	4918 	0.066877
38.75 	0.062310 	4927 	0.061477
38.77 	0.066626 	4923 	0.065317
38.79 	0.057357 	4934 	0.056763
38.81 	0.064536 	4912 	0.063324
38.83 	0.062614 	4919 	0.061404
38.85 	0.055782 	4912 	0.054570
38.87 	0.058033 	4911 	0.057317
38.89 	0.061058 	4897 	0.060460
38.91 	0.053029 	4903 	0.052192
38.93 	0.053463 	4938 	0.052633
38.95 	0.047784 	4918 	0.047426
38.97 	0.055567 	4931 	0.054498
38.99 	0.054689 	4937 	0.054096
39.01 	0.052867 	4918 	0.052152
39.03 	0.053912 	4934 	0.053199
39.05 	0.050558 	4925 	0.049607
39.07 	0.052600 	4924 	0.051648
39.09 	0.046110 	4923 	0.045872
39.11 	0.051714 	4931 	0.051100
39.13 	0.048954 	4923 	0.047883
39.15 	0.046389 	4915 	0.045912
39.17 	0.047802 	4937 	0.047090
39.19 	0.046980 	4917 	0.046384
39.21 	0.047862 	4910 	0.046668
39.23 	0.047310 	4925 	0.046953
39.25 	0.045510 	4922 	0.044558
39.27 	0.044807 	4910 	0.044091
39.29 	0.047133 	4901 	0.045799
39.31 	0.047502 	4884 	0.047142
39.33 	0.044210 	4931 	0.043497
39.35 	0.047822 	4935 	0.047109
39.37 	0.042199 	4929 	0.041724
39.39 	0.048286 	4929 	0.047929
39.41 	0.041168 	4931 	0.040693
39.43 	0.053112 	4933 	0.052162
39.45 	0.046701 	4925 	0.045868
39.47 	0.045704 	4923 	0.045228
39.49 	0.047638 	4933 	0.046807
39.51 	0.044070 	4924 	0.043475
39.53 	0.044282 	4923 	0.043449
39.55 	0.043505 	4919 	0.042671
39.57 	0.043989 	4933 	0.043514
39.59 	0.046213 	4912 	0.045736
39.61 	0.041235 	4923 	0.040759
39.63 	0.041243 	4922 	0.040886
39.65 	0.046082 	4926 	0.045487
39.67 	0.043354 	4913 	0.042877
39.69 	0.042107 	4916 	0.041512
39.71 	0.045965 	4895 	0.045606
39.73 	0.041157 	4908 	0.040561
39.75 	0.046063 	4928 	0.045707
39.77 	0.042148 	4935 	0.041673
39.79 	0.046285 	4926 	0.046166
39.81 	0.047493 	4927 	0.046899
39.83 	0.046818 	4934 	0.046106
39.85 	0.046276 	4927 	0.045800
39.87 	0.046904 	4925 	0.046190
39.89 	0.049655 	4934 	0.049062
39.91 	0.038805 	4922 	0.038310
39.93 	0.044967 	4937 	0.044729
39.95 	0.046185 	4915 	0.045947
39.97 	0.042817 	4928 	0.042103
39.99 	0.045215 	4932 	0.044621
40.01 	0.041480 	4918 	0.040984
40.03 	0.046469 	4928 	0.045994
40.05 	0.043726 	4917 	0.042654
40.07 	0.039407 	4923 	0.039288
40.09 	0.044345 	4916 	0.043511
40.11 	0.048007 	4916 	0.047649
40.13 	0.044118 	4896 	0.043141
40.15 	0.041319 	4913 	0.040723
40.17 	0.041599 	4928 	0.041361
40.19 	0.040779 	4929 	0.040304
40.21 	0.044782 	4935 	0.043813
40.23 	0.035483 	4932 	0.034295
40.25 	0.049797 	4920 	0.049082
40.27 	0.047397 	4937 	0.046923
40.29 	0.049523 	4927 	0.048196
40.31 	0.040089 	4939 	0.039259
40.33 	0.044809 	4932 	0.044216
40.35 	0.037813 	4919 	0.037336
40.37 	0.041185 	4929 	0.040591
40.39 	0.041777 	4931 	0.040925
40.41 	0.042437 	4925 	0.042199
40.43 	0.043478 	4922 	0.043121
40.45 	0.044800 	4933 	0.044563
40.47 	0.043514 	4918 	0.042918
40.49 	0.044052 	4926 	0.043695
40.51 	0.048354 	4922 	0.047502
40.53 	0.041904 	4916 	0.041408
40.55 	0.044214 	4908 	0.043497
40.57 	0.040491 	4890 	0.040251
40.59 	0.040713 	4937 	0.040120
40.61 	0.039716 	4935 	0.039123
40.63 	0.038945 	4930 	0.038708
40.65 	0.041523 	4937 	0.041286
40.67 	0.042376 	4932 	0.042139
40.69 	0.038080 	4937 	0.037368
40.71 	0.038727 	4932 	0.038370
40.73 	0.043037 	4926 	0.042442
40.75 	0.040763 	4931 	0.040169
40.77 	0.045961 	4939 	0.045368
40.79 	0.045898 	4924 	0.045065
40.81 	0.044728 	4941 	0.044016
40.83 	0.037946 	4928 	0.037233
40.85 	0.040617 	4924 	0.040498
40.87 	0.035917 	4928 	0.035679
40.89 	0.045832 	4931 	0.045239
40.91 	0.042048 	4923 	0.041691
40.93 	0.046413 	4934 	0.045819
40.95 	0.041726 	4913 	0.040772
40.97 	0.046507 	4924 	0.046150
40.99 	0.044476 	4924 	0.043881
41.01 	0.040513 	4912 	0.040155
41.03 	0.040367 	4905 	0.040009
41.05 	0.042950 	4936 	0.042238
41.07 	0.044625 	4930 	0.044149
41.09 	0.036040 	4939 	0.035684
41.11 	0.043769 	4935 	0.043294
41.13 	0.037885 	4936 	0.037766
41.15 	0.043513 	4941 	0.043395
41.17 	0.040940 	4934 	0.040090
41.19 	0.046450 	4930 	0.045856
41.21 	0.037675 	4937 	0.037062
41.23 	0.044746 	4939 	0.044509
41.25 	0.039124 	4933 	0.038531
41.27 	0.042182 	4931 	0.041469
41.29 	0.041396 	4928 	0.041158
41.31 	0.038111 	4933 	0.037636
41.33 	0.042131 	4937 	0.041281
41.35 	0.037262 	4938 	0.036550
41.37 	0.039602 	4924 	0.039364
41.39 	0.037503 	4933 	0.037384
41.41 	0.041007 	4926 	0.040769
41.43 	0.039968 	4929 	0.039730
41.45 	0.037648 	4914 	0.037171
41.47 	0.047300 	4926 	0.046824
41.49 	0.038430 	4892 	0.037831
41.51 	0.044534 	4940 	0.043586
41.53 	0.042476 	4944 	0.041646
41.55 	0.040122 	4935 	0.040003
41.57 	0.040680 	4941 	0.040206
41.59 	0.039732 	4933 	0.039139
41.61 	0.038764 	4953 	0.038055
41.63 	0.035642 	4938 	0.035523
41.65 	0.039359 	4929 	0.039240
41.67 	0.039879 	4940 	0.039760
41.69 	0.035779 	4947 	0.035424
41.71 	0.043778 	4934 	0.043659
41.73 	0.038290 	4936 	0.038053
41.75 	0.036721 	4929 	0.036246
41.77 	0.037442 	4941 	0.036968
41.79 	0.039239 	4944 	0.038766
41.81 	0.040721 	4936 	0.040128
41.83 	0.037338 	4928 	0.036506
41.85 	0.039279 	4939 	0.039042
41.87 	0.044580 	4935 	0.043630
41.89 	0.042368 	4933 	0.042130
41.91 	0.038088 	4936 	0.038088
41.93 	0.036496 	4932 	0.035665
41.95 	0.042791 	4931 	0.042078
41.97 	0.040090 	4914 	0.039613
41.99 	0.043017 	4905 	0.042301
42.01 	0.038446 	4942 	0.037735
42.03 	0.036647 	4939 	0.036528
42.05 	0.041599 	4952 	0.040771
42.07 	0.034839 	4937 	0.034602
42.09 	0.039208 	4948 	0.038497
42.11 	0.041052 	4945 	0.040815
42.13 	0.039838 	4945 	0.038891
42.15 	0.036047 	4938 	0.035691
42.17 	0.040260 	4918 	0.040022
42.19 	0.038916 	4908 	0.038319
42.21 	0.043052 	4901 	0.042335
42.23 	0.041496 	4892 	0.041017
42.25 	0.040908 	4889 	0.040549
42.27 	0.046368 	4874 	0.045647
42.29 	0.036603 	4863 	0.036242
42.31 	0.036251 	4855 	0.036131
42.33 	0.039926 	4834 	0.039300
42.35 	0.039479 	4838 	0.039116
42.37 	0.033126 	4830 	0.032762
42.39 	0.038718 	4804 	0.038108
42.41 	0.035387 	4804 	0.035265
42.43 	0.033389 	4792 	0.032778
42.45 	0.033920 	4776 	0.033674
42.47 	0.035677 	4765 	0.035554
42.49 	0.034837 	4765 	0.034325
42.51 	0.037318 	4743 	0.037195
42.53 	0.035533 	4728 	0.035533
42.55 	0.037171 	4708 	0.036798
42.57 	0.040169 	4730 	0.039550
42.59 	0.037217 	4729 	0.037093
42.61 	0.042481 	4708 	0.042108
42.63 	0.043746 	4709 	0.043248
42.65 	0.041836 	4685 	0.041586
42.67 	0.040564 	4684 	0.040063
42.69 	0.037227 	4674 	0.036977
42.71 	0.040317 	4663 	0.040066
42.73 	0.034052 	4640 	0.033799
42.75 	0.034871 	4617 	0.034744
42.77 	0.035435 	4600 	0.035180
42.79 	0.043867 	4582 	0.043484
42.81 	0.039895 	4562 	0.039638
42.83 	0.042108 	4536 	0.041074
42.85 	0.032906 	4528 	0.032389
42.87 	0.040453 	4499 	0.040193
42.89 	0.037277 	4480 	0.037015
42.91 	0.038151 	4456 	0.037888
42.93 	0.043635 	4446 	0.043108
42.95 	0.035779 	4416 	0.035381
42.97 	0.038173 	4401 	0.037241
42.99 	0.036032 	4385 	0.035765
43.01 	0.042402 	4363 	0.041865
43.03 	0.039003 	4333 	0.038597
43.05 	0.034913 	4325 	0.034778
43.07 	0.040037 	4296 	0.039355
43.09 	0.037590 	4283 	0.036770
43.11 	0.039953 	4255 	0.039540
43.13 	0.039651 	4237 	0.038821
43.15 	0.036377 	4206 	0.035518
43.17 	0.040440 	4179 	0.039739
43.19 	0.040296 	4194 	0.040296
43.21 	0.031879 	4172 	0.031739
43.23 	0.037073 	4154 	0.036509
43.25 	0.033374 	4135 	0.032925
43.27 	0.040438 	4105 	0.039868
43.29 	0.041220 	4100 	0.040791
43.31 	0.038000 	4079 	0.037712
43.33 	0.044187 	4051 	0.044042
43.35 	0.041419 	4032 	0.041128
43.37 	0.039601 	4015 	0.039456
43.39 	0.039730 	4002 	0.039145
43.41 	0.035498 	3972 	0.034761
43.43 	0.038889 	3960 	0.038297
43.45 	0.036595 	3935 	0.035999
43.47 	0.036725 	3921 	0.036128
43.49 	0.040031 	3897 	0.039580
43.51 	0.038948 	3877 	0.038948
43.53 	0.038053 	3863 	0.037750
43.55 	0.033063 	2964 	0.032866
43.57 	0.035746 	2238 	0.035746
43.59 	0.035510 	1746 	0.034503
43.61 	0.039230 	1351 	0.038797
43.63 	0.040959 	1001 	0.040959
43.65 	0.042213 	687 	0.042213
43.67 	0.049801 	502 	0.049801
43.69 	0.043597 	367 	0.043597
43.71 	0.041841 	239 	0.041841
43.73 	0.041667 	120 	0.041667
43.75 	0.000000 	16 	0.000000