File: Example_Data/25SC_s1_0047.000.dat
#F C:\frames\spec\25SC_s1_0047.000
#C title =s:47 frm:0 25SC_s1
#C wavelength =0.15406

#S 1  fr_average C:\frames\spec\25SC_s1_0047.000 C:\win32app\speccom\mask.axs chi 0 180 0 360 0.02
#C 2 theta =0.000000 to 180 deg
#C   q   =0.000000 to 81.568 nm^-1
#C  chi  =0.000000 to 360 deg
#C collumns:
#C  1 position (2theta or chi in degrees)
#C  2 average intensity (sum of all counts in the region divided with number of pixels)
#C  3 Number of pixels in region)
#C  4 error (sum of sqrt(intensity) for all pixels divided by number)
#N 4
#L TTh  Int  N_pix  Err
32.99 	0.065574 	61 	0.065574
33.01 	0.069874 	873 	0.069874
33.03 	0.070453 	1391 	0.068699
33.05 	0.058054 	1757 	0.056720
33.07 	0.057561 	2050 	0.056989
33.09 	0.060503 	2347 	0.060004
33.11 	0.063978 	2579 	0.062388
33.13 	0.064089 	2793 	0.063040
33.15 	0.054685 	2999 	0.053481
33.17 	0.054983 	3201 	0.054983
33.19 	0.064931 	3342 	0.063529
33.21 	0.064028 	3436 	0.063176
33.23 	0.061595 	3523 	0.059932
33.25 	0.055371 	3612 	0.054398
33.27 	0.065565 	3630 	0.064112
33.29 	0.067708 	3648 	0.066424
33.31 	0.063934 	3660 	0.063134
33.33 	0.060499 	3686 	0.059546
33.35 	0.063887 	3694 	0.062619
33.37 	0.057351 	3714 	0.055931
33.39 	0.056047 	3729 	0.054476
33.41 	0.061765 	3740 	0.061451
33.43 	0.061952 	3761 	0.060524
33.45 	0.067055 	3773 	0.065633
33.47 	0.064771 	3798 	0.063537
33.49 	0.053032 	3809 	0.051802
33.51 	0.050852 	3815 	0.050238
33.53 	0.065348 	3841 	0.063645
33.55 	0.056987 	3843 	0.056072
33.57 	0.067062 	3877 	0.065853
33.59 	0.061340 	3880 	0.060283
33.61 	0.064722 	3909 	0.063524
33.63 	0.060985 	3919 	0.060088
33.65 	0.057237 	3931 	0.056194
33.67 	0.054122 	3954 	0.052937
33.69 	0.056666 	3953 	0.055629
33.71 	0.061132 	3975 	0.059511
33.73 	0.056194 	4004 	0.055316
33.75 	0.064766 	3999 	0.063570
33.77 	0.064845 	4025 	0.064408
33.79 	0.050235 	4041 	0.049510
33.81 	0.063150 	4038 	0.062135
33.83 	0.053827 	4050 	0.053249
33.85 	0.062454 	4099 	0.061430
33.87 	0.057893 	4111 	0.056896
33.89 	0.062849 	4121 	0.061712
33.91 	0.057604 	4149 	0.056898
33.93 	0.061190 	4151 	0.059920
33.95 	0.059794 	4181 	0.058931
33.97 	0.056086 	4190 	0.055527
33.99 	0.064524 	4200 	0.063246
34.01 	0.053169 	4213 	0.052335
34.03 	0.050895 	4244 	0.050067
34.05 	0.057855 	4252 	0.057166
34.07 	0.059278 	4268 	0.058021
34.09 	0.058796 	4286 	0.058386
34.11 	0.054393 	4302 	0.053168
34.13 	0.059889 	4308 	0.058393
34.15 	0.061418 	4331 	0.060449
34.17 	0.055862 	4350 	0.055593
34.19 	0.052499 	4362 	0.051962
34.21 	0.061084 	4371 	0.059878
34.23 	0.061689 	4393 	0.060889
34.25 	0.059718 	4404 	0.058920
34.27 	0.062189 	4422 	0.061129
34.29 	0.053664 	4435 	0.053136
34.31 	0.061014 	4458 	0.060357
34.33 	0.061507 	4471 	0.060852
34.35 	0.057315 	4484 	0.056531
34.37 	0.056780 	4491 	0.056258
34.39 	0.055753 	4502 	0.054842
34.41 	0.059655 	4526 	0.059138
34.43 	0.055299 	4539 	0.054395
34.45 	0.051378 	4535 	0.050474
34.47 	0.063371 	4592 	0.062861
34.49 	0.058951 	4597 	0.057677
34.51 	0.054711 	4606 	0.053948
34.53 	0.054706 	4643 	0.053444
34.55 	0.053844 	4643 	0.052961
34.57 	0.057940 	4660 	0.056788
34.59 	0.060535 	4675 	0.059658
34.61 	0.057696 	4697 	0.056803
34.63 	0.050106 	4710 	0.049857
34.65 	0.050201 	4721 	0.049705
34.67 	0.059059 	4741 	0.057947
34.69 	0.062263 	4754 	0.061134
34.71 	0.057281 	4766 	0.056543
34.73 	0.060790 	4787 	0.059546
34.75 	0.059484 	4808 	0.058611
34.77 	0.057908 	4818 	0.056935
34.79 	0.061982 	4824 	0.060646
34.81 	0.061920 	4845 	0.061194
34.83 	0.054093 	4862 	0.053611
34.85 	0.065106 	4869 	0.063181
34.87 	0.057724 	4868 	0.056882
34.89 	0.055100 	4882 	0.054140
34.91 	0.056944 	4882 	0.056104
34.93 	0.057359 	4899 	0.056522
34.95 	0.056851 	4890 	0.055174
34.97 	0.063851 	4902 	0.062417
34.99 	0.057586 	4897 	0.057108
35.01 	0.057485 	4923 	0.056771
35.03 	0.057657 	4943 	0.056709
35.05 	0.058824 	4947 	0.057876
35.07 	0.062348 	4940 	0.061162
35.09 	0.056329 	4953 	0.055620
35.11 	0.059026 	4947 	0.058434
35.13 	0.053449 	4958 	0.052267
35.15 	0.057120 	4937 	0.055933
35.17 	0.060857 	4946 	0.059673
35.19 	0.057467 	4942 	0.056755
35.21 	0.064105 	4945 	0.063039
35.23 	0.055410 	4945 	0.054580
35.25 	0.057860 	4943 	0.057149
35.27 	0.061641 	4948 	0.060694
35.29 	0.051567 	4945 	0.051212
35.31 	0.058788 	4933 	0.057838
35.33 	0.062310 	4943 	0.060632
35.35 	0.056860 	4942 	0.055911
35.37 	0.060336 	4939 	0.059387
35.39 	0.060465 	4945 	0.059636
35.41 	0.055217 	4926 	0.054623
35.43 	0.057774 	4933 	0.057299
35.45 	0.054081 	4937 	0.053014
35.47 	0.054147 	4931 	0.053316
35.49 	0.061711 	4910 	0.060637
35.51 	0.056029 	4926 	0.055435
35.53 	0.051323 	4949 	0.050732
35.55 	0.053185 	4945 	0.052593
35.57 	0.057571 	4933 	0.056621
35.59 	0.057432 	4945 	0.056484
35.61 	0.052813 	4942 	0.052220
35.63 	0.054825 	4943 	0.054232
35.65 	0.056623 	4945 	0.055063
35.67 	0.057264 	4942 	0.056197
35.69 	0.055398 	4946 	0.054214
35.71 	0.058943 	4937 	0.057756
35.73 	0.058347 	4936 	0.057991
35.75 	0.062462 	4931 	0.061393
35.77 	0.060392 	4951 	0.059209
35.79 	0.050284 	4932 	0.049452
35.81 	0.057977 	4933 	0.057146
35.83 	0.059644 	4946 	0.058934
35.85 	0.059574 	4935 	0.058368
35.87 	0.053626 	4923 	0.053150
35.89 	0.056749 	4934 	0.056155
35.91 	0.056830 	4927 	0.056354
35.93 	0.061701 	4927 	0.060393
35.95 	0.061013 	4917 	0.060060
35.97 	0.054357 	4912 	0.053522
35.99 	0.058716 	4939 	0.057392
36.01 	0.057809 	4930 	0.057334
36.03 	0.054218 	4943 	0.053389
36.05 	0.058645 	4945 	0.057579
36.07 	0.060539 	4939 	0.058977
36.09 	0.062146 	4940 	0.061197
36.11 	0.053561 	4929 	0.052729
36.13 	0.062323 	4942 	0.061138
36.15 	0.056894 	4939 	0.056538
36.17 	0.057462 	4925 	0.056391
36.19 	0.058300 	4940 	0.057825
36.21 	0.059241 	4929 	0.058290
36.23 	0.054509 	4935 	0.053915
36.25 	0.056669 	4941 	0.055246
36.27 	0.057462 	4925 	0.056372
36.29 	0.050700 	4931 	0.049749
36.31 	0.057021 	4928 	0.056427
36.33 	0.053517 	4933 	0.052567
36.35 	0.061270 	4929 	0.060200
36.37 	0.055048 	4923 	0.054076
36.39 	0.062589 	4921 	0.061279
36.41 	0.055556 	4896 	0.054359
36.43 	0.057427 	4928 	0.056714
36.45 	0.054361 	4930 	0.053410
36.47 	0.054498 	4936 	0.053667
36.49 	0.057062 	4942 	0.055284
36.51 	0.058585 	4933 	0.057873
36.53 	0.050374 	4943 	0.049663
36.55 	0.062716 	4927 	0.061408
36.57 	0.055736 	4934 	0.054786
36.59 	0.060741 	4939 	0.059792
36.61 	0.060434 	4931 	0.059840
36.63 	0.059826 	4931 	0.059232
36.65 	0.061436 	4932 	0.060010
36.67 	0.052333 	4930 	0.051739
36.69 	0.059444 	4929 	0.058375
36.71 	0.059744 	4921 	0.058792
36.73 	0.056041 	4925 	0.055208
36.75 	0.055623 	4944 	0.054912
36.77 	0.061191 	4919 	0.060596
36.79 	0.057102 	4921 	0.056150
36.81 	0.050244 	4916 	0.048933
36.83 	0.055544 	4915 	0.054472
36.85 	0.060433 	4898 	0.060074
36.87 	0.060275 	4944 	0.059071
36.89 	0.055736 	4916 	0.054763
36.91 	0.066383 	4941 	0.065316
36.93 	0.062069 	4930 	0.060386
36.95 	0.060612 	4933 	0.059425
36.97 	0.054114 	4934 	0.053521
36.99 	0.053090 	4935 	0.052615
37.01 	0.058585 	4933 	0.057991
37.03 	0.059911 	4924 	0.058721
37.05 	0.058656 	4927 	0.058062
37.07 	0.056738 	4935 	0.055788
37.09 	0.050528 	4928 	0.050052
37.11 	0.057345 	4935 	0.056752
37.13 	0.057067 	4924 	0.056473
37.15 	0.060705 	4909 	0.059989
37.17 	0.056344 	4934 	0.055631
37.19 	0.059695 	4925 	0.058387
37.21 	0.058776 	4917 	0.057108
37.23 	0.054494 	4918 	0.053402
37.25 	0.060680 	4911 	0.059368
37.27 	0.054965 	4894 	0.053988
37.29 	0.057404 	4930 	0.056404
37.31 	0.057345 	4935 	0.056515
37.33 	0.055409 	4927 	0.055052
37.35 	0.054070 	4938 	0.053003
37.37 	0.056627 	4927 	0.055794
37.39 	0.060637 	4931 	0.059805
37.41 	0.063070 	4931 	0.061645
37.43 	0.060016 	4932 	0.058809
37.45 	0.057271 	4924 	0.056557
37.47 	0.052546 	4929 	0.051358
37.49 	0.057892 	4923 	0.056801
37.51 	0.051490 	4933 	0.050520
37.53 	0.055499 	4919 	0.054785
37.55 	0.062677 	4930 	0.061113
37.57 	0.054822 	4925 	0.053514
37.59 	0.057782 	4915 	0.056590
37.61 	0.057091 	4922 	0.056019
37.63 	0.054889 	4919 	0.054056
37.65 	0.054900 	4918 	0.054543
37.67 	0.058524 	4904 	0.057399
37.69 	0.052675 	4898 	0.051120
37.71 	0.056807 	4929 	0.055737
37.73 	0.056807 	4929 	0.055618
37.75 	0.054251 	4940 	0.051860
37.77 	0.052033 	4920 	0.051556
37.79 	0.053753 	4930 	0.052802
37.81 	0.056152 	4933 	0.055084
37.83 	0.048577 	4920 	0.047982
37.85 	0.057700 	4922 	0.056391
37.87 	0.057299 	4939 	0.056232
37.89 	0.057259 	4925 	0.056307
37.91 	0.046856 	4930 	0.045787
37.93 	0.056109 	4919 	0.055514
37.95 	0.052022 	4921 	0.051665
37.97 	0.051532 	4929 	0.050819
37.99 	0.057207 	4912 	0.056491
38.01 	0.055601 	4928 	0.055006
38.03 	0.051334 	4909 	0.049883
38.05 	0.057868 	4925 	0.057511
38.07 	0.056223 	4909 	0.055388
38.09 	0.058836 	4878 	0.058235
38.11 	0.059980 	4935 	0.059268
38.13 	0.059348 	4937 	0.058161
38.15 	0.064864 	4918 	0.063534
38.17 	0.059432 	4930 	0.058125
38.19 	0.067546 	4930 	0.066595
38.21 	0.067642 	4923 	0.066214
38.23 	0.062981 	4938 	0.061439
38.25 	0.059793 	4917 	0.059078
38.27 	0.070791 	4930 	0.069484
38.29 	0.070268 	4924 	0.068603
38.31 	0.077126 	4927 	0.075442
38.33 	0.078188 	4924 	0.076503
38.35 	0.074675 	4928 	0.072892
38.37 	0.075751 	4924 	0.073947
38.39 	0.079446 	4909 	0.076821
38.41 	0.076376 	4923 	0.075424
38.43 	0.084825 	4916 	0.082919
38.45 	0.081131 	4918 	0.079344
38.47 	0.077644 	4907 	0.075595
38.49 	0.081813 	4877 	0.079871
38.51 	0.086375 	4932 	0.084593
38.53 	0.074457 	4929 	0.073031
38.55 	0.090762 	4936 	0.088250
38.57 	0.082876 	4923 	0.080953
38.59 	0.071690 	4924 	0.070024
38.61 	0.073947 	4936 	0.071929
38.63 	0.077579 	4924 	0.076271
38.65 	0.078894 	4918 	0.077465
38.67 	0.071298 	4937 	0.069637
38.69 	0.067452 	4922 	0.066381
38.71 	0.065394 	4924 	0.063847
38.73 	0.065880 	4918 	0.064213
38.75 	0.062513 	4927 	0.061918
38.77 	0.064392 	4923 	0.063559
38.79 	0.062221 	4934 	0.061272
38.81 	0.056596 	4912 	0.056000
38.83 	0.053060 	4919 	0.052583
38.85 	0.053746 	4912 	0.052434
38.87 	0.053350 	4911 	0.052515
38.89 	0.055748 	4897 	0.055270
38.91 	0.055884 	4903 	0.055048
38.93 	0.049413 	4938 	0.049057
38.95 	0.051850 	4918 	0.051374
38.97 	0.052322 	4931 	0.051115
38.99 	0.047397 	4937 	0.046923
39.01 	0.047784 	4918 	0.047069
39.03 	0.051074 	4934 	0.050006
39.05 	0.045279 	4925 	0.044447
39.07 	0.049756 	4924 	0.049043
39.09 	0.049360 	4923 	0.048884
39.11 	0.050902 	4931 	0.050665
39.13 	0.045094 	4923 	0.044618
39.15 	0.048830 	4915 	0.048353
39.17 	0.052258 	4937 	0.051547
39.19 	0.045556 	4917 	0.044722
39.21 	0.048473 	4910 	0.047637
39.23 	0.047310 	4925 	0.046239
39.25 	0.046526 	4922 	0.046288
39.27 	0.048473 	4910 	0.047091
39.29 	0.050398 	4901 	0.050039
39.31 	0.048116 	4884 	0.047756
39.33 	0.043399 	4931 	0.042805
39.35 	0.048024 	4935 	0.047312
39.37 	0.046865 	4929 	0.046509
39.39 	0.045648 	4929 	0.045173
39.41 	0.049483 	4931 	0.048137
39.43 	0.045003 	4933 	0.044884
39.45 	0.044873 	4925 	0.044278
39.47 	0.040016 	4923 	0.039897
39.49 	0.045408 	4933 	0.044933
39.51 	0.041227 	4924 	0.040989
39.53 	0.046110 	4923 	0.045515
39.55 	0.040659 	4919 	0.039944
39.57 	0.048044 	4933 	0.047806
39.59 	0.044788 	4912 	0.044073
39.61 	0.046313 	4923 	0.045956
39.63 	0.049370 	4922 	0.048894
39.65 	0.042631 	4926 	0.041680
39.67 	0.038469 	4913 	0.038350
39.69 	0.045566 	4916 	0.044851
39.71 	0.042697 	4895 	0.042218
39.73 	0.051141 	4908 	0.050783
39.75 	0.045252 	4928 	0.044657
39.77 	0.044580 	4935 	0.044105
39.79 	0.050954 	4926 	0.049884
39.81 	0.044855 	4927 	0.044023
39.83 	0.050263 	4934 	0.049432
39.85 	0.045870 	4927 	0.045632
39.87 	0.042437 	4925 	0.041723
39.89 	0.041954 	4934 	0.041459
39.91 	0.042869 	4922 	0.042512
39.93 	0.045169 	4937 	0.044101
39.95 	0.040692 	4915 	0.040096
39.97 	0.039773 	4928 	0.039060
39.99 	0.040552 	4932 	0.040433
40.01 	0.042497 	4918 	0.041782
40.03 	0.049310 	4928 	0.048597
40.05 	0.041692 	4917 	0.040739
40.07 	0.043063 	4923 	0.042825
40.09 	0.045159 	4916 	0.045040
40.11 	0.040887 	4916 	0.040649
40.13 	0.039624 	4896 	0.039146
40.15 	0.050071 	4913 	0.048879
40.17 	0.040179 	4928 	0.039822
40.19 	0.045648 	4929 	0.045292
40.21 	0.037690 	4935 	0.037334
40.23 	0.039335 	4932 	0.038622
40.25 	0.037805 	4920 	0.037329
40.27 	0.043144 	4937 	0.042432
40.29 	0.041202 	4927 	0.040350
40.31 	0.041304 	4939 	0.041067
40.33 	0.038727 	4932 	0.038133
40.35 	0.043911 	4919 	0.043435
40.37 	0.038142 	4929 	0.037666
40.39 	0.045224 	4931 	0.044155
40.41 	0.046497 	4925 	0.045903
40.43 	0.044291 	4922 	0.043934
40.45 	0.042773 	4933 	0.042654
40.47 	0.038634 	4918 	0.037800
40.49 	0.042428 	4926 	0.041952
40.51 	0.044494 	4922 	0.044256
40.53 	0.044752 	4916 	0.044156
40.55 	0.041157 	4908 	0.040799
40.57 	0.042740 	4890 	0.042740
40.59 	0.047195 	4937 	0.047076
40.61 	0.045998 	4935 	0.045622
40.63 	0.044828 	4930 	0.044233
40.65 	0.039498 	4937 	0.039023
40.67 	0.042985 	4932 	0.042747
40.69 	0.035852 	4937 	0.035496
40.71 	0.042174 	4932 	0.041936
40.73 	0.041007 	4926 	0.040412
40.75 	0.042385 	4931 	0.041435
40.77 	0.048795 	4939 	0.047965
40.79 	0.048335 	4924 	0.048097
40.81 	0.040073 	4941 	0.039836
40.83 	0.038758 	4928 	0.038639
40.85 	0.041633 	4924 	0.040899
40.87 	0.043425 	4928 	0.042831
40.89 	0.043602 	4931 	0.043483
40.91 	0.042251 	4923 	0.042013
40.93 	0.046818 	4934 	0.046581
40.95 	0.045593 	4913 	0.044520
40.97 	0.043461 	4924 	0.042985
40.99 	0.043461 	4924 	0.042866
41.01 	0.043974 	4912 	0.043616
41.03 	0.040979 	4905 	0.040501
41.05 	0.042139 	4936 	0.042021
41.07 	0.042191 	4930 	0.041339
41.09 	0.041709 	4939 	0.041116
41.11 	0.045998 	4935 	0.045523
41.13 	0.042545 	4936 	0.042307
41.15 	0.044525 	4941 	0.043775
41.17 	0.049655 	4934 	0.048587
41.19 	0.039554 	4930 	0.039078
41.21 	0.035042 	4937 	0.033974
41.23 	0.041506 	4939 	0.040795
41.25 	0.045206 	4933 	0.044731
41.27 	0.040154 	4931 	0.039679
41.29 	0.045455 	4928 	0.045098
41.31 	0.044800 	4933 	0.044207
41.33 	0.038080 	4937 	0.037843
41.35 	0.040097 	4938 	0.039741
41.37 	0.043664 	4924 	0.043069
41.39 	0.041354 	4933 	0.041117
41.41 	0.045067 	4926 	0.044472
41.43 	0.037736 	4929 	0.037260
41.45 	0.042328 	4914 	0.041494
41.47 	0.044458 	4926 	0.043982
41.49 	0.045176 	4892 	0.044457
41.51 	0.037449 	4940 	0.037331
41.53 	0.040049 	4944 	0.039693
41.55 	0.040729 	4935 	0.039899
41.57 	0.044121 	4941 	0.043291
41.59 	0.042368 	4933 	0.041536
41.61 	0.040783 	4953 	0.040074
41.63 	0.036452 	4938 	0.036096
41.65 	0.040576 	4929 	0.040457
41.67 	0.041700 	4940 	0.041345
41.69 	0.042652 	4947 	0.042534
41.71 	0.040130 	4934 	0.039774
41.73 	0.042950 	4936 	0.042119
41.75 	0.038547 	4929 	0.037815
41.77 	0.035620 	4941 	0.035383
41.79 	0.042678 	4944 	0.042204
41.81 	0.040519 	4936 	0.040163
41.83 	0.038555 	4928 	0.037961
41.85 	0.044543 	4939 	0.043950
41.87 	0.040729 	4935 	0.040373
41.89 	0.034056 	4933 	0.033581
41.91 	0.038290 	4936 	0.037578
41.93 	0.042174 	4932 	0.041342
41.95 	0.039140 	4931 	0.038665
41.97 	0.039683 	4914 	0.039206
41.99 	0.039959 	4905 	0.039123
42.01 	0.042088 	4942 	0.041733
42.03 	0.040089 	4939 	0.039022
42.05 	0.039580 	4952 	0.039343
42.07 	0.037270 	4937 	0.036914
42.09 	0.043452 	4948 	0.043334
42.11 	0.041860 	4945 	0.041268
42.13 	0.038827 	4945 	0.038709
42.15 	0.039490 	4938 	0.039371
42.17 	0.040870 	4918 	0.040255
42.19 	0.042584 	4908 	0.041390
42.21 	0.037951 	4901 	0.037354
42.23 	0.042314 	4892 	0.041955
42.25 	0.044181 	4889 	0.043702
42.27 	0.034058 	4874 	0.033698
42.29 	0.043183 	4863 	0.042340
42.31 	0.035427 	4855 	0.035307
42.33 	0.038477 	4834 	0.038114
42.35 	0.039066 	4838 	0.038339
42.37 	0.042236 	4830 	0.041630
42.39 	0.042465 	4804 	0.041733
42.41 	0.038301 	4804 	0.037936
42.43 	0.041945 	4792 	0.040967
42.45 	0.037060 	4776 	0.036815
42.47 	0.036936 	4765 	0.036567
42.49 	0.040084 	4765 	0.039715
42.51 	0.041535 	4743 	0.040917
42.53 	0.039129 	4728 	0.038757
42.55 	0.038233 	4708 	0.037611
42.57 	0.040803 	4730 	0.040432
42.59 	0.039120 	4729 	0.038749
42.61 	0.036958 	4708 	0.036336
42.63 	0.038225 	4709 	0.037851
42.65 	0.040982 	4685 	0.040857
42.67 	0.041631 	4684 	0.041110
42.69 	0.037869 	4674 	0.037368
42.71 	0.041604 	4663 	0.041102
42.73 	0.040733 	4640 	0.039849
42.75 	0.034005 	4617 	0.033497
42.77 	0.043261 	4600 	0.042624
42.79 	0.039721 	4582 	0.039465
42.81 	0.038799 	4562 	0.038028
42.83 	0.038139 	4536 	0.038010
42.85 	0.043728 	4528 	0.043081
42.87 	0.038675 	4499 	0.038415
42.89 	0.037500 	4480 	0.037108
42.91 	0.037926 	4456 	0.037401
42.93 	0.036887 	4446 	0.036360
42.95 	0.040987 	4416 	0.039926
42.97 	0.038400 	4401 	0.038134
42.99 	0.036944 	4385 	0.036543
43.01 	0.036443 	4363 	0.036040
43.03 	0.039695 	4333 	0.039560
43.05 	0.035607 	4325 	0.035065
43.07 	0.042365 	4296 	0.041956
43.09 	0.035256 	4283 	0.034572
43.11 	0.035723 	4255 	0.035447
43.13 	0.037055 	4237 	0.036363
43.15 	0.034475 	4206 	0.034196
43.17 	0.039722 	4179 	0.039442
43.19 	0.036004 	4194 	0.036004
43.21 	0.039789 	4172 	0.038947
43.23 	0.035628 	4154 	0.035064
43.25 	0.038210 	4135 	0.037785
43.27 	0.040682 	4105 	0.040111
43.29 	0.040000 	4100 	0.039548
43.31 	0.035548 	4079 	0.035117
43.33 	0.039250 	4051 	0.038960
43.35 	0.038442 	4032 	0.038152
43.37 	0.042590 	4015 	0.042007
43.39 	0.039480 	4002 	0.039334
43.41 	0.041289 	3972 	0.040699
43.43 	0.033838 	3960 	0.033543
43.45 	0.039898 	3935 	0.039303
43.47 	0.039786 	3921 	0.038740
43.49 	0.044393 	3897 	0.044092
43.51 	0.038432 	3877 	0.038130
43.53 	0.037536 	3863 	0.037536
43.55 	0.037787 	2964 	0.037589
43.57 	0.026363 	2238 	0.026101
43.59 	0.036655 	1746 	0.035649
43.61 	0.035529 	1351 	0.035529
43.63 	0.034965 	1001 	0.034965
43.65 	0.033479 	687 	0.032626
43.67 	0.041833 	502 	0.040666
43.69 	0.032698 	367 	0.032698
43.71 	0.016736 	239 	0.016736
43.73 	0.041667 	120 	0.041667
43.75 	0.000000 	16 	0.000000