File: Example_Data/25SC_s1_0050.001.dat
#F C:\frames\spec\25SC_s1_0050.001
#C title =s:50 frm:1 25SC_s1
#C wavelength =0.15406

#S 1  fr_average C:\frames\spec\25SC_s1_0050.001 C:\win32app\speccom\mask.axs chi 0 180 0 360 0.02
#C 2 theta =0.000000 to 180 deg
#C   q   =0.000000 to 81.568 nm^-1
#C  chi  =0.000000 to 360 deg
#C collumns:
#C  1 position (2theta or chi in degrees)
#C  2 average intensity (sum of all counts in the region divided with number of pixels)
#C  3 Number of pixels in region)
#C  4 error (sum of sqrt(intensity) for all pixels divided by number)
#N 4
#L TTh  Int  N_pix  Err
32.99 	0.065574 	61 	0.065574
33.01 	0.063001 	873 	0.061659
33.03 	0.058950 	1391 	0.058529
33.05 	0.059192 	1757 	0.057858
33.07 	0.056585 	2050 	0.056014
33.09 	0.058798 	2347 	0.057800
33.11 	0.062040 	2579 	0.061358
33.13 	0.057644 	2793 	0.056805
33.15 	0.051684 	2999 	0.050707
33.17 	0.059356 	3201 	0.058258
33.19 	0.054159 	3342 	0.052932
33.21 	0.059371 	3436 	0.056985
33.23 	0.061879 	3523 	0.061048
33.25 	0.065061 	3612 	0.064088
33.27 	0.061157 	3630 	0.060189
33.29 	0.064693 	3648 	0.064372
33.31 	0.062295 	3660 	0.061495
33.33 	0.055345 	3686 	0.054868
33.35 	0.060639 	3694 	0.059687
33.37 	0.055197 	3714 	0.054723
33.39 	0.059802 	3729 	0.058859
33.41 	0.054011 	3740 	0.053228
33.43 	0.058229 	3761 	0.057450
33.45 	0.054598 	3773 	0.053486
33.47 	0.061085 	3798 	0.060159
33.49 	0.059858 	3809 	0.059397
33.51 	0.058453 	3815 	0.057532
33.53 	0.067170 	3841 	0.066865
33.55 	0.055946 	3843 	0.055184
33.57 	0.062161 	3877 	0.061255
33.59 	0.059278 	3880 	0.058825
33.61 	0.060629 	3909 	0.059730
33.63 	0.058433 	3919 	0.057686
33.65 	0.055965 	3931 	0.054600
33.67 	0.058169 	3954 	0.056687
33.69 	0.059196 	3953 	0.058306
33.71 	0.057107 	3975 	0.055781
33.73 	0.055195 	4004 	0.055049
33.75 	0.059015 	3999 	0.057989
33.77 	0.051429 	4025 	0.050992
33.79 	0.057906 	4041 	0.057037
33.81 	0.051263 	4038 	0.050973
33.83 	0.055556 	4050 	0.055266
33.85 	0.055623 	4099 	0.054766
33.87 	0.059353 	4111 	0.057786
33.89 	0.060908 	4121 	0.059913
33.91 	0.058086 	4149 	0.057380
33.93 	0.056854 	4151 	0.056148
33.95 	0.062664 	4181 	0.061403
33.97 	0.058234 	4190 	0.056650
33.99 	0.057381 	4200 	0.057102
34.01 	0.056254 	4213 	0.055142
34.03 	0.055372 	4244 	0.054682
34.05 	0.055738 	4252 	0.055325
34.07 	0.056232 	4268 	0.055272
34.09 	0.056463 	4286 	0.055506
34.11 	0.063459 	4302 	0.061802
34.13 	0.058960 	4308 	0.057872
34.15 	0.051951 	4331 	0.051275
34.17 	0.058621 	4350 	0.057813
34.19 	0.048602 	4362 	0.048064
34.21 	0.059254 	4371 	0.057512
34.23 	0.058502 	4393 	0.057835
34.25 	0.060400 	4404 	0.058803
34.27 	0.056309 	4422 	0.055117
34.29 	0.056595 	4435 	0.055671
34.31 	0.050247 	4458 	0.049590
34.33 	0.061284 	4471 	0.059843
34.35 	0.054193 	4484 	0.053409
34.37 	0.052327 	4491 	0.051414
34.39 	0.056419 	4502 	0.055248
34.41 	0.060097 	4526 	0.059580
34.43 	0.060586 	4539 	0.059812
34.45 	0.056891 	4535 	0.055427
34.47 	0.055314 	4592 	0.054548
34.49 	0.061997 	4597 	0.060978
34.51 	0.052106 	4606 	0.050940
34.53 	0.055137 	4643 	0.054380
34.55 	0.057291 	4643 	0.056660
34.57 	0.056867 	4660 	0.056364
34.59 	0.057968 	4675 	0.057341
34.61 	0.063871 	4697 	0.062623
34.63 	0.050743 	4710 	0.049873
34.65 	0.056556 	4721 	0.055315
34.67 	0.060536 	4741 	0.059794
34.69 	0.058477 	4754 	0.057738
34.71 	0.048468 	4766 	0.047362
34.73 	0.059536 	4787 	0.058435
34.75 	0.060732 	4808 	0.059757
34.77 	0.060191 	4818 	0.058854
34.79 	0.054726 	4824 	0.053755
34.81 	0.059236 	4845 	0.057785
34.83 	0.052242 	4862 	0.051037
34.85 	0.062641 	4869 	0.061438
34.87 	0.057724 	4868 	0.057243
34.89 	0.051823 	4882 	0.051343
34.91 	0.049570 	4882 	0.049090
34.93 	0.058992 	4899 	0.057915
34.95 	0.055828 	4890 	0.055589
34.97 	0.052020 	4902 	0.051183
34.99 	0.052073 	4897 	0.051355
35.01 	0.060329 	4923 	0.059001
35.03 	0.055027 	4943 	0.054316
35.05 	0.057611 	4947 	0.056071
35.07 	0.058704 	4940 	0.057262
35.09 	0.055522 	4953 	0.055285
35.11 	0.055589 	4947 	0.054524
35.13 	0.056878 	4958 	0.056051
35.15 	0.058538 	4937 	0.057351
35.17 	0.056611 	4946 	0.056019
35.19 	0.053622 	4942 	0.053148
35.21 	0.056421 	4945 	0.055079
35.23 	0.065521 	4945 	0.064218
35.25 	0.054623 	4943 	0.054030
35.27 	0.055982 	4948 	0.055390
35.29 	0.055410 	4945 	0.054106
35.31 	0.061423 	4933 	0.060948
35.33 	0.054825 	4943 	0.054114
35.35 	0.055848 	4942 	0.054781
35.37 	0.058514 	4939 	0.057209
35.39 	0.064712 	4945 	0.063646
35.41 	0.052578 	4926 	0.051746
35.43 	0.055544 	4933 	0.054476
35.45 	0.061373 	4937 	0.059949
35.47 	0.051511 	4931 	0.051036
35.49 	0.054582 	4910 	0.053509
35.51 	0.061104 	4926 	0.060510
35.53 	0.059810 	4949 	0.058390
35.55 	0.058038 	4945 	0.057565
35.57 	0.060004 	4933 	0.058460
35.59 	0.052983 	4945 	0.052272
35.61 	0.057669 	4942 	0.057076
35.63 	0.054420 	4943 	0.052998
35.65 	0.055005 	4945 	0.054294
35.67 	0.057669 	4942 	0.056602
35.69 	0.060655 	4946 	0.060300
35.71 	0.058538 	4937 	0.057944
35.73 	0.058549 	4936 	0.057125
35.75 	0.058000 	4931 	0.056931
35.77 	0.055140 	4951 	0.054430
35.79 	0.062247 	4932 	0.060821
35.81 	0.057977 	4933 	0.056889
35.83 	0.057420 	4946 	0.056453
35.85 	0.056738 	4935 	0.055393
35.87 	0.056876 	4923 	0.055666
35.89 	0.054722 	4934 	0.054247
35.91 	0.052770 	4927 	0.052176
35.93 	0.056627 	4927 	0.055676
35.95 	0.058369 	4917 	0.057416
35.97 	0.057410 	4912 	0.056456
35.99 	0.056489 	4939 	0.055422
36.01 	0.056795 	4930 	0.055607
36.03 	0.063524 	4943 	0.062695
36.05 	0.061881 	4945 	0.060459
36.07 	0.056692 	4939 	0.055861
36.09 	0.059717 	4940 	0.058887
36.11 	0.056401 	4929 	0.054975
36.13 	0.055645 	4942 	0.054816
36.15 	0.058514 	4939 	0.058158
36.17 	0.058274 	4925 	0.056847
36.19 	0.061943 	4940 	0.061232
36.21 	0.060864 	4929 	0.059656
36.23 	0.055319 	4935 	0.054488
36.25 	0.061121 	4941 	0.060173
36.27 	0.058680 	4925 	0.057372
36.29 	0.057189 	4931 	0.055448
36.31 	0.060268 	4928 	0.059198
36.33 	0.060612 	4933 	0.059425
36.35 	0.058835 	4929 	0.057528
36.37 	0.059517 	4923 	0.059041
36.39 	0.056289 	4921 	0.055575
36.41 	0.055964 	4896 	0.055007
36.43 	0.049919 	4928 	0.049087
36.45 	0.059838 	4930 	0.058511
36.47 	0.059765 	4936 	0.059053
36.49 	0.054431 	4942 	0.053128
36.51 	0.058585 	4933 	0.057378
36.53 	0.065547 	4943 	0.063888
36.55 	0.062716 	4927 	0.061170
36.57 	0.067491 	4934 	0.066541
36.59 	0.059324 	4939 	0.058375
36.61 	0.055364 	4931 	0.054889
36.63 	0.062056 	4931 	0.060631
36.65 	0.055150 	4932 	0.054200
36.67 	0.061258 	4930 	0.059951
36.69 	0.050517 	4929 	0.050161
36.71 	0.054867 	4921 	0.053557
36.73 	0.054822 	4925 	0.054347
36.75 	0.057241 	4944 	0.055938
36.77 	0.057532 	4919 	0.056698
36.79 	0.055883 	4921 	0.054812
36.81 	0.056753 	4916 	0.055443
36.83 	0.055748 	4915 	0.055152
36.85 	0.058595 	4898 	0.057519
36.87 	0.057241 	4944 	0.056293
36.89 	0.057567 	4916 	0.056495
36.91 	0.058693 	4941 	0.057981
36.93 	0.063083 	4930 	0.061420
36.95 	0.053112 	4933 	0.052637
36.97 	0.047223 	4934 	0.046511
36.99 	0.058561 	4935 	0.057711
37.01 	0.052909 	4933 	0.052078
37.03 	0.058489 	4924 	0.057656
37.05 	0.055003 	4927 	0.054527
37.07 	0.055724 	4935 	0.054656
37.09 	0.057630 	4928 	0.056322
37.11 	0.053293 	4935 	0.051849
37.13 	0.052600 	4924 	0.051767
37.15 	0.061520 	4909 	0.060565
37.17 	0.052696 	4934 	0.051983
37.19 	0.055838 	4925 	0.054014
37.21 	0.055928 	4917 	0.055333
37.23 	0.058560 	4918 	0.057369
37.25 	0.062105 	4911 	0.061509
37.27 	0.061095 	4894 	0.059779
37.29 	0.055781 	4930 	0.054593
37.31 	0.053698 	4935 	0.053223
37.33 	0.050132 	4927 	0.049300
37.35 	0.051438 	4938 	0.050370
37.37 	0.058656 	4927 	0.058300
37.39 	0.055770 	4931 	0.054819
37.41 	0.057595 	4931 	0.056644
37.43 	0.054947 	4932 	0.054116
37.45 	0.051178 	4924 	0.050940
37.47 	0.056198 	4929 	0.055247
37.49 	0.058907 	4923 	0.058312
37.51 	0.055139 	4933 	0.054189
37.53 	0.056312 	4919 	0.055598
37.55 	0.060041 	4930 	0.059209
37.57 	0.048934 	4925 	0.048458
37.59 	0.054934 	4915 	0.054100
37.61 	0.056278 	4922 	0.056040
37.63 	0.053263 	4919 	0.052171
37.65 	0.057137 	4918 	0.056422
37.67 	0.059543 	4904 	0.058110
37.69 	0.057370 	4898 	0.056533
37.71 	0.060256 	4929 	0.059543
37.73 	0.062284 	4929 	0.061215
37.75 	0.056073 	4940 	0.054393
37.77 	0.056911 	4920 	0.055958
37.79 	0.053347 	4930 	0.052258
37.81 	0.051490 	4933 	0.050896
37.83 	0.050610 	4920 	0.049657
37.85 	0.053027 	4922 	0.052551
37.87 	0.057299 	4939 	0.056350
37.89 	0.053604 	4925 	0.052653
37.91 	0.054361 	4930 	0.053054
37.93 	0.051840 	4919 	0.051602
37.95 	0.051819 	4921 	0.051224
37.97 	0.054169 	4929 	0.052486
37.99 	0.058428 	4912 	0.057594
38.01 	0.057224 	4928 	0.056154
38.03 	0.056223 	4909 	0.055627
38.05 	0.057868 	4925 	0.056302
38.07 	0.054186 	4909 	0.053112
38.09 	0.058426 	4878 	0.057325
38.11 	0.056738 	4935 	0.055669
38.13 	0.059550 	4937 	0.058364
38.15 	0.062830 	4918 	0.060925
38.17 	0.060041 	4930 	0.058615
38.19 	0.053347 	4930 	0.052515
38.21 	0.062563 	4923 	0.061255
38.23 	0.062778 	4938 	0.061118
38.25 	0.069758 	4917 	0.068567
38.27 	0.065923 	4930 	0.064497
38.29 	0.067831 	4924 	0.066522
38.31 	0.073676 	4927 	0.071536
38.33 	0.068643 	4924 	0.067216
38.35 	0.068791 	4928 	0.067840
38.37 	0.071893 	4924 	0.071298
38.39 	0.074353 	4909 	0.072802
38.41 	0.079017 	4923 	0.077827
38.43 	0.068755 	4916 	0.067921
38.45 	0.080927 	4918 	0.079121
38.47 	0.080701 	4907 	0.078771
38.49 	0.078122 	4877 	0.076661
38.51 	0.074615 	4932 	0.073071
38.53 	0.076283 	4929 	0.074144
38.55 	0.070908 	4936 	0.069484
38.57 	0.063985 	4923 	0.062320
38.59 	0.068440 	4924 	0.066180
38.61 	0.071110 	4936 	0.069785
38.63 	0.070877 	4924 	0.069688
38.65 	0.071167 	4918 	0.070214
38.67 	0.065019 	4937 	0.063477
38.69 	0.062576 	4922 	0.061743
38.71 	0.059911 	4924 	0.059197
38.73 	0.063034 	4918 	0.062061
38.75 	0.056627 	4927 	0.055794
38.77 	0.049970 	4923 	0.049375
38.79 	0.056952 	4934 	0.055408
38.81 	0.053746 	4912 	0.052434
38.83 	0.051027 	4919 	0.050074
38.85 	0.059243 	4912 	0.058050
38.87 	0.049481 	4911 	0.048407
38.89 	0.051052 	4897 	0.050214
38.91 	0.048950 	4903 	0.048233
38.93 	0.048603 	4938 	0.048010
38.95 	0.051240 	4918 	0.050883
38.97 	0.047049 	4931 	0.046337
38.99 	0.047802 	4937 	0.047209
39.01 	0.050224 	4918 	0.049747
39.03 	0.047021 	4934 	0.046427
39.05 	0.044264 	4925 	0.043550
39.07 	0.047116 	4924 	0.046759
39.09 	0.048141 	4923 	0.047903
39.11 	0.042182 	4931 	0.041826
39.13 	0.044282 	4923 	0.043925
39.15 	0.049237 	4915 	0.048641
39.17 	0.043954 	4937 	0.043598
39.19 	0.048200 	4917 	0.047843
39.21 	0.042566 	4910 	0.042208
39.23 	0.042843 	4925 	0.042228
39.25 	0.042056 	4922 	0.041818
39.27 	0.047454 	4910 	0.046619
39.29 	0.045501 	4901 	0.044903
39.31 	0.046274 	4884 	0.045674
39.33 	0.040560 	4931 	0.039609
39.35 	0.042148 	4935 	0.041554
39.37 	0.049097 	4929 	0.048246
39.39 	0.044025 	4929 	0.043550
39.41 	0.047860 	4931 	0.047504
39.43 	0.048247 	4933 	0.048009
39.45 	0.042234 	4925 	0.041520
39.47 	0.048751 	4923 	0.048275
39.49 	0.045814 	4933 	0.045458
39.51 	0.049756 	4924 	0.049280
39.53 	0.049970 	4923 	0.049375
39.55 	0.044725 	4919 	0.044486
39.57 	0.039732 	4933 	0.039020
39.59 	0.045399 	4912 	0.044902
39.61 	0.044891 	4923 	0.044534
39.63 	0.047135 	4922 	0.046402
39.65 	0.044864 	4926 	0.044269
39.67 	0.042133 	4913 	0.041656
39.69 	0.043938 	4916 	0.043581
39.71 	0.044535 	4895 	0.044176
39.73 	0.041769 	4908 	0.041172
39.75 	0.042208 	4928 	0.041495
39.77 	0.045593 	4935 	0.044723
39.79 	0.049939 	4926 	0.048988
39.81 	0.037751 	4927 	0.037276
39.83 	0.045805 	4934 	0.045567
39.85 	0.045261 	4927 	0.044547
39.87 	0.038782 	4925 	0.038425
39.89 	0.047021 	4934 	0.046427
39.91 	0.047135 	4922 	0.046540
39.93 	0.044561 	4937 	0.044443
39.95 	0.045575 	4915 	0.044621
39.97 	0.047281 	4928 	0.046449
39.99 	0.044201 	4932 	0.043489
40.01 	0.044530 	4918 	0.044173
40.03 	0.041396 	4928 	0.041277
40.05 	0.045963 	4917 	0.044772
40.07 	0.040829 	4923 	0.040353
40.09 	0.042311 	4916 	0.042192
40.11 	0.043938 	4916 	0.043342
40.13 	0.043505 	4896 	0.043505
40.15 	0.043354 	4913 	0.042877
40.17 	0.035106 	4928 	0.034987
40.19 	0.040779 	4929 	0.039828
40.21 	0.049645 	4935 	0.049052
40.23 	0.042174 	4932 	0.041580
40.25 	0.045935 	4920 	0.044982
40.27 	0.047600 	4937 	0.046888
40.29 	0.040390 	4927 	0.040152
40.31 	0.044341 	4939 	0.043867
40.33 	0.045620 	4932 	0.045145
40.35 	0.041472 	4919 	0.040400
40.37 	0.044431 	4929 	0.044074
40.39 	0.044210 	4931 	0.043616
40.41 	0.048528 	4925 	0.047933
40.43 	0.045104 	4922 	0.044509
40.45 	0.039732 	4933 	0.039139
40.47 	0.046360 	4918 	0.045646
40.49 	0.046894 	4926 	0.046537
40.51 	0.045916 	4922 	0.045202
40.53 	0.040277 	4916 	0.039562
40.55 	0.042380 	4908 	0.041544
40.57 	0.042536 	4890 	0.041817
40.59 	0.042536 	4937 	0.041686
40.61 	0.041743 	4935 	0.041030
40.63 	0.039959 	4930 	0.039365
40.65 	0.044967 	4937 	0.044492
40.67 	0.044201 	4932 	0.043845
40.69 	0.043346 	4937 	0.042634
40.71 	0.043187 	4932 	0.042356
40.73 	0.040398 	4926 	0.039684
40.75 	0.041574 	4931 	0.040980
40.77 	0.049403 	4939 	0.048928
40.79 	0.040617 	4924 	0.040023
40.81 	0.041894 	4941 	0.041420
40.83 	0.042005 	4928 	0.041173
40.85 	0.041633 	4924 	0.041038
40.87 	0.043222 	4928 	0.042390
40.89 	0.039749 	4931 	0.039254
40.91 	0.043469 	4923 	0.043231
40.93 	0.038306 	4934 	0.037831
40.95 	0.037655 	4913 	0.036821
40.97 	0.036962 	4924 	0.036605
40.99 	0.039602 	4924 	0.039245
41.01 	0.038070 	4912 	0.037593
41.03 	0.044241 	4905 	0.043882
41.05 	0.039506 	4936 	0.038912
41.07 	0.042394 	4930 	0.041681
41.09 	0.042924 	4939 	0.042331
41.11 	0.042553 	4935 	0.042197
41.13 	0.040519 	4936 	0.039787
41.15 	0.036632 	4941 	0.036514
41.17 	0.045399 	4934 	0.044331
41.19 	0.042799 	4930 	0.042443
41.21 	0.042536 	4937 	0.041705
41.23 	0.044948 	4939 	0.044593
41.25 	0.038516 	4933 	0.038397
41.27 	0.043805 	4931 	0.043211
41.29 	0.040381 	4928 	0.039787
41.31 	0.040746 	4933 	0.040152
41.33 	0.042941 	4937 	0.042229
41.35 	0.040300 	4938 	0.039588
41.37 	0.035946 	4924 	0.035352
41.39 	0.041760 	4933 	0.041166
41.41 	0.040398 	4926 	0.039922
41.43 	0.037533 	4929 	0.037295
41.45 	0.044974 	4914 	0.044258
41.47 	0.042631 	4926 	0.042512
41.49 	0.036795 	4892 	0.036076
41.51 	0.047368 	4940 	0.046894
41.53 	0.033778 	4944 	0.033304
41.55 	0.042351 	4935 	0.041757
41.57 	0.040275 	4941 	0.040038
41.59 	0.039935 	4933 	0.039460
41.61 	0.040985 	4953 	0.040985
41.63 	0.039895 	4938 	0.039539
41.65 	0.040982 	4929 	0.040744
41.67 	0.039474 	4940 	0.038861
41.69 	0.037801 	4947 	0.037564
41.71 	0.042156 	4934 	0.041563
41.73 	0.041126 	4936 	0.040414
41.75 	0.041591 	4929 	0.041472
41.77 	0.042097 	4941 	0.041741
41.79 	0.041060 	4944 	0.040823
41.81 	0.039303 	4936 	0.039066
41.83 	0.038758 	4928 	0.038164
41.85 	0.041304 	4939 	0.040829
41.87 	0.034853 	4935 	0.034497
41.89 	0.039935 	4933 	0.039223
41.91 	0.038493 	4936 	0.038493
41.93 	0.039335 	4932 	0.038504
41.95 	0.035895 	4931 	0.035420
41.97 	0.039886 	4914 	0.039648
41.99 	0.038736 	4905 	0.038258
42.01 	0.043505 	4942 	0.042675
42.03 	0.039887 	4939 	0.039531
42.05 	0.046648 	4952 	0.045564
42.07 	0.039700 	4937 	0.039344
42.09 	0.033549 	4948 	0.033312
42.11 	0.039232 	4945 	0.038639
42.13 	0.036603 	4945 	0.036484
42.15 	0.038680 	4938 	0.038324
42.17 	0.038024 	4918 	0.037666
42.19 	0.037286 	4908 	0.036928
42.21 	0.037747 	4901 	0.037250
42.23 	0.040679 	4892 	0.040200
42.25 	0.039476 	4889 	0.039357
42.27 	0.037957 	4874 	0.037456
42.29 	0.035163 	4863 	0.035043
42.31 	0.038105 	4855 	0.037622
42.33 	0.037857 	4834 	0.037614
42.35 	0.037412 	4838 	0.036807
42.37 	0.042029 	4830 	0.041908
42.39 	0.036220 	4804 	0.036098
42.41 	0.037677 	4804 	0.037311
42.43 	0.039023 	4792 	0.038290
42.45 	0.037688 	4776 	0.037443
42.47 	0.041973 	4765 	0.041481
42.49 	0.033788 	4765 	0.033419
42.51 	0.035631 	4743 	0.035137
42.53 	0.036591 	4728 	0.036219
42.55 	0.040357 	4708 	0.039859
42.57 	0.036364 	4730 	0.035868
42.59 	0.039966 	4729 	0.039223
42.61 	0.037383 	4708 	0.036885
42.63 	0.040773 	4709 	0.040275
42.65 	0.036926 	4685 	0.036301
42.67 	0.039710 	4684 	0.039209
42.69 	0.036157 	4674 	0.036157
42.71 	0.040746 	4663 	0.040495
42.73 	0.035991 	4640 	0.035991
42.75 	0.038553 	4617 	0.038173
42.77 	0.038478 	4600 	0.038351
42.79 	0.042340 	4582 	0.041956
42.81 	0.038141 	4562 	0.038141
42.83 	0.037919 	4536 	0.037144
42.85 	0.041299 	4528 	0.040910
42.87 	0.043121 	4499 	0.042860
42.89 	0.038616 	4480 	0.038355
42.91 	0.037926 	4456 	0.037663
42.93 	0.036437 	4446 	0.035910
42.95 	0.038949 	4416 	0.038551
42.97 	0.036355 	4401 	0.035956
42.99 	0.042417 	4385 	0.041349
43.01 	0.038964 	4363 	0.038830
43.03 	0.037387 	4333 	0.036847
43.05 	0.036069 	4325 	0.035663
43.07 	0.039804 	4296 	0.039259
43.09 	0.041326 	4283 	0.040232
43.11 	0.039013 	4255 	0.038462
43.13 	0.040123 	4237 	0.039570
43.15 	0.038279 	4206 	0.038279
43.17 	0.041637 	4179 	0.040936
43.19 	0.036481 	4194 	0.035922
43.21 	0.042186 	4172 	0.041624
43.23 	0.036351 	4154 	0.035927
43.25 	0.034583 	4135 	0.034441
43.27 	0.041413 	4105 	0.040699
43.29 	0.036098 	4100 	0.035669
43.31 	0.038245 	4079 	0.038101
43.33 	0.040237 	4051 	0.039514
43.35 	0.043403 	4032 	0.042676
43.37 	0.042092 	4015 	0.041509
43.39 	0.037731 	4002 	0.037585
43.41 	0.038520 	3972 	0.037635
43.43 	0.040909 	3960 	0.040761
43.45 	0.036341 	3935 	0.035894
43.47 	0.032900 	3921 	0.032452
43.49 	0.034129 	3897 	0.033828
43.51 	0.041527 	3877 	0.041074
43.53 	0.039865 	3863 	0.039714
43.55 	0.036437 	2964 	0.036240
43.57 	0.040661 	2238 	0.039614
43.59 	0.029782 	1746 	0.029447
43.61 	0.035529 	1351 	0.035529
43.63 	0.028971 	1001 	0.028971
43.65 	0.039301 	687 	0.037596
43.67 	0.039841 	502 	0.038674
43.69 	0.032698 	367 	0.032698
43.71 	0.062762 	239 	0.057860
43.73 	0.058333 	120 	0.058333
43.75 	0.000000 	16 	0.000000