File: Example_Data/25SC_s1_0008.002.dat
#F C:\frames\spec\25SC_s1_0008.002
#C title =s:8 frm:2 25SC_s1
#C wavelength =0.15406

#S 1  fr_average C:\frames\spec\25SC_s1_0008.002 C:\win32app\speccom\mask.axs chi 0 180 0 360 0.02
#C 2 theta =0.000000 to 180 deg
#C   q   =0.000000 to 81.568 nm^-1
#C  chi  =0.000000 to 360 deg
#C collumns:
#C  1 position (2theta or chi in degrees)
#C  2 average intensity (sum of all counts in the region divided with number of pixels)
#C  3 Number of pixels in region)
#C  4 error (sum of sqrt(intensity) for all pixels divided by number)
#N 4
#L TTh  Int  N_pix  Err
32.99 	0.081967 	61 	0.081967
33.01 	0.073310 	873 	0.070626
33.03 	0.059669 	1391 	0.059248
33.05 	0.058054 	1757 	0.057720
33.07 	0.066829 	2050 	0.066544
33.09 	0.058372 	2347 	0.057374
33.11 	0.062815 	2579 	0.061906
33.13 	0.054780 	2793 	0.053941
33.15 	0.060353 	2999 	0.059767
33.17 	0.052796 	3201 	0.050936
33.19 	0.057451 	3342 	0.056224
33.21 	0.059080 	3436 	0.058057
33.23 	0.061028 	3523 	0.060362
33.25 	0.057586 	3612 	0.056775
33.27 	0.054545 	3630 	0.053739
33.29 	0.058662 	3648 	0.057859
33.31 	0.059836 	3660 	0.059356
33.33 	0.058058 	3686 	0.057422
33.35 	0.057661 	3694 	0.056868
33.37 	0.057351 	3714 	0.055931
33.39 	0.058193 	3729 	0.057250
33.41 	0.051872 	3740 	0.051402
33.43 	0.063281 	3761 	0.062035
33.45 	0.054864 	3773 	0.054553
33.47 	0.056345 	3798 	0.055112
33.49 	0.057233 	3809 	0.056156
33.51 	0.059764 	3815 	0.058689
33.53 	0.059099 	3841 	0.057854
33.55 	0.057767 	3843 	0.056218
33.57 	0.057519 	3877 	0.056612
33.59 	0.062113 	3880 	0.060302
33.61 	0.056536 	3909 	0.055787
33.63 	0.057668 	3919 	0.056621
33.65 	0.061816 	3931 	0.060773
33.67 	0.056904 	3954 	0.055719
33.69 	0.061725 	3953 	0.060836
33.71 	0.058113 	3975 	0.056787
33.73 	0.066683 	4004 	0.065220
33.75 	0.065516 	3999 	0.064784
33.77 	0.056149 	4025 	0.054839
33.79 	0.062361 	4041 	0.061201
33.81 	0.053739 	4038 	0.053014
33.83 	0.053827 	4050 	0.052959
33.85 	0.062210 	4099 	0.060781
33.87 	0.053272 	4111 	0.052702
33.89 	0.050716 	4121 	0.049863
33.91 	0.059050 	4149 	0.057780
33.93 	0.060949 	4151 	0.060361
33.95 	0.055489 	4181 	0.053505
33.97 	0.055847 	4190 	0.055148
33.99 	0.056667 	4200 	0.055690
34.01 	0.051033 	4213 	0.050337
34.03 	0.061970 	4244 	0.061142
34.05 	0.057385 	4252 	0.056834
34.07 	0.057170 	4268 	0.056598
34.09 	0.063462 	4286 	0.062506
34.11 	0.064854 	4302 	0.063900
34.13 	0.062906 	4308 	0.062362
34.15 	0.064188 	4331 	0.063106
34.17 	0.058161 	4350 	0.057622
34.19 	0.059376 	4362 	0.058280
34.21 	0.056966 	4371 	0.056698
34.23 	0.055543 	4393 	0.054876
34.25 	0.058810 	4404 	0.057347
34.27 	0.049977 	4422 	0.049580
34.29 	0.055017 	4435 	0.054357
34.31 	0.052041 	4458 	0.051384
34.33 	0.064639 	4471 	0.063067
34.35 	0.057538 	4484 	0.055970
34.37 	0.058339 	4491 	0.057817
34.39 	0.051533 	4502 	0.050882
34.41 	0.061423 	4526 	0.060129
34.43 	0.057502 	4539 	0.056469
34.45 	0.060860 	4535 	0.059956
34.47 	0.060322 	4592 	0.059557
34.49 	0.058951 	4597 	0.057295
34.51 	0.062310 	4606 	0.060911
34.53 	0.057506 	4643 	0.056749
34.55 	0.052121 	4643 	0.050860
34.57 	0.058798 	4660 	0.057290
34.59 	0.058824 	4675 	0.057946
34.61 	0.056632 	4697 	0.055385
34.63 	0.057962 	4710 	0.056221
34.65 	0.052955 	4721 	0.052210
34.67 	0.059270 	4741 	0.058529
34.69 	0.056584 	4754 	0.056091
34.71 	0.065464 	4766 	0.063866
34.73 	0.059536 	4787 	0.058680
34.75 	0.054700 	4808 	0.053482
34.77 	0.066002 	4818 	0.064908
34.79 	0.059494 	4824 	0.058644
34.81 	0.057379 	4845 	0.056653
34.83 	0.062731 	4862 	0.061868
34.85 	0.059150 	4869 	0.058067
34.87 	0.055670 	4868 	0.054206
34.89 	0.058378 	4882 	0.057418
34.91 	0.063703 	4882 	0.062863
34.93 	0.060420 	4899 	0.059823
34.95 	0.057055 	4890 	0.056696
34.97 	0.055896 	4902 	0.054223
34.99 	0.057382 	4897 	0.056425
35.01 	0.056063 	4923 	0.055230
35.03 	0.055027 	4943 	0.054435
35.05 	0.057611 	4947 	0.056663
35.07 	0.058300 	4940 	0.057470
35.09 	0.060973 	4953 	0.060382
35.11 	0.059228 	4947 	0.058281
35.13 	0.060912 	4958 	0.059848
35.15 	0.065424 	4937 	0.064356
35.17 	0.056611 	4946 	0.055782
35.19 	0.062323 	4942 	0.061256
35.21 	0.058038 	4945 	0.056972
35.23 	0.063094 	4945 	0.061436
35.25 	0.060287 	4943 	0.059339
35.27 	0.054568 	4948 	0.053502
35.29 	0.066127 	4945 	0.065180
35.31 	0.058180 	4933 	0.057448
35.33 	0.061501 	4943 	0.060672
35.35 	0.054836 	4942 	0.054362
35.37 	0.062158 	4939 	0.060953
35.39 	0.056421 	4945 	0.055591
35.41 	0.056435 	4926 	0.055484
35.43 	0.062031 	4933 	0.060606
35.45 	0.052056 	4937 	0.051225
35.47 	0.056784 	4931 	0.056308
35.49 	0.064766 	4910 	0.063573
35.51 	0.057856 	4926 	0.056429
35.53 	0.066074 	4949 	0.065009
35.55 	0.057027 	4945 	0.056198
35.57 	0.057369 	4933 	0.056656
35.59 	0.061274 	4945 	0.060089
35.61 	0.056455 	4942 	0.056099
35.63 	0.053207 	4943 	0.052733
35.65 	0.059858 	4945 	0.059128
35.67 	0.056657 	4942 	0.055472
35.69 	0.060453 	4946 	0.059861
35.71 	0.056917 	4937 	0.056324
35.73 	0.062399 	4936 	0.061449
35.75 	0.057595 	4931 	0.056526
35.77 	0.057160 	4951 	0.056332
35.79 	0.061030 	4932 	0.059842
35.81 	0.061423 	4933 	0.060473
35.83 	0.054590 	4946 	0.053879
35.85 	0.063425 	4935 	0.062356
35.87 	0.055657 	4923 	0.055062
35.89 	0.059181 	4934 	0.057282
35.91 	0.061701 	4927 	0.060512
35.93 	0.059062 	4927 	0.058349
35.95 	0.058776 	4917 	0.058061
35.97 	0.061075 	4912 	0.060002
35.99 	0.060336 	4939 	0.059031
36.01 	0.060852 	4930 	0.060001
36.03 	0.064536 	4943 	0.063351
36.05 	0.058241 	4945 	0.057273
36.07 	0.054464 	4939 	0.053397
36.09 	0.055466 	4940 	0.054754
36.11 	0.060256 	4929 	0.059067
36.13 	0.062728 	4942 	0.061404
36.15 	0.061146 	4939 	0.059723
36.17 	0.058274 	4925 	0.057442
36.19 	0.058502 	4940 	0.057672
36.21 	0.058633 	4929 	0.058038
36.23 	0.058764 	4935 	0.058052
36.25 	0.056466 	4941 	0.055281
36.27 	0.059492 	4925 	0.058541
36.29 	0.060434 	4931 	0.059246
36.31 	0.061080 	4928 	0.060366
36.33 	0.064058 	4933 	0.063227
36.35 	0.057618 	4929 	0.056905
36.37 	0.061142 	4923 	0.059476
36.39 	0.055680 	4921 	0.054846
36.41 	0.058007 	4896 	0.057169
36.43 	0.059862 	4928 	0.058792
36.45 	0.062880 	4930 	0.061811
36.47 	0.056118 	4936 	0.055644
36.49 	0.060704 	4942 	0.059381
36.51 	0.059396 	4933 	0.057813
36.53 	0.054420 	4943 	0.054183
36.55 	0.063730 	4927 	0.062660
36.57 	0.059789 	4934 	0.058246
36.59 	0.060336 	4939 	0.059506
36.61 	0.050294 	4931 	0.048987
36.63 	0.050497 	4931 	0.049408
36.65 	0.056164 	4932 	0.055313
36.67 	0.062677 	4930 	0.061370
36.69 	0.052343 	4929 	0.051730
36.71 	0.054460 	4921 	0.053508
36.73 	0.059898 	4925 	0.058709
36.75 	0.052791 	4944 	0.051488
36.77 	0.054889 	4919 	0.053341
36.79 	0.052022 	4921 	0.051308
36.81 	0.058788 	4916 	0.057715
36.83 	0.063479 	4915 	0.062268
36.85 	0.057575 	4898 	0.056737
36.87 	0.059466 	4944 	0.058755
36.89 	0.055330 	4916 	0.054257
36.91 	0.055454 	4941 	0.054457
36.93 	0.059229 	4930 	0.058397
36.95 	0.058180 	4933 	0.056498
36.97 	0.058979 	4934 	0.057554
36.99 	0.061398 	4935 	0.060686
37.01 	0.058382 	4933 	0.057076
37.03 	0.054833 	4924 	0.054715
37.05 	0.053785 	4927 	0.052953
37.07 	0.058764 	4935 	0.058170
37.09 	0.054383 	4928 	0.053789
37.11 	0.053090 	4935 	0.052853
37.13 	0.059098 	4924 	0.057770
37.15 	0.063353 	4909 	0.061663
37.17 	0.057357 	4934 	0.056170
37.19 	0.065381 	4925 	0.063953
37.21 	0.051861 	4917 	0.051146
37.23 	0.055714 	4918 	0.055118
37.25 	0.051517 	4911 	0.050563
37.27 	0.060074 	4894 	0.058398
37.29 	0.054361 	4930 	0.053648
37.31 	0.050659 	4935 	0.050184
37.33 	0.059265 	4927 	0.058057
37.35 	0.057108 	4938 	0.056040
37.37 	0.056627 	4927 	0.055794
37.39 	0.055364 	4931 	0.054176
37.41 	0.057798 	4931 	0.056491
37.43 	0.053731 	4932 	0.052761
37.45 	0.052193 	4924 	0.051599
37.47 	0.057212 	4929 	0.055905
37.49 	0.062157 	4923 	0.060848
37.51 	0.052504 	4933 	0.051910
37.53 	0.056516 	4919 	0.055801
37.55 	0.056389 	4930 	0.055677
37.57 	0.052183 	4925 	0.050874
37.59 	0.052289 	4915 	0.051574
37.61 	0.055872 	4922 	0.055158
37.63 	0.055499 	4919 	0.054665
37.65 	0.057950 	4918 	0.056998
37.67 	0.045677 	4904 	0.045438
37.69 	0.056758 	4898 	0.055801
37.71 	0.049909 	4929 	0.049314
37.73 	0.060661 	4929 	0.059711
37.75 	0.054656 	4940 	0.054063
37.77 	0.051423 	4920 	0.051066
37.79 	0.054361 	4930 	0.053648
37.81 	0.051693 	4933 	0.050743
37.83 	0.056301 	4920 	0.055210
37.85 	0.056887 	4922 	0.055578
37.87 	0.055072 	4939 	0.053985
37.89 	0.050558 	4925 	0.049706
37.91 	0.053347 	4930 	0.052753
37.93 	0.046351 	4919 	0.045994
37.95 	0.048771 	4921 	0.047818
37.97 	0.054169 	4929 	0.053575
37.99 	0.047231 	4912 	0.046993
38.01 	0.052557 	4928 	0.050893
38.03 	0.053779 	4909 	0.052943
38.05 	0.047513 	4925 	0.046799
38.07 	0.056631 	4909 	0.055915
38.09 	0.048175 	4878 	0.047815
38.11 	0.054103 	4935 	0.053391
38.13 	0.047802 	4937 	0.047090
38.15 	0.056120 	4918 	0.055882
38.17 	0.058418 	4930 	0.057467
38.19 	0.055984 	4930 	0.055271
38.21 	0.056876 	4923 	0.056281
38.23 	0.055893 	4938 	0.054588
38.25 	0.051454 	4917 	0.050858
38.27 	0.059026 	4930 	0.057838
38.29 	0.051787 	4924 	0.050716
38.31 	0.058250 	4927 	0.057062
38.33 	0.052803 	4924 	0.052089
38.35 	0.059456 	4928 	0.057891
38.37 	0.055646 	4924 	0.055170
38.39 	0.056631 	4909 	0.055795
38.41 	0.054032 	4923 	0.053437
38.43 	0.056550 	4916 	0.055835
38.45 	0.054697 	4918 	0.054221
38.47 	0.052170 	4907 	0.051693
38.49 	0.057207 	4877 	0.056587
38.51 	0.064882 	4932 	0.063576
38.53 	0.069182 	4929 	0.067261
38.55 	0.068071 	4936 	0.066647
38.57 	0.064392 	4923 	0.063083
38.59 	0.059911 	4924 	0.059078
38.61 	0.067261 	4936 	0.065956
38.63 	0.064379 	4924 	0.063407
38.65 	0.062017 	4918 	0.060469
38.67 	0.065424 	4937 	0.064119
38.69 	0.067249 	4922 	0.065940
38.71 	0.068643 	4924 	0.067811
38.73 	0.069744 	4918 	0.068672
38.75 	0.058047 	4927 	0.057096
38.77 	0.060329 	4923 	0.059377
38.79 	0.060600 	4934 	0.059650
38.81 	0.059446 	4912 	0.059208
38.83 	0.050823 	4919 	0.050109
38.85 	0.051710 	4912 	0.050279
38.87 	0.055386 	4911 	0.054551
38.89 	0.053502 	4897 	0.052904
38.91 	0.060779 	4903 	0.059345
38.93 	0.053260 	4938 	0.052311
38.95 	0.051240 	4918 	0.049454
38.97 	0.048063 	4931 	0.046856
38.99 	0.050030 	4937 	0.049062
39.01 	0.047377 	4918 	0.046543
39.03 	0.050263 	4934 	0.049551
39.05 	0.043249 	4925 	0.042654
39.07 	0.048944 	4924 	0.048111
39.09 	0.054235 	4923 	0.053640
39.11 	0.046441 	4931 	0.046203
39.13 	0.048954 	4923 	0.048716
39.15 	0.048627 	4915 	0.047892
39.17 	0.053879 	4937 	0.053523
39.19 	0.048403 	4917 	0.047808
39.21 	0.050306 	4910 	0.050306
39.23 	0.048122 	4925 	0.046813
39.25 	0.046526 	4922 	0.046169
39.27 	0.047658 	4910 	0.046703
39.29 	0.046725 	4901 	0.045749
39.31 	0.040745 	4884 	0.040625
39.33 	0.053336 	4931 	0.052148
39.35 	0.044782 	4935 	0.044189
39.37 	0.049909 	4929 	0.049671
39.39 	0.046257 	4929 	0.045425
39.41 	0.049077 	4931 	0.048364
39.43 	0.043989 	4933 	0.043514
39.45 	0.045888 	4925 	0.045650
39.47 	0.045094 	4923 	0.044381
39.49 	0.046625 	4933 	0.046269
39.51 	0.044273 	4924 	0.043559
39.53 	0.041032 	4923 	0.040199
39.55 	0.047774 	4919 	0.047059
39.57 	0.044598 	4933 	0.044360
39.59 	0.048860 	4912 	0.047906
39.61 	0.046516 	4923 	0.045921
39.63 	0.048557 	4922 	0.047724
39.65 	0.054608 	4926 	0.053776
39.67 	0.042744 	4913 	0.042505
39.69 	0.046583 	4916 	0.046225
39.71 	0.043514 	4895 	0.043274
39.73 	0.043195 	4908 	0.042837
39.75 	0.039164 	4928 	0.038807
39.77 	0.048835 	4935 	0.048004
39.79 	0.048721 	4926 	0.047770
39.81 	0.047290 	4927 	0.046577
39.83 	0.049250 	4934 	0.048300
39.85 	0.045058 	4927 	0.044820
39.87 	0.045076 	4925 	0.044006
39.89 	0.050466 	4934 	0.050110
39.91 	0.047948 	4922 	0.047472
39.93 	0.046992 	4937 	0.046873
39.95 	0.043337 	4915 	0.042741
39.97 	0.041193 	4928 	0.040955
39.99 	0.040146 	4932 	0.039552
40.01 	0.044734 	4918 	0.043900
40.03 	0.042614 	4928 	0.041782
40.05 	0.045149 	4917 	0.044792
40.07 	0.045907 	4923 	0.045788
40.09 	0.043531 	4916 	0.042558
40.11 	0.045769 	4916 	0.045173
40.13 	0.040850 	4896 	0.040730
40.15 	0.045593 	4913 	0.044997
40.17 	0.045657 	4928 	0.044944
40.19 	0.047677 	4929 	0.047320
40.21 	0.045390 	4935 	0.044559
40.23 	0.043390 	4932 	0.043034
40.25 	0.044106 	4920 	0.043868
40.27 	0.048613 	4937 	0.048138
40.29 	0.038969 	4927 	0.038374
40.31 	0.041506 	4939 	0.041032
40.33 	0.041565 	4932 	0.040971
40.35 	0.040862 	4919 	0.040386
40.37 	0.046257 	4929 	0.045781
40.39 	0.040154 	4931 	0.039323
40.41 	0.042437 	4925 	0.042080
40.43 	0.040228 	4922 	0.039751
40.45 	0.046017 	4933 	0.045542
40.47 	0.044937 	4918 	0.044322
40.49 	0.045067 	4926 	0.044472
40.51 	0.044697 	4922 	0.044340
40.53 	0.041701 	4916 	0.040986
40.55 	0.042584 	4908 	0.041509
40.57 	0.039673 	4890 	0.039553
40.59 	0.045169 	4937 	0.044695
40.61 	0.046201 	4935 	0.045449
40.63 	0.042191 	4930 	0.041339
40.65 	0.044764 	4937 	0.044408
40.67 	0.046634 	4932 	0.045803
40.69 	0.046790 	4937 	0.046196
40.71 	0.047040 	4932 	0.046683
40.73 	0.046285 	4926 	0.045809
40.75 	0.046846 	4931 	0.046352
40.77 	0.047783 	4939 	0.047190
40.79 	0.042039 	4924 	0.041801
40.81 	0.045740 	4941 	0.045384
40.83 	0.049310 	4928 	0.048597
40.85 	0.039399 	4924 	0.038923
40.87 	0.043628 	4928 	0.043272
40.89 	0.038735 	4931 	0.038378
40.91 	0.042251 	4923 	0.041894
40.93 	0.042967 	4934 	0.042492
40.95 	0.042133 	4913 	0.041418
40.97 	0.045695 	4924 	0.045100
40.99 	0.045695 	4924 	0.045100
41.01 	0.044585 	4912 	0.043750
41.03 	0.036493 	4905 	0.035896
41.05 	0.043355 	4936 	0.042643
41.07 	0.043205 	4930 	0.043086
41.09 	0.047783 	4939 	0.046548
41.11 	0.033840 	4935 	0.033484
41.13 	0.039708 	4936 	0.039234
41.15 	0.042097 	4941 	0.041504
41.17 	0.039927 	4934 	0.039215
41.19 	0.049696 	4930 	0.049339
41.21 	0.042941 	4937 	0.042348
41.23 	0.041911 	4939 	0.041318
41.25 	0.046219 	4933 	0.045507
41.27 	0.041371 	4931 	0.040777
41.29 	0.041599 	4928 	0.041242
41.31 	0.039732 	4933 	0.039495
41.33 	0.044561 	4937 	0.043612
41.35 	0.043540 	4938 	0.042947
41.37 	0.040211 	4924 	0.039735
41.39 	0.049666 	4933 	0.048953
41.41 	0.043240 	4926 	0.042883
41.43 	0.043417 	4929 	0.042822
41.45 	0.044567 	4914 	0.043494
41.47 	0.045879 	4926 	0.045166
41.49 	0.040270 	4892 	0.040030
41.51 	0.045142 	4940 	0.044905
41.53 	0.043487 	4944 	0.043013
41.55 	0.036879 	4935 	0.036642
41.57 	0.037239 	4941 	0.036884
41.59 	0.039530 	4933 	0.039055
41.61 	0.044216 	4953 	0.043861
41.63 	0.045362 	4938 	0.044651
41.65 	0.041793 	4929 	0.041080
41.67 	0.040891 	4940 	0.040772
41.69 	0.042450 	4947 	0.041858
41.71 	0.038306 	4934 	0.037831
41.73 	0.049028 	4936 	0.048177
41.75 	0.043011 	4929 	0.042773
41.77 	0.044930 	4941 	0.044337
41.79 	0.041464 	4944 	0.040753
41.81 	0.042139 	4936 	0.041783
41.83 	0.043222 	4928 	0.042490
41.85 	0.042114 	4939 	0.041877
41.87 	0.039311 	4935 	0.038836
41.89 	0.037908 	4933 	0.037552
41.91 	0.043558 	4936 	0.042964
41.93 	0.042985 	4932 	0.042509
41.95 	0.043602 	4931 	0.042889
41.97 	0.036427 	4914 	0.035950
41.99 	0.042813 	4905 	0.041858
42.01 	0.038446 	4942 	0.037853
42.03 	0.042114 	4939 	0.041758
42.05 	0.039378 	4952 	0.039023
42.07 	0.041928 	4937 	0.041572
42.09 	0.037995 	4948 	0.037758
42.11 	0.039434 	4945 	0.038841
42.13 	0.043074 	4945 	0.042600
42.15 	0.036249 	4938 	0.035894
42.17 	0.040260 	4918 	0.039784
42.19 	0.043806 	4908 	0.043209
42.21 	0.035299 	4901 	0.034701
42.23 	0.042723 	4892 	0.042364
42.25 	0.037022 	4889 	0.036543
42.27 	0.035700 	4874 	0.035339
42.29 	0.040510 	4863 	0.040028
42.31 	0.041401 	4855 	0.040677
42.33 	0.043649 	4834 	0.042417
42.35 	0.042993 	4838 	0.042751
42.37 	0.038095 	4830 	0.037974
42.39 	0.038510 	4804 	0.037900
42.41 	0.034763 	4804 	0.034641
42.43 	0.040484 	4792 	0.040117
42.45 	0.038317 	4776 	0.037949
42.47 	0.036306 	4765 	0.035938
42.49 	0.041553 	4765 	0.040815
42.51 	0.041113 	4743 	0.040496
42.53 	0.043993 	4728 	0.043745
42.55 	0.041631 	4708 	0.041258
42.57 	0.036786 	4730 	0.036415
42.59 	0.040178 	4729 	0.039434
42.61 	0.041419 	4708 	0.041046
42.63 	0.039074 	4709 	0.038328
42.65 	0.046318 	4685 	0.045443
42.67 	0.041418 	4684 	0.040792
42.69 	0.036585 	4674 	0.035833
42.71 	0.039460 	4663 	0.039208
42.73 	0.043103 	4640 	0.042851
42.75 	0.036820 	4617 	0.036440
42.77 	0.038478 	4600 	0.038096
42.79 	0.035137 	4582 	0.034882
42.81 	0.040772 	4562 	0.040386
42.83 	0.036596 	4536 	0.036209
42.85 	0.040636 	4528 	0.040507
42.87 	0.040231 	4499 	0.039580
42.89 	0.040848 	4480 	0.040456
42.91 	0.038824 	4456 	0.038298
42.93 	0.040036 	4446 	0.039509
42.95 	0.037817 	4416 	0.037132
42.97 	0.038855 	4401 	0.038189
42.99 	0.037172 	4385 	0.036638
43.01 	0.035297 	4363 	0.035297
43.03 	0.037157 	4333 	0.037022
43.05 	0.042081 	4325 	0.041133
43.07 	0.040037 	4296 	0.039628
43.09 	0.042727 	4283 	0.042180
43.11 	0.037838 	4255 	0.037012
43.13 	0.037527 	4237 	0.037112
43.15 	0.039467 	4206 	0.039050
43.17 	0.035654 	4179 	0.034954
43.19 	0.038865 	4194 	0.038027
43.21 	0.040029 	4172 	0.039608
43.23 	0.039721 	4154 	0.038851
43.25 	0.036518 	4135 	0.036518
43.27 	0.038002 	4105 	0.037432
43.29 	0.040488 	4100 	0.040488
43.31 	0.042412 	4079 	0.041838
43.33 	0.037028 	4051 	0.036305
43.35 	0.039435 	4032 	0.038563
43.37 	0.042590 	4015 	0.041131
43.39 	0.035482 	4002 	0.034750
43.41 	0.042044 	3972 	0.041897
43.43 	0.038131 	3960 	0.037835
43.45 	0.034053 	3935 	0.033756
43.47 	0.038766 	3921 	0.038019
43.49 	0.034899 	3897 	0.034598
43.51 	0.037658 	3877 	0.037356
43.53 	0.040124 	3863 	0.039821
43.55 	0.034076 	2964 	0.033878
43.57 	0.028150 	2238 	0.027627
43.59 	0.041810 	1746 	0.041474
43.61 	0.044412 	1351 	0.044412
43.63 	0.046953 	1001 	0.046953
43.65 	0.032023 	687 	0.032023
43.67 	0.029880 	502 	0.029880
43.69 	0.027248 	367 	0.027248
43.71 	0.033473 	239 	0.033473
43.73 	0.033333 	120 	0.033333
43.75 	0.125000 	16 	0.125000