File: Example_Data/25SC_s1_0031.003.dat
#F C:\frames\spec\25SC_s1_0031.003
#C title =s:31 frm:3 25SC_s1
#C wavelength =0.15406

#S 1  fr_average C:\frames\spec\25SC_s1_0031.003 C:\win32app\speccom\mask.axs chi 0 180 0 360 0.02
#C 2 theta =0.000000 to 180 deg
#C   q   =0.000000 to 81.568 nm^-1
#C  chi  =0.000000 to 360 deg
#C collumns:
#C  1 position (2theta or chi in degrees)
#C  2 average intensity (sum of all counts in the region divided with number of pixels)
#C  3 Number of pixels in region)
#C  4 error (sum of sqrt(intensity) for all pixels divided by number)
#N 4
#L TTh  Int  N_pix  Err
32.99 	0.032787 	61 	0.032787
33.01 	0.065292 	873 	0.065292
33.03 	0.064702 	1391 	0.063859
33.05 	0.055208 	1757 	0.054874
33.07 	0.053171 	2050 	0.053171
33.09 	0.061355 	2347 	0.060357
33.11 	0.060101 	2579 	0.058738
33.13 	0.056928 	2793 	0.056509
33.15 	0.063021 	2999 	0.061849
33.17 	0.054670 	3201 	0.054487
33.19 	0.049072 	3342 	0.048196
33.21 	0.050640 	3436 	0.049958
33.23 	0.053364 	3523 	0.052366
33.25 	0.063953 	3612 	0.062143
33.27 	0.059780 	3630 	0.059457
33.29 	0.066612 	3648 	0.064845
33.31 	0.066940 	3660 	0.065659
33.33 	0.066196 	3686 	0.065402
33.35 	0.057390 	3694 	0.056915
33.37 	0.051158 	3714 	0.049712
33.39 	0.058997 	3729 	0.058055
33.41 	0.060160 	3740 	0.058907
33.43 	0.049455 	3761 	0.048832
33.45 	0.058839 	3773 	0.058684
33.47 	0.066877 	3798 	0.065464
33.49 	0.052245 	3809 	0.051783
33.51 	0.065531 	3815 	0.064277
33.53 	0.056756 	3841 	0.056146
33.55 	0.053084 	3843 	0.052321
33.57 	0.063709 	3877 	0.062198
33.59 	0.055412 	3880 	0.054054
33.61 	0.059094 	3909 	0.057896
33.63 	0.064812 	3919 	0.064215
33.65 	0.054948 	3931 	0.053905
33.67 	0.061710 	3954 	0.059932
33.69 	0.059449 	3953 	0.058263
33.71 	0.062390 	3975 	0.061653
33.73 	0.054945 	4004 	0.053604
33.75 	0.062516 	3999 	0.061344
33.77 	0.059379 	4025 	0.058942
33.79 	0.057659 	4041 	0.056644
33.81 	0.062902 	4038 	0.061452
33.83 	0.057284 	4050 	0.056271
33.85 	0.063186 	4099 	0.062329
33.87 	0.057893 	4111 	0.057181
33.89 	0.054356 	4121 	0.053361
33.91 	0.058086 	4149 	0.057098
33.93 	0.055167 	4151 	0.054321
33.95 	0.063860 	4181 	0.061759
33.97 	0.054654 	4190 	0.053535
33.99 	0.063810 	4200 	0.062694
34.01 	0.060764 	4213 	0.059652
34.03 	0.058907 	4244 	0.057526
34.05 	0.066792 	4252 	0.066241
34.07 	0.059513 	4268 	0.058392
34.09 	0.062996 	4286 	0.062039
34.11 	0.059740 	4302 	0.058378
34.13 	0.063603 	4308 	0.061835
34.15 	0.060263 	4331 	0.058911
34.17 	0.055862 	4350 	0.055323
34.19 	0.063044 	4362 	0.061164
34.21 	0.064059 	4371 	0.062584
34.23 	0.063738 	4393 	0.063204
34.25 	0.062216 	4404 	0.060997
34.27 	0.058571 	4422 	0.057357
34.29 	0.056370 	4435 	0.055974
34.31 	0.058098 	4458 	0.057704
34.33 	0.057705 	4471 	0.056767
34.35 	0.063782 	4484 	0.062476
34.37 	0.057226 	4491 	0.055921
34.39 	0.052421 	4502 	0.051771
34.41 	0.061865 	4526 	0.061088
34.43 	0.059044 	4539 	0.058528
34.45 	0.056450 	4535 	0.054641
34.47 	0.056620 	4592 	0.055324
34.49 	0.061562 	4597 	0.060542
34.51 	0.056231 	4606 	0.055341
34.53 	0.058152 	4643 	0.057017
34.55 	0.059014 	4643 	0.058383
34.57 	0.056009 	4660 	0.054752
34.59 	0.057968 	4675 	0.057341
34.61 	0.057484 	4697 	0.056610
34.63 	0.060297 	4710 	0.059675
34.65 	0.053590 	4721 	0.052474
34.67 	0.055052 	4741 	0.054187
34.69 	0.061001 	4754 	0.059995
34.71 	0.054343 	4766 	0.053483
34.73 	0.050971 	4787 	0.049625
34.75 	0.054285 	4808 	0.052823
34.77 	0.064134 	4818 	0.063648
34.79 	0.057214 	4824 	0.056121
34.81 	0.058824 	4845 	0.057735
34.83 	0.059235 	4862 	0.057307
34.85 	0.049702 	4869 	0.048740
34.87 	0.054848 	4868 	0.054126
34.89 	0.060016 	4882 	0.058337
34.91 	0.057763 	4882 	0.057163
34.93 	0.056134 	4899 	0.055158
34.95 	0.054601 	4890 	0.053284
34.97 	0.054060 	4902 	0.052506
34.99 	0.058199 	4897 	0.057481
35.01 	0.054235 	4923 	0.053521
35.03 	0.058062 	4943 	0.056995
35.05 	0.059834 	4947 	0.058157
35.07 	0.059514 	4940 	0.057479
35.09 	0.057945 	4953 	0.057353
35.11 	0.054376 	4947 	0.053311
35.13 	0.052844 	4958 	0.051662
35.15 	0.054689 	4937 	0.053265
35.17 	0.057622 	4946 	0.056912
35.19 	0.046742 	4942 	0.046387
35.21 	0.062892 	4945 	0.062536
35.23 	0.061678 	4945 	0.060711
35.25 	0.057455 	4943 	0.056724
35.27 	0.058407 	4948 	0.057460
35.29 	0.059454 	4945 	0.058605
35.31 	0.056963 	4933 	0.055895
35.33 	0.053611 	4943 	0.052782
35.35 	0.056253 	4942 	0.055778
35.37 	0.061146 	4939 	0.060197
35.39 	0.055814 	4945 	0.054392
35.41 	0.053999 	4926 	0.053642
35.43 	0.060815 	4933 	0.059152
35.45 	0.061373 	4937 	0.060167
35.47 	0.055567 	4931 	0.054221
35.49 	0.053564 	4910 	0.052848
35.51 	0.056841 	4926 	0.056009
35.53 	0.057789 	4949 	0.056606
35.55 	0.058443 	4945 	0.057732
35.57 	0.059396 	4933 	0.058921
35.59 	0.057836 	4945 	0.056296
35.61 	0.053420 	4942 	0.052116
35.63 	0.065143 	4943 	0.064195
35.65 	0.053589 	4945 	0.052741
35.67 	0.050789 	4942 	0.050078
35.69 	0.054792 	4946 	0.053963
35.71 	0.061171 	4937 	0.060459
35.73 	0.060170 	4936 	0.059221
35.75 	0.055770 	4931 	0.054582
35.77 	0.053525 	4951 	0.053170
35.79 	0.060219 	4932 	0.058794
35.81 	0.060612 	4933 	0.059425
35.83 	0.054792 	4946 	0.054081
35.85 	0.048632 	4935 	0.047801
35.87 	0.049970 	4923 	0.049613
35.89 	0.057560 	4934 	0.056373
35.91 	0.053582 	4927 	0.052393
35.93 	0.061092 	4927 	0.060022
35.95 	0.055522 	4917 	0.055045
35.97 	0.048860 	4912 	0.048502
35.99 	0.049808 	4939 	0.049452
36.01 	0.058012 	4930 	0.056943
36.03 	0.055837 	4943 	0.054888
36.05 	0.060667 	4945 	0.059720
36.07 	0.055882 	4939 	0.055170
36.09 	0.058502 	4940 	0.056941
36.11 	0.059038 	4929 	0.057731
36.13 	0.058276 	4942 	0.057565
36.15 	0.056489 	4939 	0.055303
36.17 	0.057868 	4925 	0.056659
36.19 	0.057287 	4940 	0.056339
36.21 	0.056807 	4929 	0.055955
36.23 	0.053293 	4935 	0.052937
36.25 	0.063348 	4941 	0.062024
36.27 	0.057259 	4925 	0.056545
36.29 	0.054958 	4931 	0.054364
36.31 	0.050325 	4928 	0.049830
36.33 	0.048449 	4933 	0.048093
36.35 	0.051938 	4929 	0.051700
36.37 	0.055454 	4923 	0.054502
36.39 	0.055273 	4921 	0.053845
36.41 	0.056168 	4896 	0.055331
36.43 	0.056412 	4928 	0.055461
36.45 	0.056592 	4930 	0.055879
36.47 	0.054498 	4936 	0.053054
36.49 	0.053824 	4942 	0.052876
36.51 	0.052706 	4933 	0.052350
36.53 	0.053409 	4943 	0.052579
36.55 	0.055612 	4927 	0.055136
36.57 	0.051885 	4934 	0.051291
36.59 	0.055679 	4939 	0.054730
36.61 	0.049077 	4931 	0.048364
36.63 	0.055567 	4931 	0.054141
36.65 	0.057380 	4932 	0.056905
36.67 	0.052738 	4930 	0.052006
36.69 	0.055792 	4929 	0.054604
36.71 	0.054867 	4921 	0.053796
36.73 	0.059695 	4925 	0.058506
36.75 	0.056230 	4944 	0.055400
36.77 	0.055296 	4919 	0.054462
36.79 	0.057915 	4921 	0.056963
36.81 	0.050448 	4916 	0.050090
36.83 	0.055748 	4915 	0.055013
36.85 	0.054104 	4898 	0.052908
36.87 	0.054005 	4944 	0.053531
36.89 	0.058788 	4916 	0.057954
36.91 	0.054645 	4941 	0.053933
36.93 	0.047870 	4930 	0.046920
36.95 	0.056355 	4933 	0.055524
36.97 	0.050669 	4934 	0.049956
36.99 	0.052280 	4935 	0.051330
37.01 	0.055747 	4933 	0.054659
37.03 	0.048538 	4924 	0.047824
37.05 	0.056627 	4927 	0.055557
37.07 	0.052280 	4935 	0.051449
37.09 	0.047687 	4928 	0.046973
37.11 	0.053495 	4935 	0.052190
37.13 	0.058083 	4924 	0.057012
37.15 	0.051945 	4909 	0.051110
37.17 	0.054114 	4934 	0.053283
37.19 	0.053604 	4925 	0.052771
37.21 	0.054098 	4917 	0.053621
37.23 	0.053274 	4918 	0.052083
37.25 	0.049888 	4911 	0.049053
37.27 	0.046996 	4894 	0.046518
37.29 	0.049290 	4930 	0.048696
37.31 	0.050659 	4935 	0.049828
37.33 	0.050132 	4927 	0.049300
37.35 	0.057918 	4938 	0.056969
37.37 	0.051756 	4927 	0.050448
37.39 	0.047252 	4931 	0.046658
37.41 	0.052119 	4931 	0.051288
37.43 	0.054339 	4932 	0.053389
37.45 	0.051178 	4924 	0.049969
37.47 	0.052546 	4929 	0.051714
37.49 	0.050782 	4923 	0.050187
37.51 	0.053517 	4933 	0.052923
37.53 	0.057939 	4919 	0.056986
37.55 	0.049290 	4930 	0.048577
37.57 	0.050964 	4925 	0.050489
37.59 	0.050458 	4915 	0.049604
37.61 	0.051199 	4922 	0.050366
37.63 	0.047977 	4919 	0.047501
37.65 	0.054087 	4918 	0.053372
37.67 	0.049755 	4904 	0.049277
37.69 	0.055737 	4898 	0.055019
37.71 	0.056807 	4929 	0.056212
37.73 	0.050720 	4929 	0.050245
37.75 	0.053846 	4940 	0.053253
37.77 	0.048780 	4920 	0.048185
37.79 	0.052333 	4930 	0.051382
37.81 	0.046422 	4933 	0.046303
37.83 	0.050407 	4920 	0.049930
37.85 	0.054653 	4922 	0.053700
37.87 	0.054262 	4939 	0.053432
37.89 	0.057259 	4925 	0.056426
37.91 	0.053955 	4930 	0.052886
37.93 	0.053466 	4919 	0.052752
37.95 	0.049787 	4921 	0.049430
37.97 	0.047271 	4929 	0.046796
37.99 	0.053135 	4912 	0.052777
38.01 	0.054789 	4928 	0.053957
38.03 	0.053575 	4909 	0.052620
38.05 	0.053198 	4925 	0.051890
38.07 	0.046853 	4909 	0.046137
38.09 	0.050021 	4878 	0.049660
38.11 	0.059574 	4935 	0.059337
38.13 	0.056107 	4937 	0.055632
38.15 	0.054494 	4918 	0.053759
38.17 	0.058824 	4930 	0.057992
38.19 	0.055984 	4930 	0.055746
38.21 	0.054032 	4923 	0.053437
38.23 	0.055083 	4938 	0.053778
38.25 	0.060403 	4917 	0.059450
38.27 	0.053550 	4930 	0.052837
38.29 	0.053818 	4924 	0.052628
38.31 	0.057439 	4927 	0.055536
38.33 	0.058286 	4924 	0.057453
38.35 	0.058442 	4928 	0.057709
38.37 	0.061942 	4924 	0.060990
38.39 	0.062946 	4909 	0.062230
38.41 	0.058298 	4923 	0.057227
38.43 	0.063466 	4916 	0.061917
38.45 	0.063644 	4918 	0.061857
38.47 	0.060526 	4907 	0.059571
38.49 	0.053106 	4877 	0.051645
38.51 	0.054542 	4932 	0.053473
38.53 	0.059850 	4929 	0.058661
38.55 	0.062804 	4936 	0.061736
38.57 	0.060126 	4923 	0.059174
38.59 	0.051787 	4924 	0.051192
38.61 	0.053485 	4936 	0.052773
38.63 	0.049756 	4924 	0.049280
38.65 	0.053070 	4918 	0.052356
38.67 	0.047802 	4937 	0.046972
38.69 	0.051199 	4922 	0.050366
38.71 	0.052396 	4924 	0.051921
38.73 	0.054290 	4918 	0.053099
38.75 	0.051756 	4927 	0.051280
38.77 	0.049563 	4923 	0.049087
38.79 	0.054520 	4934 	0.054045
38.81 	0.052321 	4912 	0.051605
38.83 	0.054076 	4919 	0.052766
38.85 	0.052524 	4912 	0.051690
38.87 	0.051721 	4911 	0.050766
38.89 	0.047784 	4897 	0.046947
38.91 	0.056292 	4903 	0.055814
38.93 	0.051033 	4938 	0.050321
38.95 	0.048190 	4918 	0.047357
38.97 	0.051916 	4931 	0.050847
38.99 	0.050841 	4937 	0.050109
39.01 	0.047987 	4918 	0.047511
39.03 	0.047426 	4934 	0.046951
39.05 	0.044873 	4925 	0.044397
39.07 	0.046507 	4924 	0.045436
39.09 	0.047735 	4923 	0.046426
39.11 	0.046846 	4931 	0.046015
39.13 	0.044891 	4923 	0.043820
39.15 	0.056562 	4915 	0.055608
39.17 	0.049625 	4937 	0.049151
39.19 	0.046980 	4917 	0.046503
39.21 	0.047047 	4910 	0.045973
39.23 	0.046091 	4925 	0.045378
39.25 	0.043681 	4922 	0.043086
39.27 	0.043992 	4910 	0.043376
39.29 	0.056927 	4901 	0.056210
39.31 	0.051392 	4884 	0.050913
39.33 	0.053539 	4931 	0.052331
39.35 	0.054509 	4935 	0.053678
39.37 	0.047880 	4929 	0.047048
39.39 	0.047677 	4929 	0.046845
39.41 	0.041979 	4931 	0.041742
39.43 	0.044395 	4933 	0.043801
39.45 	0.047310 	4925 	0.046596
39.47 	0.040423 	4923 	0.039709
39.49 	0.044800 	4933 	0.044088
39.51 	0.047725 	4924 	0.047131
39.53 	0.053220 	4923 	0.052387
39.55 	0.049197 	4919 	0.048840
39.57 	0.043179 	4933 	0.042585
39.59 	0.041938 	4912 	0.041461
39.61 	0.043673 	4923 	0.043197
39.63 	0.049167 	4922 	0.048691
39.65 	0.048721 	4926 	0.047532
39.67 	0.046000 	4913 	0.045523
39.69 	0.046176 	4916 	0.045580
39.71 	0.052503 	4895 	0.052383
39.73 	0.048085 	4908 	0.047846
39.75 	0.050122 	4928 	0.049409
39.77 	0.048024 	4935 	0.047550
39.79 	0.053796 	4926 	0.053202
39.81 	0.046479 	4927 	0.045765
39.83 	0.051885 	4934 	0.051173
39.85 	0.048102 	4927 	0.047746
39.87 	0.047310 	4925 	0.046239
39.89 	0.048237 	4934 	0.047762
39.91 	0.052418 	4922 	0.051942
39.93 	0.048815 	4937 	0.047985
39.95 	0.048220 	4915 	0.047385
39.97 	0.045657 	4928 	0.044944
39.99 	0.048256 	4932 	0.047306
40.01 	0.047580 	4918 	0.046389
40.03 	0.045657 	4928 	0.045420
40.05 	0.043116 	4917 	0.042639
40.07 	0.048548 	4923 	0.047338
40.09 	0.042921 	4916 	0.042683
40.11 	0.049634 	4916 	0.049157
40.13 	0.043505 	4896 	0.042787
40.15 	0.041522 	4913 	0.041165
40.17 	0.046266 	4928 	0.045434
40.19 	0.042199 	4929 	0.041605
40.21 	0.043364 	4935 	0.043364
40.23 	0.043593 	4932 	0.042999
40.25 	0.046341 	4920 	0.045270
40.27 	0.042536 	4937 	0.042180
40.29 	0.050132 	4927 	0.049537
40.31 	0.045758 	4939 	0.045165
40.33 	0.042579 	4932 	0.042203
40.35 	0.049604 	4919 	0.048889
40.37 	0.044837 	4929 	0.044005
40.39 	0.040357 	4931 	0.040001
40.41 	0.048731 	4925 	0.048374
40.43 	0.044900 	4922 	0.044543
40.45 	0.041151 	4933 	0.040439
40.47 	0.048800 	4918 	0.047728
40.49 	0.043240 	4926 	0.043002
40.51 	0.042462 	4922 	0.041510
40.53 	0.045972 	4916 	0.045257
40.55 	0.043399 	4908 	0.042802
40.57 	0.051738 	4890 	0.051379
40.59 	0.048613 	4937 	0.048019
40.61 	0.043769 	4935 	0.042819
40.63 	0.047465 	4930 	0.046989
40.65 	0.046182 	4937 	0.045114
40.67 	0.043796 	4932 	0.042845
40.69 	0.045979 	4937 	0.045030
40.71 	0.046229 	4932 	0.045754
40.73 	0.041616 	4926 	0.041140
40.75 	0.049888 	4931 	0.048919
40.77 	0.049403 	4939 	0.049166
40.79 	0.049756 	4924 	0.048924
40.81 	0.041287 	4941 	0.040932
40.83 	0.041396 	4928 	0.040802
40.85 	0.047725 	4924 	0.047131
40.87 	0.042817 	4928 	0.042460
40.89 	0.047252 	4931 	0.046302
40.91 	0.047938 	4923 	0.047343
40.93 	0.043373 	4934 	0.042660
40.95 	0.047629 	4913 	0.047152
40.97 	0.043867 	4924 	0.043252
40.99 	0.043258 	4924 	0.042663
41.01 	0.043770 	4912 	0.043413
41.03 	0.040367 	4905 	0.039631
41.05 	0.044976 	4936 	0.044363
41.07 	0.048276 	4930 	0.048038
41.09 	0.042316 	4939 	0.041842
41.11 	0.042553 	4935 	0.041960
41.13 	0.037885 	4936 	0.037153
41.15 	0.045335 	4941 	0.044979
41.17 	0.042764 	4934 	0.042290
41.19 	0.045842 	4930 	0.045248
41.21 	0.046182 	4937 	0.045470
41.23 	0.044138 	4939 	0.043308
41.25 	0.053314 	4933 	0.052364
41.27 	0.048672 	4931 	0.048196
41.29 	0.053166 	4928 	0.052690
41.31 	0.041760 	4933 	0.041265
41.33 	0.042739 	4937 	0.042264
41.35 	0.049008 	4938 	0.048059
41.37 	0.036962 	4924 	0.036843
41.39 	0.045206 	4933 	0.044256
41.41 	0.048315 	4926 	0.047958
41.43 	0.039968 	4929 	0.039492
41.45 	0.042125 	4914 	0.041290
41.47 	0.039992 	4926 	0.038922
41.49 	0.044767 	4892 	0.043689
41.51 	0.045749 	4940 	0.045512
41.53 	0.040251 	4944 	0.039777
41.55 	0.043566 	4935 	0.042835
41.57 	0.038656 	4941 	0.038656
41.59 	0.047233 	4933 	0.046639
41.61 	0.040783 	4953 	0.040310
41.63 	0.045768 	4938 	0.045768
41.65 	0.041996 	4929 	0.041402
41.67 	0.044130 	4940 	0.043537
41.69 	0.046089 	4947 	0.045141
41.71 	0.047831 	4934 	0.047000
41.73 	0.045381 	4936 	0.044906
41.75 	0.041793 	4929 	0.041199
41.77 	0.041692 	4941 	0.041336
41.79 	0.044094 	4944 	0.043146
41.81 	0.040721 	4936 	0.040128
41.83 	0.036932 	4928 	0.036575
41.85 	0.038874 	4939 	0.038756
41.87 	0.042553 	4935 	0.042197
41.89 	0.039732 	4933 	0.039614
41.91 	0.038088 	4936 	0.037375
41.93 	0.045012 	4932 	0.044656
41.95 	0.043196 	4931 	0.042840
41.97 	0.042125 	4914 	0.041648
41.99 	0.044241 	4905 	0.043285
42.01 	0.040672 	4942 	0.040316
42.03 	0.041101 	4939 	0.040746
42.05 	0.041195 	4952 	0.040466
42.07 	0.037270 	4937 	0.036795
42.09 	0.046686 	4948 	0.045620
42.11 	0.034783 	4945 	0.034309
42.13 	0.044894 	4945 	0.044538
42.15 	0.041110 	4938 	0.040003
42.17 	0.041277 	4918 	0.040324
42.19 	0.043195 	4908 	0.042121
42.21 	0.039992 	4901 	0.039633
42.23 	0.040065 	4892 	0.039447
42.25 	0.037226 	4889 	0.036867
42.27 	0.038572 	4874 	0.038211
42.29 	0.041333 	4863 	0.040349
42.31 	0.038517 	4855 	0.037552
42.33 	0.041374 	4834 	0.041131
42.35 	0.040099 	4838 	0.040099
42.37 	0.041822 	4830 	0.040589
42.39 	0.038718 	4804 	0.038596
42.41 	0.039759 	4804 	0.039149
42.43 	0.044240 	4792 	0.043751
42.45 	0.038526 	4776 	0.038035
42.47 	0.038825 	4765 	0.038456
42.49 	0.030640 	4765 	0.030271
42.51 	0.037529 	4743 	0.037405
42.53 	0.040609 	4728 	0.039866
42.55 	0.034410 	4708 	0.033787
42.57 	0.044820 	4730 	0.044201
42.59 	0.040601 	4729 	0.040229
42.61 	0.047366 	4708 	0.046993
42.63 	0.037375 	4709 	0.037375
42.65 	0.040342 	4685 	0.039716
42.67 	0.044620 	4684 	0.043995
42.69 	0.039581 	4674 	0.039205
42.71 	0.041390 	4663 	0.040238
42.73 	0.039440 	4640 	0.039061
42.75 	0.040502 	4617 	0.039741
42.77 	0.038696 	4600 	0.038314
42.79 	0.036883 	4582 	0.036628
42.81 	0.040114 	4562 	0.039419
42.83 	0.042989 	4536 	0.042602
42.85 	0.043507 	4528 	0.042731
42.87 	0.039120 	4499 	0.038729
42.89 	0.039955 	4480 	0.039280
42.91 	0.040171 	4456 	0.039382
42.93 	0.036887 	4446 	0.036887
42.95 	0.042120 	4416 	0.040904
42.97 	0.037491 	4401 	0.037092
42.99 	0.038084 	4385 	0.037283
43.01 	0.037818 	4363 	0.037147
43.03 	0.038772 	4333 	0.038231
43.05 	0.037457 	4325 	0.036757
43.07 	0.036313 	4296 	0.035904
43.09 	0.039458 	4283 	0.039185
43.11 	0.044418 	4255 	0.043868
43.13 	0.040595 	4237 	0.040180
43.15 	0.036377 	4206 	0.036377
43.17 	0.036372 	4179 	0.035812
43.19 	0.038865 	4194 	0.038446
43.21 	0.038111 	4172 	0.037246
43.23 	0.042128 	4154 	0.041564
43.25 	0.036518 	4135 	0.036234
43.27 	0.047747 	4105 	0.047033
43.29 	0.040244 	4100 	0.039815
43.31 	0.044128 	4079 	0.043410
43.33 	0.043940 	4051 	0.043361
43.35 	0.038194 	4032 	0.037904
43.37 	0.046326 	4015 	0.045597
43.39 	0.036982 	4002 	0.036396
43.41 	0.040534 	3972 	0.039649
43.43 	0.039646 	3960 	0.039055
43.45 	0.034816 	3935 	0.034667
43.47 	0.038256 	3921 	0.037807
43.49 	0.038748 	3897 	0.038447
43.51 	0.042301 	3877 	0.041696
43.53 	0.045043 	3863 	0.043981
43.55 	0.038799 	2964 	0.038008
43.57 	0.030831 	2238 	0.030569
43.59 	0.040664 	1746 	0.039993
43.61 	0.037010 	1351 	0.036576
43.63 	0.039960 	1001 	0.039960
43.65 	0.033479 	687 	0.032626
43.67 	0.041833 	502 	0.040666
43.69 	0.029973 	367 	0.029973
43.71 	0.058577 	239 	0.056126
43.73 	0.016667 	120 	0.016667
43.75 	0.000000 	16 	0.000000