File: Example_Data/25SC_s1_0024.004.dat
#F C:\frames\spec\25SC_s1_0024.004
#C title =s:24 frm:4 25SC_s1
#C wavelength =0.15406

#S 1  fr_average C:\frames\spec\25SC_s1_0024.004 C:\win32app\speccom\mask.axs chi 0 180 0 360 0.02
#C 2 theta =0.000000 to 180 deg
#C   q   =0.000000 to 81.568 nm^-1
#C  chi  =0.000000 to 360 deg
#C collumns:
#C  1 position (2theta or chi in degrees)
#C  2 average intensity (sum of all counts in the region divided with number of pixels)
#C  3 Number of pixels in region)
#C  4 error (sum of sqrt(intensity) for all pixels divided by number)
#N 4
#L TTh  Int  N_pix  Err
32.99 	0.049180 	61 	0.039577
33.01 	0.050401 	873 	0.050401
33.03 	0.056075 	1391 	0.055233
33.05 	0.050655 	1757 	0.048988
33.07 	0.063902 	2050 	0.062188
33.09 	0.064764 	2347 	0.064015
33.11 	0.061652 	2579 	0.059835
33.13 	0.060508 	2793 	0.059879
33.15 	0.056686 	2999 	0.055709
33.17 	0.056232 	3201 	0.055500
33.19 	0.059844 	3342 	0.058793
33.21 	0.055588 	3436 	0.054906
33.23 	0.054783 	3523 	0.052899
33.25 	0.063123 	3612 	0.062150
33.27 	0.056198 	3630 	0.054585
33.29 	0.059759 	3648 	0.058795
33.31 	0.059290 	3660 	0.058809
33.33 	0.058329 	3686 	0.056369
33.35 	0.060097 	3694 	0.058168
33.37 	0.051966 	3714 	0.051492
33.39 	0.054706 	3729 	0.054078
33.41 	0.060160 	3740 	0.059691
33.43 	0.055570 	3761 	0.054947
33.45 	0.059899 	3773 	0.058812
33.47 	0.062401 	3798 	0.061013
33.49 	0.059596 	3809 	0.058673
33.51 	0.057405 	3815 	0.056458
33.53 	0.057277 	3841 	0.056362
33.55 	0.061150 	3843 	0.059473
33.57 	0.057261 	3877 	0.056203
33.59 	0.062113 	3880 	0.061057
33.61 	0.061141 	3909 	0.060392
33.63 	0.062516 	3919 	0.061470
33.65 	0.066141 	3931 	0.065247
33.67 	0.056651 	3954 	0.055763
33.69 	0.058184 	3953 	0.056257
33.71 	0.050566 	3975 	0.049977
33.73 	0.061439 	4004 	0.060561
33.75 	0.054514 	3999 	0.053342
33.77 	0.063106 	4025 	0.061941
33.79 	0.063846 	4041 	0.062831
33.81 	0.059683 	4038 	0.058087
33.83 	0.053580 	4050 	0.052423
33.85 	0.058307 	4099 	0.057449
33.87 	0.053758 	4111 	0.052618
33.89 	0.054113 	4121 	0.053260
33.91 	0.057604 	4149 	0.056028
33.93 	0.057336 	4151 	0.056489
33.95 	0.059794 	4181 	0.058253
33.97 	0.061814 	4190 	0.060975
33.99 	0.061905 	4200 	0.060928
34.01 	0.067410 	4213 	0.066020
34.03 	0.058907 	4244 	0.057941
34.05 	0.056679 	4252 	0.055715
34.07 	0.055764 	4268 	0.054940
34.09 	0.056930 	4286 	0.056109
34.11 	0.062297 	4302 	0.061071
34.13 	0.062906 	4308 	0.062226
34.15 	0.056569 	4331 	0.056028
34.17 	0.056322 	4350 	0.055514
34.19 	0.056167 	4362 	0.055764
34.21 	0.066804 	4371 	0.064660
34.23 	0.060551 	4393 	0.059862
34.25 	0.060173 	4404 	0.058555
34.27 	0.060380 	4422 	0.059585
34.29 	0.054791 	4435 	0.053449
34.31 	0.062135 	4458 	0.061478
34.33 	0.058824 	4471 	0.058168
34.35 	0.054193 	4484 	0.052756
34.37 	0.071031 	4491 	0.069966
34.39 	0.058863 	4502 	0.058082
34.41 	0.056341 	4526 	0.055435
34.43 	0.058824 	4539 	0.057533
34.45 	0.067475 	4535 	0.066313
34.47 	0.054443 	4592 	0.053677
34.49 	0.061997 	4597 	0.061232
34.51 	0.065567 	4606 	0.064422
34.53 	0.061167 	4643 	0.060410
34.55 	0.057506 	4643 	0.056244
34.57 	0.058369 	4660 	0.057363
34.59 	0.061604 	4675 	0.060226
34.61 	0.054503 	4697 	0.053755
34.63 	0.062845 	4710 	0.061208
34.65 	0.052743 	4721 	0.051606
34.67 	0.062645 	4741 	0.062027
34.69 	0.055953 	4754 	0.054967
34.71 	0.056232 	4766 	0.054716
34.73 	0.063714 	4787 	0.062491
34.75 	0.061356 	4808 	0.059630
34.77 	0.065587 	4818 	0.064372
34.79 	0.058665 	4824 	0.057309
34.81 	0.063571 	4845 	0.061999
34.83 	0.053065 	4862 	0.052221
34.85 	0.057507 	4869 	0.056665
34.87 	0.057724 	4868 	0.057243
34.89 	0.060016 	4882 	0.059536
34.91 	0.062679 	4882 	0.061479
34.93 	0.056542 	4899 	0.055944
34.95 	0.061350 	4890 	0.060631
34.97 	0.055488 	4902 	0.054293
34.99 	0.055136 	4897 	0.054418
35.01 	0.062767 	4923 	0.062410
35.03 	0.060692 	4943 	0.060218
35.05 	0.065899 	4947 	0.064359
35.07 	0.066397 	4940 	0.065330
35.09 	0.064607 	4953 	0.063779
35.11 	0.061654 	4947 	0.061061
35.13 	0.061315 	4958 	0.060370
35.15 	0.060361 	4937 	0.059293
35.17 	0.051355 	4946 	0.050644
35.19 	0.054634 	4942 	0.054397
35.21 	0.056016 	4945 	0.055542
35.23 	0.055005 	4945 	0.054057
35.25 	0.052802 	4943 	0.052209
35.27 	0.064066 	4948 	0.062745
35.29 	0.056421 	4945 	0.054999
35.31 	0.061220 	4933 	0.060745
35.33 	0.059276 	4943 	0.058328
35.35 	0.057669 	4942 	0.057195
35.37 	0.062361 	4939 	0.061531
35.39 	0.053994 	4945 	0.053165
35.41 	0.064961 	4926 	0.063416
35.43 	0.066288 	4933 	0.065220
35.45 	0.059550 	4937 	0.058482
35.47 	0.058000 	4931 	0.057050
35.49 	0.058452 	4910 	0.057736
35.51 	0.051766 	4926 	0.051290
35.53 	0.061831 	4949 	0.060529
35.55 	0.065925 	4945 	0.064859
35.57 	0.056355 	4933 	0.055761
35.59 	0.063903 	4945 	0.062481
35.61 	0.058074 	4942 	0.056888
35.63 	0.063322 	4943 	0.062611
35.65 	0.058241 	4945 	0.057293
35.67 	0.058074 	4942 	0.056750
35.69 	0.056207 	4946 	0.056089
35.71 	0.056715 	4937 	0.055409
35.73 	0.064425 	4936 	0.062744
35.75 	0.059420 	4931 	0.058588
35.77 	0.062816 	4951 	0.061258
35.79 	0.062449 	4932 	0.061143
35.81 	0.056761 	4933 	0.055692
35.83 	0.059240 	4946 	0.058766
35.85 	0.057751 	4935 	0.056920
35.87 	0.056876 	4923 	0.056043
35.89 	0.057357 	4934 	0.056032
35.91 	0.063122 	4927 	0.062289
35.93 	0.051756 	4927 	0.051280
35.95 	0.056539 	4917 	0.055824
35.97 	0.058225 	4912 	0.057151
35.99 	0.057299 	4939 	0.056193
36.01 	0.059635 	4930 	0.058447
36.03 	0.060490 	4943 	0.059542
36.05 	0.058443 	4945 	0.057377
36.07 	0.054869 	4939 	0.054158
36.09 	0.057692 	4940 	0.056724
36.11 	0.058024 	4929 	0.057192
36.13 	0.056253 	4942 	0.055541
36.15 	0.061348 	4939 	0.059925
36.17 	0.055838 	4925 	0.055124
36.19 	0.052632 	4940 	0.051802
36.21 	0.060864 	4929 	0.059795
36.23 	0.059169 	4935 	0.058576
36.25 	0.058288 	4941 	0.056747
36.27 	0.052183 	4925 	0.051588
36.29 	0.058406 	4931 	0.057080
36.31 	0.063312 	4928 	0.061628
36.33 	0.059599 	4933 	0.058530
36.35 	0.055792 	4929 	0.054841
36.37 	0.055860 	4923 	0.055146
36.39 	0.055883 	4921 	0.055169
36.41 	0.051266 	4896 	0.049572
36.43 	0.064123 	4928 	0.062459
36.45 	0.061663 	4930 	0.060713
36.47 	0.061588 	4936 	0.061114
36.49 	0.063132 	4942 	0.061315
36.51 	0.056558 	4933 	0.055252
36.53 	0.053611 	4943 	0.052407
36.55 	0.057439 	4927 	0.056250
36.57 	0.063640 	4934 	0.061978
36.59 	0.057906 	4939 	0.056483
36.61 	0.061042 	4931 	0.060092
36.63 	0.055770 	4931 	0.054819
36.65 	0.062247 	4932 	0.061059
36.67 	0.057809 	4930 	0.056621
36.69 	0.059647 	4929 	0.058320
36.71 	0.058728 	4921 	0.057538
36.73 	0.063147 	4925 	0.061800
36.75 	0.055016 	4944 	0.054187
36.77 	0.059158 	4919 	0.058444
36.79 	0.060963 	4921 	0.059892
36.81 	0.056550 	4916 	0.055954
36.83 	0.054527 	4915 	0.053812
36.85 	0.050020 	4898 	0.049303
36.87 	0.055421 	4944 	0.054473
36.89 	0.057160 	4916 	0.056684
36.91 	0.054038 	4941 	0.053682
36.93 	0.055984 	4930 	0.054320
36.95 	0.052098 	4933 	0.050673
36.97 	0.062627 	4934 	0.061321
36.99 	0.058967 	4935 	0.057661
37.01 	0.051895 	4933 	0.050945
37.03 	0.055240 	4924 	0.054169
37.05 	0.057845 	4927 	0.056537
37.07 	0.059372 	4935 	0.058066
37.09 	0.060471 	4928 	0.058668
37.11 	0.058561 	4935 	0.057018
37.13 	0.053615 	4924 	0.053496
37.15 	0.056631 	4909 	0.056153
37.17 	0.049250 	4934 	0.048656
37.19 	0.056244 	4925 	0.055768
37.21 	0.053081 	4917 	0.052605
37.23 	0.054900 	4918 	0.053709
37.25 	0.055386 	4911 	0.054432
37.27 	0.054352 	4894 	0.053395
37.29 	0.060446 	4930 	0.059615
37.31 	0.055522 	4935 	0.054553
37.33 	0.060280 	4927 	0.059805
37.35 	0.044755 	4938 	0.044142
37.37 	0.055815 	4927 	0.054864
37.39 	0.055161 	4931 	0.054092
37.41 	0.055364 	4931 	0.054295
37.43 	0.055353 	4932 	0.054759
37.45 	0.052193 	4924 	0.051717
37.47 	0.055184 	4929 	0.054094
37.49 	0.053016 	4923 	0.052184
37.51 	0.055950 	4933 	0.054881
37.53 	0.054686 	4919 	0.054090
37.55 	0.057404 	4930 	0.056691
37.57 	0.055431 	4925 	0.054718
37.59 	0.054934 	4915 	0.054199
37.61 	0.054856 	4922 	0.054142
37.63 	0.056109 	4919 	0.055156
37.65 	0.053274 	4918 	0.052559
37.67 	0.060359 	4904 	0.059523
37.69 	0.063495 	4898 	0.062658
37.71 	0.053155 	4929 	0.052679
37.73 	0.050923 	4929 	0.050567
37.75 	0.051619 	4940 	0.050908
37.77 	0.053252 	4920 	0.052538
37.79 	0.052333 	4930 	0.051620
37.81 	0.056355 	4933 	0.055623
37.83 	0.054268 	4920 	0.053435
37.85 	0.051605 	4922 	0.050772
37.87 	0.048390 	4939 	0.047797
37.89 	0.060711 	4925 	0.059878
37.91 	0.052535 	4930 	0.051941
37.93 	0.058548 	4919 	0.057715
37.95 	0.049177 	4921 	0.048582
37.97 	0.058430 	4929 	0.057360
37.99 	0.055171 	4912 	0.054336
38.01 	0.051745 	4928 	0.050913
38.03 	0.060705 	4909 	0.059154
38.05 	0.053401 	4925 	0.052311
38.07 	0.052557 	4909 	0.051363
38.09 	0.060066 	4878 	0.059225
38.11 	0.052685 	4935 	0.051735
38.13 	0.062994 	4937 	0.061689
38.15 	0.057747 	4918 	0.056080
38.17 	0.059432 	4930 	0.057987
38.19 	0.061258 	4930 	0.060069
38.21 	0.065610 	4923 	0.064064
38.23 	0.064196 	4938 	0.063247
38.25 	0.063860 	4917 	0.063264
38.27 	0.062272 	4930 	0.060489
38.29 	0.060114 	4924 	0.059043
38.31 	0.063933 	4927 	0.062249
38.33 	0.069659 	4924 	0.068112
38.35 	0.062297 	4928 	0.061346
38.37 	0.066206 	4924 	0.064898
38.39 	0.066001 	4909 	0.064808
38.41 	0.065610 	4923 	0.064183
38.43 	0.067331 	4916 	0.066735
38.45 	0.068727 	4918 	0.067536
38.47 	0.062971 	4907 	0.061997
38.49 	0.055567 	4877 	0.054366
38.51 	0.069546 	4932 	0.068477
38.53 	0.067559 	4929 	0.066371
38.55 	0.065032 	4936 	0.064083
38.57 	0.067235 	4923 	0.066403
38.59 	0.056864 	4924 	0.055497
38.61 	0.050648 	4936 	0.049442
38.63 	0.061738 	4924 	0.060787
38.65 	0.059374 	4918 	0.058064
38.67 	0.061171 	4937 	0.060321
38.69 	0.057497 	4922 	0.056426
38.71 	0.053006 	4924 	0.052530
38.73 	0.057544 	4918 	0.056433
38.75 	0.062310 	4927 	0.061240
38.77 	0.059313 	4923 	0.058718
38.79 	0.056952 	4934 	0.056596
38.81 	0.059446 	4912 	0.058492
38.83 	0.051840 	4919 	0.051244
38.85 	0.057614 	4912 	0.056898
38.87 	0.049888 	4911 	0.049053
38.89 	0.052890 	4897 	0.051813
38.91 	0.050581 	4903 	0.050342
38.93 	0.054678 	4938 	0.053848
38.95 	0.051444 	4918 	0.050610
38.97 	0.052119 	4931 	0.051406
38.99 	0.048005 	4937 	0.047412
39.01 	0.049004 	4918 	0.048885
39.03 	0.053304 	4934 	0.052591
39.05 	0.049543 	4925 	0.049067
39.07 	0.056458 	4924 	0.055863
39.09 	0.056673 	4923 	0.055721
39.11 	0.052930 	4931 	0.052336
39.13 	0.051188 	4923 	0.050593
39.15 	0.061851 	4915 	0.061256
39.17 	0.050030 	4937 	0.049674
39.19 	0.052471 	4917 	0.051399
39.21 	0.049898 	4910 	0.049302
39.23 	0.055431 	4925 	0.054004
39.25 	0.061560 	4922 	0.060727
39.27 	0.054990 	4910 	0.054035
39.29 	0.053050 	4901 	0.052692
39.31 	0.047707 	4884 	0.046847
39.33 	0.053944 	4931 	0.052875
39.35 	0.049848 	4935 	0.049017
39.37 	0.057212 	4929 	0.056143
39.39 	0.054778 	4929 	0.054065
39.41 	0.050497 	4931 	0.049546
39.43 	0.054531 	4933 	0.053442
39.45 	0.052589 	4925 	0.052113
39.47 	0.049970 	4923 	0.049375
39.49 	0.052098 	4933 	0.051267
39.51 	0.048741 	4924 	0.047670
39.53 	0.059720 	4923 	0.059006
39.55 	0.052856 	4919 	0.052023
39.57 	0.053314 	4933 	0.052345
39.59 	0.054357 	4912 	0.053164
39.61 	0.053829 	4923 	0.052877
39.63 	0.057294 	4922 	0.056937
39.65 	0.057247 	4926 	0.056157
39.67 	0.063709 	4913 	0.063112
39.69 	0.055330 	4916 	0.054138
39.71 	0.059653 	4895 	0.058695
39.73 	0.051752 	4908 	0.050797
39.75 	0.055195 	4928 	0.054363
39.77 	0.057548 	4935 	0.056599
39.79 	0.057856 	4926 	0.056548
39.81 	0.060077 	4927 	0.058769
39.83 	0.052898 	4934 	0.052542
39.85 	0.052162 	4927 	0.051210
39.87 	0.056041 	4925 	0.055208
39.89 	0.057154 	4934 	0.056442
39.91 	0.052824 	4922 	0.052110
39.93 	0.053271 	4937 	0.052085
39.95 	0.055341 	4915 	0.054487
39.97 	0.056209 	4928 	0.055358
39.99 	0.060827 	4932 	0.059164
40.01 	0.060187 	4918 	0.059353
40.03 	0.057224 	4928 	0.056273
40.05 	0.051251 	4917 	0.050655
40.07 	0.050173 	4923 	0.048963
40.09 	0.053499 	4916 	0.053260
40.11 	0.058177 	4916 	0.057343
40.13 	0.055147 	4896 	0.053951
40.15 	0.057399 	4913 	0.056564
40.17 	0.051948 	4928 	0.050997
40.19 	0.056807 	4929 	0.055618
40.21 	0.051672 	4935 	0.050703
40.23 	0.049878 	4932 	0.048809
40.25 	0.048984 	4920 	0.048269
40.27 	0.047397 	4937 	0.047160
40.29 	0.050538 	4927 	0.049924
40.31 	0.052845 	4939 	0.051421
40.33 	0.051500 	4932 	0.050531
40.35 	0.047571 	4919 	0.047075
40.37 	0.051329 	4929 	0.050735
40.39 	0.061042 	4931 	0.059478
40.41 	0.050355 	4925 	0.049999
40.43 	0.051199 	4922 	0.049533
40.45 	0.051287 	4933 	0.051050
40.47 	0.046360 	4918 	0.045646
40.49 	0.056435 	4926 	0.055445
40.51 	0.053434 	4922 	0.052838
40.53 	0.051465 	4916 	0.051107
40.55 	0.055623 	4908 	0.054907
40.57 	0.059918 	4890 	0.059080
40.59 	0.049220 	4937 	0.048627
40.61 	0.053495 	4935 	0.053139
40.63 	0.050507 	4930 	0.050032
40.65 	0.054487 	4937 	0.053656
40.67 	0.048054 	4932 	0.047222
40.69 	0.050435 	4937 	0.049823
40.71 	0.049067 	4932 	0.047880
40.73 	0.054405 	4926 	0.053454
40.75 	0.047049 	4931 	0.046436
40.77 	0.045758 	4939 	0.045047
40.79 	0.050975 	4924 	0.050261
40.81 	0.048776 	4941 	0.048064
40.83 	0.054586 	4928 	0.054229
40.85 	0.048741 	4924 	0.048503
40.87 	0.057427 	4928 	0.056357
40.89 	0.046846 	4931 	0.046371
40.91 	0.046719 	4923 	0.045887
40.93 	0.054317 	4934 	0.053248
40.95 	0.058009 	4913 	0.057413
40.97 	0.052193 	4924 	0.051103
40.99 	0.045288 	4924 	0.045050
41.01 	0.048453 	4912 	0.047499
41.03 	0.045668 	4905 	0.044951
41.05 	0.054498 	4936 	0.053311
41.07 	0.052738 	4930 	0.052263
41.09 	0.054869 	4939 	0.054395
41.11 	0.054103 	4935 	0.053391
41.13 	0.058955 	4936 	0.058005
41.15 	0.052823 	4941 	0.052468
41.17 	0.049047 	4934 	0.048454
41.19 	0.048276 	4930 	0.048038
41.21 	0.053069 	4937 	0.052119
41.23 	0.049200 	4939 	0.048133
41.25 	0.048247 	4933 	0.047752
41.27 	0.051714 	4931 	0.051357
41.29 	0.048295 	4928 	0.047701
41.31 	0.052909 	4933 	0.052296
41.33 	0.049625 	4937 	0.049032
41.35 	0.054273 	4938 	0.053443
41.37 	0.046304 	4924 	0.045471
41.39 	0.048652 	4933 	0.048296
41.41 	0.053593 	4926 	0.052266
41.43 	0.049503 	4929 	0.048790
41.45 	0.047416 	4914 	0.046700
41.47 	0.052984 	4926 	0.052390
41.49 	0.047220 	4892 	0.046861
41.51 	0.053846 	4940 	0.053115
41.53 	0.052791 	4944 	0.051962
41.55 	0.044782 	4935 	0.044070
41.57 	0.052216 	4941 	0.051386
41.59 	0.049057 	4933 	0.048464
41.61 	0.051686 	4953 	0.051331
41.63 	0.048400 	4938 	0.047451
41.65 	0.049097 	4929 	0.048384
41.67 	0.049393 	4940 	0.048325
41.69 	0.052355 	4947 	0.051052
41.71 	0.050263 	4934 	0.049789
41.73 	0.050446 	4936 	0.049496
41.75 	0.049300 	4929 	0.048944
41.77 	0.051811 	4941 	0.051219
41.79 	0.047532 	4944 	0.047058
41.81 	0.049028 	4936 	0.048672
41.83 	0.050122 	4928 	0.049270
41.85 	0.048998 	4939 	0.048523
41.87 	0.047619 	4935 	0.047144
41.89 	0.053720 	4933 	0.052651
41.91 	0.047609 	4936 	0.047016
41.93 	0.052717 	4932 	0.051985
41.95 	0.046644 	4931 	0.046287
41.97 	0.050875 	4914 	0.050041
41.99 	0.051784 	4905 	0.050809
42.01 	0.045528 	4942 	0.044817
42.03 	0.048795 	4939 	0.047965
42.05 	0.047658 	4952 	0.047184
42.07 	0.046182 	4937 	0.045826
42.09 	0.052142 	4948 	0.051432
42.11 	0.044287 	4945 	0.043458
42.13 	0.046916 	4945 	0.046087
42.15 	0.048805 	4938 	0.048568
42.17 	0.048597 	4918 	0.047763
42.19 	0.051752 	4908 	0.051155
42.21 	0.050602 	4901 	0.050243
42.23 	0.046607 	4892 	0.045529
42.25 	0.047863 	4889 	0.047144
42.27 	0.048215 	4874 	0.047133
42.29 	0.050997 	4863 	0.050154
42.31 	0.048816 	4855 	0.048454
42.33 	0.045718 	4834 	0.045354
42.35 	0.045887 	4838 	0.045281
42.37 	0.047619 	4830 	0.046770
42.39 	0.045795 	4804 	0.044942
42.41 	0.049958 	4804 	0.048617
42.43 	0.049040 	4792 	0.048429
42.45 	0.043760 	4776 	0.043393
42.47 	0.046380 	4765 	0.046257
42.49 	0.041133 	4765 	0.040396
42.51 	0.039637 	4743 	0.039267
42.53 	0.045685 	4728 	0.044942
42.55 	0.046517 	4708 	0.045770
42.57 	0.045877 	4730 	0.044990
42.59 	0.048002 	4729 	0.047382
42.61 	0.047791 	4708 	0.047542
42.63 	0.049904 	4709 	0.049407
42.65 	0.048453 	4685 	0.047202
42.67 	0.046755 	4684 	0.046255
42.69 	0.041720 	4674 	0.041094
42.71 	0.045679 	4663 	0.044925
42.73 	0.042241 	4640 	0.041358
42.75 	0.049383 	4617 	0.048093
42.77 	0.048913 	4600 	0.048404
42.79 	0.044740 	4582 	0.044101
42.81 	0.044717 	4562 	0.044460
42.83 	0.053792 	4536 	0.052479
42.85 	0.045274 	4528 	0.044239
42.87 	0.043121 	4499 	0.042058
42.89 	0.046652 	4480 	0.046129
42.91 	0.049147 	4456 	0.048884
42.93 	0.051057 	4446 	0.050398
42.95 	0.046875 	4416 	0.046610
42.97 	0.049989 	4401 	0.049589
42.99 	0.048575 	4385 	0.047506
43.01 	0.048590 	4363 	0.047919
43.03 	0.045234 	4333 	0.044423
43.05 	0.048324 	4325 	0.047376
43.07 	0.047020 	4296 	0.045657
43.09 	0.046463 	4283 	0.045346
43.11 	0.041363 	4255 	0.040399
43.13 	0.048619 	4237 	0.048066
43.15 	0.042558 	4206 	0.042001
43.17 	0.045465 	4179 	0.044905
43.19 	0.043872 	4194 	0.043174
43.21 	0.046500 	4172 	0.045518
43.23 	0.047665 	4154 	0.047383
43.25 	0.045466 	4135 	0.045324
43.27 	0.049452 	4105 	0.048596
43.29 	0.045122 	4100 	0.044527
43.31 	0.050993 	4079 	0.049533
43.33 	0.049124 	4051 	0.048545
43.35 	0.050843 	4032 	0.050407
43.37 	0.055293 	4015 	0.054125
43.39 	0.049725 	4002 	0.049432
43.41 	0.049094 	3972 	0.048651
43.43 	0.047727 	3960 	0.046396
43.45 	0.047014 	3935 	0.046121
43.47 	0.051773 	3921 	0.050577
43.49 	0.044650 	3897 	0.044048
43.51 	0.050297 	3877 	0.049692
43.53 	0.054362 	3863 	0.053452
43.55 	0.047571 	2964 	0.046978
43.57 	0.048704 	2238 	0.047919
43.59 	0.048110 	1746 	0.048110
43.61 	0.044412 	1351 	0.044412
43.63 	0.047952 	1001 	0.046782
43.65 	0.052402 	687 	0.051549
43.67 	0.045817 	502 	0.045817
43.69 	0.038147 	367 	0.036551
43.71 	0.041841 	239 	0.041841
43.73 	0.050000 	120 	0.050000
43.75 	0.062500 	16 	0.062500