File: Example_Data/25SC_s1_0004.000.dat
#F C:\frames\spec\25SC_s1_0004.000
#C title =s:4 frm:0 25SC_s1
#C wavelength =0.15406

#S 1  fr_average C:\frames\spec\25SC_s1_0004.000 C:\win32app\speccom\mask.axs chi 0 180 0 360 0.02
#C 2 theta =0.000000 to 180 deg
#C   q   =0.000000 to 81.568 nm^-1
#C  chi  =0.000000 to 360 deg
#C collumns:
#C  1 position (2theta or chi in degrees)
#C  2 average intensity (sum of all counts in the region divided with number of pixels)
#C  3 Number of pixels in region)
#C  4 error (sum of sqrt(intensity) for all pixels divided by number)
#N 4
#L TTh  Int  N_pix  Err
32.99 	0.114754 	61 	0.114754
33.01 	0.056128 	873 	0.054115
33.03 	0.061107 	1391 	0.061107
33.05 	0.067160 	1757 	0.065493
33.07 	0.054146 	2050 	0.052718
33.09 	0.059651 	2347 	0.058153
33.11 	0.067080 	2579 	0.065263
33.13 	0.061941 	2793 	0.060892
33.15 	0.063021 	2999 	0.061849
33.17 	0.064042 	3201 	0.063310
33.19 	0.059246 	3342 	0.058194
33.21 	0.063155 	3436 	0.061791
33.23 	0.060744 	3523 	0.059912
33.25 	0.062292 	3612 	0.061481
33.27 	0.061157 	3630 	0.059866
33.29 	0.065241 	3648 	0.064278
33.31 	0.061749 	3660 	0.060628
33.33 	0.056430 	3686 	0.056112
33.35 	0.059285 	3694 	0.058149
33.37 	0.063274 	3714 	0.061513
33.39 	0.062483 	3729 	0.061541
33.41 	0.058289 	3740 	0.057349
33.43 	0.062749 	3761 	0.061322
33.45 	0.064670 	3773 	0.063738
33.47 	0.058189 	3798 	0.057417
33.49 	0.062484 	3809 	0.060946
33.51 	0.057929 	3815 	0.056701
33.53 	0.061182 	3841 	0.060724
33.55 	0.058808 	3843 	0.057894
33.57 	0.060356 	3877 	0.059903
33.59 	0.061340 	3880 	0.060132
33.61 	0.061653 	3909 	0.059704
33.63 	0.066343 	3919 	0.064849
33.65 	0.063088 	3931 	0.062194
33.67 	0.063733 	3954 	0.062844
33.69 	0.057172 	3953 	0.056727
33.71 	0.062642 	3975 	0.061463
33.73 	0.060939 	4004 	0.059183
33.75 	0.048512 	3999 	0.048073
33.77 	0.059130 	4025 	0.057651
33.79 	0.059639 	4041 	0.058624
33.81 	0.069341 	4038 	0.068761
33.83 	0.060741 	4050 	0.060018
33.85 	0.057575 	4099 	0.056575
33.87 	0.057407 	4111 	0.055982
33.89 	0.056054 	4121 	0.055628
33.91 	0.053266 	4149 	0.052701
33.93 	0.060467 	4151 	0.059197
33.95 	0.064099 	4181 	0.062698
33.97 	0.056325 	4190 	0.056045
33.99 	0.060000 	4200 	0.059303
34.01 	0.058153 	4213 	0.057319
34.03 	0.059849 	4244 	0.059159
34.05 	0.062324 	4252 	0.061497
34.07 	0.055295 	4268 	0.054472
34.09 	0.065562 	4286 	0.065016
34.11 	0.055323 	4302 	0.054642
34.13 	0.061746 	4308 	0.060771
34.15 	0.061418 	4331 	0.060336
34.17 	0.060000 	4350 	0.059035
34.19 	0.056396 	4362 	0.055053
34.21 	0.058797 	4371 	0.058127
34.23 	0.056226 	4393 	0.054892
34.25 	0.056085 	4404 	0.055287
34.27 	0.058345 	4422 	0.057815
34.29 	0.054791 	4435 	0.053339
34.31 	0.057873 	4458 	0.056822
34.33 	0.053456 	4471 	0.052801
34.35 	0.055085 	4484 	0.053909
34.37 	0.058116 	4491 	0.057334
34.39 	0.058863 	4502 	0.057952
34.41 	0.048829 	4526 	0.047794
34.43 	0.064552 	4539 	0.062982
34.45 	0.060198 	4535 	0.059531
34.47 	0.064024 	4592 	0.063004
34.49 	0.048510 	4597 	0.048000
34.51 	0.056665 	4606 	0.055902
34.53 	0.058152 	4643 	0.057647
34.55 	0.060952 	4643 	0.060069
34.57 	0.056223 	4660 	0.055218
34.59 	0.055615 	4675 	0.054362
34.61 	0.057058 	4697 	0.056039
34.63 	0.060297 	4710 	0.058784
34.65 	0.055073 	4721 	0.053564
34.67 	0.057583 	4741 	0.056327
34.69 	0.055322 	4754 	0.053843
34.71 	0.057281 	4766 	0.055909
34.73 	0.056612 	4787 	0.055633
34.75 	0.062396 	4808 	0.060670
34.77 	0.057700 	4818 	0.056849
34.79 	0.055141 	4824 	0.054291
34.81 	0.060681 	4845 	0.059694
34.83 	0.060880 	4862 	0.059555
34.85 	0.054837 	4869 	0.053754
34.87 	0.057108 	4868 	0.056025
34.89 	0.052642 	4882 	0.051802
34.91 	0.057149 	4882 	0.056069
34.93 	0.060012 	4899 	0.059175
34.95 	0.057260 	4890 	0.056062
34.97 	0.060588 	4902 	0.059273
34.99 	0.056157 	4897 	0.055319
35.01 	0.055860 	4923 	0.055008
35.03 	0.060490 	4943 	0.059660
35.05 	0.065696 	4947 	0.064730
35.07 	0.057085 	4940 	0.056018
35.09 	0.056935 	4953 	0.055516
35.11 	0.054174 	4947 	0.053345
35.13 	0.057483 	4958 	0.056656
35.15 	0.057727 	4937 	0.056778
35.17 	0.059846 	4946 	0.058899
35.19 	0.057871 	4942 	0.056904
35.21 	0.059050 	4945 	0.057746
35.23 	0.056016 	4945 	0.055049
35.25 	0.059478 	4943 	0.058411
35.27 	0.057599 	4948 	0.055804
35.29 	0.061678 	4945 	0.060968
35.31 	0.056152 	4933 	0.055321
35.33 	0.058669 	4943 	0.057958
35.35 	0.055443 	4942 	0.054732
35.37 	0.063171 	4939 	0.061985
35.39 	0.053994 	4945 	0.053402
35.41 	0.065570 	4926 	0.064143
35.43 	0.055139 	4933 	0.054308
35.45 	0.055702 	4937 	0.054634
35.47 	0.062056 	4931 	0.060987
35.49 	0.058045 	4910 	0.057090
35.51 	0.056841 	4926 	0.056128
35.53 	0.051728 	4949 	0.051136
35.55 	0.057027 	4945 	0.056317
35.57 	0.052504 	4933 	0.051672
35.59 	0.063903 	4945 	0.062481
35.61 	0.053824 	4942 	0.052639
35.63 	0.055027 	4943 	0.054435
35.65 	0.057634 	4945 	0.056805
35.67 	0.058883 	4942 	0.058053
35.69 	0.063081 	4946 	0.061423
35.71 	0.061373 	4937 	0.059317
35.73 	0.060981 	4936 	0.059794
35.75 	0.060231 	4931 	0.059518
35.77 	0.056958 	4951 	0.056130
35.79 	0.062855 	4932 	0.061054
35.81 	0.059396 	4933 	0.058802
35.83 	0.060049 	4946 	0.059101
35.85 	0.054914 	4935 	0.054202
35.87 	0.055454 	4923 	0.054145
35.89 	0.064653 	4934 	0.063209
35.91 	0.059874 	4927 	0.058923
35.93 	0.059062 	4927 	0.057754
35.95 	0.055725 	4917 	0.054772
35.97 	0.056393 	4912 	0.055200
35.99 	0.064588 	4939 	0.063283
36.01 	0.064503 	4930 	0.064147
36.03 	0.058467 	4943 	0.057755
36.05 	0.054601 	4945 	0.053041
36.07 	0.067827 	4939 	0.066286
36.09 	0.060526 	4940 	0.059222
36.11 	0.064719 	4929 	0.063293
36.13 	0.060704 	4942 	0.059282
36.15 	0.065195 	4939 	0.064247
36.17 	0.064162 	4925 	0.062616
36.19 	0.061741 	4940 	0.060792
36.21 	0.061270 	4929 	0.059963
36.23 	0.064843 	4935 	0.063993
36.25 	0.064967 	4941 	0.063900
36.27 	0.059898 	4925 	0.058352
36.29 	0.065504 	4931 	0.064197
36.31 	0.053369 	4928 	0.052299
36.33 	0.066086 	4933 	0.064898
36.35 	0.059038 	4929 	0.058088
36.37 	0.061751 	4923 	0.060066
36.39 	0.063199 	4921 	0.062246
36.41 	0.064134 	4896 	0.063396
36.43 	0.060877 	4928 	0.060163
36.45 	0.062677 	4930 	0.061014
36.47 	0.066045 	4936 	0.064740
36.49 	0.059490 	4942 	0.058167
36.51 	0.062437 	4933 	0.060655
36.53 	0.062917 	4943 	0.061969
36.55 	0.063528 	4927 	0.063052
36.57 	0.066275 	4934 	0.064969
36.59 	0.056084 	4939 	0.055610
36.61 	0.060434 	4931 	0.060078
36.63 	0.063679 	4931 	0.063085
36.65 	0.061638 	4932 	0.060807
36.67 	0.065517 	4930 	0.064567
36.69 	0.061270 	4929 	0.060676
36.71 	0.059134 	4921 	0.057944
36.73 	0.061929 	4925 	0.060383
36.75 	0.064320 	4944 	0.063136
36.77 	0.060175 	4919 	0.059222
36.79 	0.061979 	4921 	0.061027
36.81 	0.059194 	4916 	0.058360
36.83 	0.051679 	4915 	0.050129
36.85 	0.061454 	4898 	0.060138
36.87 	0.058657 	4944 	0.057828
36.89 	0.062653 	4916 	0.060984
36.91 	0.060312 	4941 	0.059008
36.93 	0.065720 	4930 	0.064294
36.95 	0.061018 	4933 	0.060068
36.97 	0.057762 	4934 	0.056813
36.99 	0.061803 	4935 	0.060973
37.01 	0.060409 	4933 	0.059460
37.03 	0.057880 	4924 	0.056571
37.05 	0.063933 	4927 	0.062487
37.07 	0.060790 	4935 	0.059010
37.09 	0.060065 	4928 	0.059352
37.11 	0.055522 	4935 	0.054810
37.13 	0.056661 	4924 	0.056185
37.15 	0.062742 	4909 	0.061887
37.17 	0.061411 	4934 	0.060105
37.19 	0.056853 	4925 	0.056139
37.21 	0.057962 	4917 	0.057247
37.23 	0.063847 	4918 	0.063013
37.25 	0.051313 	4911 	0.050478
37.27 	0.059869 	4894 	0.058912
37.29 	0.063083 	4930 	0.061994
37.31 	0.059980 	4935 	0.057962
37.33 	0.055612 	4927 	0.054166
37.35 	0.061766 	4938 	0.059749
37.37 	0.064542 	4927 	0.062402
37.39 	0.058406 	4931 	0.057080
37.41 	0.058203 	4931 	0.057490
37.43 	0.060219 	4932 	0.059625
37.45 	0.060520 	4924 	0.059925
37.47 	0.063502 	4929 	0.062432
37.49 	0.055251 	4923 	0.054061
37.51 	0.062437 	4933 	0.062080
37.53 	0.060785 	4919 	0.058998
37.55 	0.051116 	4930 	0.050640
37.57 	0.056650 	4925 	0.056174
37.59 	0.058189 	4915 	0.057355
37.61 	0.061764 	4922 	0.060692
37.63 	0.054279 	4919 	0.052969
37.65 	0.058560 	4918 	0.057727
37.67 	0.057708 	4904 	0.056872
37.69 	0.051245 	4898 	0.050169
37.71 	0.055184 	4929 	0.053757
37.73 	0.052343 	4929 	0.051511
37.75 	0.055061 	4940 	0.054349
37.77 	0.063415 	4920 	0.061966
37.79 	0.064503 	4930 	0.063552
37.81 	0.049057 	4933 	0.048345
37.83 	0.058130 	4920 	0.057297
37.85 	0.057903 	4922 	0.057308
37.87 	0.062361 	4939 	0.061412
37.89 	0.056447 	4925 	0.055614
37.91 	0.053144 	4930 	0.052788
37.93 	0.057939 	4919 	0.056986
37.95 	0.055070 	4921 	0.054713
37.97 	0.052546 	4929 	0.051952
37.99 	0.062296 	4912 	0.061819
38.01 	0.058442 	4928 	0.057847
38.03 	0.053575 	4909 	0.052382
38.05 	0.056041 	4925 	0.055208
38.07 	0.058668 	4909 	0.057952
38.09 	0.059451 	4878 	0.058010
38.11 	0.056738 	4935 	0.055551
38.13 	0.054892 	4937 	0.053705
38.15 	0.063644 	4918 	0.062691
38.17 	0.063489 	4930 	0.062657
38.19 	0.057606 	4930 	0.057012
38.21 	0.062767 	4923 	0.062172
38.23 	0.061563 	4938 	0.060970
38.25 	0.059996 	4917 	0.059281
38.27 	0.063286 	4930 	0.062098
38.29 	0.059504 	4924 	0.058176
38.31 	0.060889 	4927 	0.060057
38.33 	0.065191 	4924 	0.064358
38.35 	0.057630 	4928 	0.057036
38.37 	0.068846 	4924 	0.067538
38.39 	0.074557 	4909 	0.072767
38.41 	0.077392 	4923 	0.076083
38.43 	0.077705 	4916 	0.076156
38.45 	0.078894 	4918 	0.076849
38.47 	0.076829 	4907 	0.075158
38.49 	0.087349 	4877 	0.084807
38.51 	0.085564 	4932 	0.083644
38.53 	0.091702 	4929 	0.089563
38.55 	0.079822 	4936 	0.077923
38.57 	0.084501 	4923 	0.082954
38.59 	0.077782 	4924 	0.076236
38.61 	0.081037 	4936 	0.078782
38.63 	0.083672 	4924 	0.081035
38.65 	0.083977 	4918 	0.081714
38.67 	0.082439 	4937 	0.080422
38.69 	0.069484 	4922 	0.067917
38.71 	0.067425 	4924 	0.065997
38.73 	0.071980 	4918 	0.069956
38.75 	0.061092 	4927 	0.059883
38.77 	0.061345 	4923 	0.060274
38.79 	0.063640 	4934 	0.061958
38.81 	0.059039 	4912 	0.058324
38.83 	0.058548 	4919 	0.057596
38.85 	0.055985 	4912 	0.054654
38.87 	0.054368 	4911 	0.053771
38.89 	0.051052 	4897 	0.050214
38.91 	0.049969 	4903 	0.049611
38.93 	0.049818 	4938 	0.049106
38.95 	0.054087 	4918 	0.053491
38.97 	0.048469 	4931 	0.047756
38.99 	0.050435 	4937 	0.050080
39.01 	0.049817 	4918 	0.048983
39.03 	0.049453 	4934 	0.049215
39.05 	0.051168 	4925 	0.050097
39.07 	0.053615 	4924 	0.052901
39.09 	0.047126 	4923 	0.046888
39.11 	0.047252 	4931 	0.046401
39.13 	0.046110 	4923 	0.045753
39.15 	0.045371 	4915 	0.044775
39.17 	0.049018 	4937 	0.048187
39.19 	0.051454 	4917 	0.050620
39.21 	0.045010 	4910 	0.044533
39.23 	0.043452 	4925 	0.042738
39.25 	0.049167 	4922 	0.048215
39.27 	0.049084 	4910 	0.048368
39.29 	0.044685 	4901 	0.044067
39.31 	0.047297 	4884 	0.045978
39.33 	0.042993 	4931 	0.042637
39.35 	0.044174 	4935 	0.043343
39.37 	0.043822 	4929 	0.043347
39.39 	0.048083 	4929 	0.047132
39.41 	0.048874 	4931 	0.048280
39.43 	0.042570 	4933 	0.041977
39.45 	0.045076 	4925 	0.044481
39.47 	0.046313 	4923 	0.045718
39.49 	0.044395 	4933 	0.043920
39.51 	0.045491 	4924 	0.045016
39.53 	0.048751 	4923 	0.048156
39.55 	0.043708 	4919 	0.043470
39.57 	0.046017 	4933 	0.044948
39.59 	0.044178 	4912 	0.043343
39.61 	0.043266 	4923 	0.043147
39.63 	0.045713 	4922 	0.045356
39.65 	0.047706 	4926 	0.047230
39.67 	0.047629 	4913 	0.046675
39.69 	0.042514 	4916 	0.041918
39.71 	0.044740 	4895 	0.043902
39.73 	0.045844 	4908 	0.045247
39.75 	0.046672 	4928 	0.045721
39.77 	0.048227 	4935 	0.047515
39.79 	0.043646 	4926 	0.043289
39.81 	0.049523 	4927 	0.048929
39.83 	0.047426 	4934 	0.046476
39.85 	0.043840 	4927 	0.043364
39.87 	0.043249 	4925 	0.042654
39.89 	0.038508 	4934 	0.038152
39.91 	0.047338 	4922 	0.046743
39.93 	0.039498 	4937 	0.039023
39.95 	0.046999 	4915 	0.046999
39.97 	0.040990 	4928 	0.040515
39.99 	0.039740 	4932 	0.039384
40.01 	0.040057 	4918 	0.039819
40.03 	0.042005 	4928 	0.041411
40.05 	0.039862 	4917 	0.039504
40.07 	0.045298 	4923 	0.044822
40.09 	0.045566 	4916 	0.044612
40.11 	0.045566 	4916 	0.044970
40.13 	0.052288 	4896 	0.051570
40.15 	0.045390 	4913 	0.044913
40.17 	0.039976 	4928 	0.039262
40.19 	0.045445 	4929 	0.044732
40.21 	0.047214 	4935 	0.046739
40.23 	0.050487 	4932 	0.049873
40.25 	0.047154 	4920 	0.046202
40.27 	0.045372 	4937 	0.044660
40.29 	0.042216 	4927 	0.041860
40.31 	0.044948 	4939 	0.043881
40.33 	0.044201 	4932 	0.044082
40.35 	0.040455 	4919 	0.040217
40.37 	0.040779 	4929 	0.040779
40.39 	0.045630 	4931 	0.045036
40.41 	0.042234 	4925 	0.041877
40.43 	0.041853 	4922 	0.041615
40.45 	0.041760 	4933 	0.041047
40.47 	0.041074 	4918 	0.040954
40.49 	0.045067 	4926 	0.044948
40.51 	0.050792 	4922 	0.050078
40.53 	0.043328 	4916 	0.042375
40.55 	0.042991 	4908 	0.042394
40.57 	0.044172 	4890 	0.043573
40.59 	0.043751 	4937 	0.043158
40.61 	0.042351 	4935 	0.041757
40.63 	0.046045 	4930 	0.045451
40.65 	0.046384 	4937 	0.045791
40.67 	0.038321 	4932 	0.037827
40.69 	0.043346 	4937 	0.043109
40.71 	0.043593 	4932 	0.043118
40.73 	0.038977 	4926 	0.038144
40.75 	0.042385 	4931 	0.042385
40.77 	0.041506 	4939 	0.040775
40.79 	0.044070 	4924 	0.043356
40.81 	0.042906 	4941 	0.042551
40.83 	0.046266 	4928 	0.045533
40.85 	0.049959 	4924 	0.049107
40.87 	0.045860 	4928 	0.045028
40.89 	0.038937 	4931 	0.038700
40.91 	0.042860 	4923 	0.042146
40.93 	0.038914 	4934 	0.038557
40.95 	0.038673 	4913 	0.038196
40.97 	0.046913 	4924 	0.046437
40.99 	0.042851 	4924 	0.041900
41.01 	0.037663 	4912 	0.037186
41.03 	0.036290 	4905 	0.035812
41.05 	0.045381 	4936 	0.044669
41.07 	0.038337 	4930 	0.038337
41.09 	0.040696 	4939 	0.040103
41.11 	0.044377 	4935 	0.043902
41.13 	0.039100 	4936 	0.038744
41.15 	0.041894 	4941 	0.041657
41.17 	0.042359 	4934 	0.041884
41.19 	0.043002 	4930 	0.042408
41.21 	0.043346 	4937 	0.042278
41.23 	0.040494 	4939 	0.040257
41.25 	0.046422 	4933 	0.045472
41.27 	0.043805 	4931 	0.043211
41.29 	0.044237 	4928 	0.043524
41.31 	0.044598 	4933 	0.043885
41.33 	0.042941 	4937 	0.042229
41.35 	0.036655 	4938 	0.036061
41.37 	0.043867 	4924 	0.043272
41.39 	0.047233 	4933 	0.046520
41.41 	0.041616 	4926 	0.041021
41.43 	0.037939 	4929 	0.037582
41.45 	0.042125 	4914 	0.041529
41.47 	0.039789 	4926 	0.039551
41.49 	0.039043 	4892 	0.038804
41.51 	0.041700 	4940 	0.040989
41.53 	0.042678 	4944 	0.042204
41.55 	0.043566 	4935 	0.042735
41.57 	0.041894 	4941 	0.041302
41.59 	0.042165 	4933 	0.041690
41.61 	0.042600 	4953 	0.042108
41.63 	0.042325 	4938 	0.041732
41.65 	0.040576 	4929 	0.040338
41.67 	0.040891 	4940 	0.040061
41.69 	0.041035 	4947 	0.040561
41.71 	0.040940 	4934 	0.040347
41.73 	0.041532 	4936 	0.041176
41.75 	0.038750 	4929 	0.038394
41.77 	0.044728 	4941 	0.043779
41.79 	0.043285 	4944 	0.042929
41.81 	0.044571 	4936 	0.044333
41.83 	0.043831 	4928 	0.043118
41.85 	0.046973 	4939 	0.046261
41.87 	0.034245 	4935 	0.034008
41.89 	0.043381 	4933 	0.042194
41.91 	0.041126 	4936 	0.040414
41.93 	0.040349 	4932 	0.039874
41.95 	0.041777 	4931 	0.041301
41.97 	0.038055 	4914 	0.037816
41.99 	0.037105 	4905 	0.036747
42.01 	0.048159 	4942 	0.047566
42.03 	0.038469 	4939 	0.037995
42.05 	0.043013 	4952 	0.042421
42.07 	0.042941 	4937 	0.041755
42.09 	0.047292 	4948 	0.046582
42.11 	0.040647 	4945 	0.039936
42.13 	0.041254 	4945 	0.040661
42.15 	0.041312 	4938 	0.040719
42.17 	0.040464 	4918 	0.039868
42.19 	0.041157 	4908 	0.041038
42.21 	0.041828 	4901 	0.041211
42.23 	0.042518 	4892 	0.041680
42.25 	0.045817 	4889 	0.044859
42.27 	0.038572 	4874 	0.038091
42.29 	0.038659 	4863 	0.038298
42.31 	0.040783 	4855 	0.040179
42.33 	0.041167 	4834 	0.040803
42.35 	0.039066 	4838 	0.038581
42.37 	0.038095 	4830 	0.038095
42.39 	0.038510 	4804 	0.038144
42.41 	0.042673 	4804 	0.042307
42.43 	0.037771 	4792 	0.037160
42.45 	0.043342 	4776 	0.042483
42.47 	0.042183 	4765 	0.041937
42.49 	0.040084 	4765 	0.039715
42.51 	0.038162 	4743 	0.037667
42.53 	0.039975 	4728 	0.038983
42.55 	0.039720 	4708 	0.039098
42.57 	0.036786 	4730 	0.036539
42.59 	0.048002 	4729 	0.047506
42.61 	0.042693 	4708 	0.042320
42.63 	0.035464 	4709 	0.035215
42.65 	0.037567 	4685 	0.036816
42.67 	0.040991 	4684 	0.039990
42.69 	0.041078 	4674 	0.040828
42.71 	0.039460 	4663 	0.038831
42.73 	0.039871 	4640 	0.039113
42.75 	0.037254 	4617 	0.036746
42.77 	0.040217 	4600 	0.039326
42.79 	0.042994 	4582 	0.042227
42.81 	0.045156 	4562 	0.043958
42.83 	0.040785 	4536 	0.040397
42.85 	0.035557 	4528 	0.035168
42.87 	0.039120 	4499 	0.038990
42.89 	0.039286 	4480 	0.038763
42.91 	0.039722 	4456 	0.039327
42.93 	0.038911 	4446 	0.038648
42.95 	0.039402 	4416 	0.039402
42.97 	0.042490 	4401 	0.042091
42.99 	0.040821 	4385 	0.040821
43.01 	0.038735 	4363 	0.038332
43.03 	0.039465 	4333 	0.039329
43.05 	0.035145 	4325 	0.034603
43.07 	0.041899 	4296 	0.041354
43.09 	0.035723 	4283 	0.035176
43.11 	0.031727 	4255 	0.031590
43.13 	0.038235 	4237 	0.037405
43.15 	0.037565 	4206 	0.036590
43.17 	0.037569 	4179 	0.037429
43.19 	0.038865 	4194 	0.038586
43.21 	0.038830 	4172 	0.038409
43.23 	0.036832 	4154 	0.036691
43.25 	0.035308 	4135 	0.034742
43.27 	0.041657 	4105 	0.041228
43.29 	0.038049 	4100 	0.037334
43.31 	0.037754 	4079 	0.037467
43.33 	0.039496 	4051 	0.038773
43.35 	0.034722 	4032 	0.034286
43.37 	0.035616 	4015 	0.035179
43.39 	0.035482 	4002 	0.035482
43.41 	0.038268 	3972 	0.038120
43.43 	0.034848 	3960 	0.034553
43.45 	0.036595 	3935 	0.035850
43.47 	0.039021 	3921 	0.038274
43.49 	0.034642 	3897 	0.034041
43.51 	0.039464 	3877 	0.038859
43.53 	0.041419 	3863 	0.040964
43.55 	0.036100 	2964 	0.036100
43.57 	0.033512 	2238 	0.032727
43.59 	0.032646 	1746 	0.031640
43.61 	0.034789 	1351 	0.034789
43.63 	0.033966 	1001 	0.033966
43.65 	0.036390 	687 	0.036390
43.67 	0.021912 	502 	0.021912
43.69 	0.038147 	367 	0.038147
43.71 	0.029289 	239 	0.029289
43.73 	0.058333 	120 	0.058333
43.75 	0.000000 	16 	0.000000