File: Example_Data/25SC_s1_0041.004.dat
#F C:\frames\spec\25SC_s1_0041.004
#C title =s:41 frm:4 25SC_s1
#C wavelength =0.15406

#S 1  fr_average C:\frames\spec\25SC_s1_0041.004 C:\win32app\speccom\mask.axs chi 0 180 0 360 0.02
#C 2 theta =0.000000 to 180 deg
#C   q   =0.000000 to 81.568 nm^-1
#C  chi  =0.000000 to 360 deg
#C collumns:
#C  1 position (2theta or chi in degrees)
#C  2 average intensity (sum of all counts in the region divided with number of pixels)
#C  3 Number of pixels in region)
#C  4 error (sum of sqrt(intensity) for all pixels divided by number)
#N 4
#L TTh  Int  N_pix  Err
32.99 	0.065574 	61 	0.065574
33.01 	0.063001 	873 	0.060317
33.03 	0.048886 	1391 	0.048043
33.05 	0.050655 	1757 	0.049988
33.07 	0.054146 	2050 	0.052718
33.09 	0.058798 	2347 	0.057301
33.11 	0.048468 	2579 	0.047787
33.13 	0.053348 	2793 	0.052299
33.15 	0.056019 	2999 	0.055628
33.17 	0.059669 	3201 	0.058937
33.19 	0.053860 	3342 	0.052107
33.21 	0.052969 	3436 	0.052116
33.23 	0.055634 	3523 	0.054803
33.25 	0.058970 	3612 	0.058321
33.27 	0.058402 	3630 	0.057111
33.29 	0.057566 	3648 	0.057084
33.31 	0.057104 	3660 	0.056624
33.33 	0.060770 	3686 	0.060294
33.35 	0.054954 	3694 	0.054003
33.37 	0.061928 	3714 	0.060982
33.39 	0.060338 	3729 	0.059081
33.41 	0.057219 	3740 	0.056279
33.43 	0.052646 	3761 	0.052178
33.45 	0.059369 	3773 	0.058593
33.47 	0.055292 	3798 	0.054213
33.49 	0.069835 	3809 	0.068758
33.51 	0.066841 	3815 	0.065767
33.53 	0.059620 	3841 	0.058222
33.55 	0.062191 	3843 	0.060819
33.57 	0.060098 	3877 	0.059040
33.59 	0.057216 	3880 	0.056311
33.61 	0.056792 	3909 	0.055743
33.63 	0.058688 	3919 	0.057792
33.65 	0.064869 	3931 	0.064571
33.67 	0.064492 	3954 	0.063455
33.69 	0.060713 	3953 	0.059972
33.71 	0.061384 	3975 	0.061089
33.73 	0.049201 	4004 	0.048738
33.75 	0.058765 	3999 	0.058008
33.77 	0.055652 	4025 	0.054633
33.79 	0.053205 	4041 	0.052770
33.81 	0.057454 	4038 	0.056729
33.83 	0.057531 	4050 	0.056374
33.85 	0.056111 	4099 	0.054825
33.87 	0.062758 	4111 	0.061476
33.89 	0.056054 	4121 	0.054894
33.91 	0.062666 	4149 	0.061231
33.93 	0.055167 	4151 	0.054744
33.95 	0.054772 	4181 	0.053511
33.97 	0.061575 	4190 	0.059979
33.99 	0.063095 	4200 	0.060585
34.01 	0.055305 	4213 	0.054587
34.03 	0.059849 	4244 	0.058883
34.05 	0.062324 	4252 	0.061497
34.07 	0.057638 	4268 	0.056540
34.09 	0.061363 	4286 	0.060269
34.11 	0.065783 	4302 	0.064558
34.13 	0.061049 	4308 	0.059961
34.15 	0.057954 	4331 	0.056737
34.17 	0.064598 	4350 	0.063116
34.19 	0.057084 	4362 	0.056010
34.21 	0.057424 	4371 	0.055950
34.23 	0.054177 	4393 	0.053244
34.25 	0.055404 	4404 	0.053941
34.27 	0.055857 	4422 	0.055040
34.29 	0.054115 	4435 	0.053719
34.31 	0.064154 	4458 	0.062840
34.33 	0.063297 	4471 	0.062380
34.35 	0.066682 	4484 	0.065375
34.37 	0.062124 	4491 	0.061211
34.39 	0.056419 	4502 	0.055899
34.41 	0.065179 	4526 	0.063993
34.43 	0.056400 	4539 	0.055626
34.45 	0.061742 	4535 	0.061096
34.47 	0.058145 	4592 	0.056741
34.49 	0.058081 	4597 	0.056935
34.51 	0.059705 	4606 	0.058306
34.53 	0.060090 	4643 	0.059333
34.55 	0.060521 	4643 	0.059638
34.57 	0.060086 	4660 	0.059583
34.59 	0.065241 	4675 	0.063215
34.61 	0.054290 	4697 	0.053916
34.63 	0.055414 	4710 	0.054419
34.65 	0.065240 	4721 	0.064248
34.67 	0.053997 	4741 	0.053256
34.69 	0.055111 	4754 	0.054003
34.71 	0.057910 	4766 	0.057173
34.73 	0.062043 	4787 	0.061186
34.75 	0.055116 	4808 	0.054142
34.77 	0.057285 	4818 	0.056313
34.79 	0.061360 	4824 	0.060388
34.81 	0.059443 	4845 	0.058596
34.83 	0.060058 	4862 	0.059214
34.85 	0.051961 	4869 	0.050879
34.87 	0.053821 	4868 	0.053099
34.89 	0.060631 	4882 	0.059911
34.91 	0.056534 	4882 	0.055334
34.93 	0.062258 	4899 	0.061301
34.95 	0.058691 	4890 	0.058073
34.97 	0.056916 	4902 	0.055840
34.99 	0.061058 	4897 	0.060101
35.01 	0.057688 	4923 	0.056617
35.03 	0.063322 	4943 	0.062137
35.05 	0.058015 	4947 	0.057186
35.07 	0.053036 	4940 	0.052088
35.09 	0.053301 	4953 	0.052473
35.11 	0.053366 	4947 	0.052892
35.13 	0.053852 	4958 	0.053025
35.15 	0.058132 	4937 	0.057421
35.17 	0.054590 	4946 	0.053879
35.19 	0.061716 	4942 	0.060649
35.21 	0.053994 	4945 	0.052908
35.23 	0.066734 	4945 	0.064345
35.25 	0.059680 	4943 	0.058456
35.27 	0.061439 	4948 	0.060255
35.29 	0.061476 	4945 	0.060746
35.31 	0.062842 	4933 	0.062011
35.33 	0.055230 	4943 	0.054756
35.35 	0.062930 	4942 	0.061745
35.37 	0.057097 	4939 	0.055673
35.39 	0.058645 	4945 	0.057342
35.41 	0.054608 	4926 	0.054133
35.43 	0.058180 	4933 	0.056636
35.45 	0.066437 	4937 	0.065013
35.47 	0.059623 	4931 	0.058534
35.49 	0.060489 	4910 	0.059415
35.51 	0.059277 	4926 	0.058564
35.53 	0.056779 	4949 	0.055596
35.55 	0.055207 	4945 	0.054970
35.57 	0.056355 	4933 	0.055761
35.59 	0.059858 	4945 	0.058911
35.61 	0.054229 	4942 	0.052925
35.63 	0.061906 	4943 	0.061076
35.65 	0.063094 	4945 	0.061791
35.67 	0.055848 	4942 	0.054406
35.69 	0.052770 	4946 	0.051704
35.71 	0.057120 	4937 	0.055933
35.73 	0.063209 	4936 	0.062378
35.75 	0.054553 	4931 	0.053553
35.77 	0.054332 	4951 	0.053859
35.79 	0.052514 	4932 	0.051564
35.81 	0.054328 	4933 	0.053378
35.83 	0.058431 	4946 	0.057128
35.85 	0.049037 	4935 	0.048444
35.87 	0.054641 	4923 	0.053551
35.89 	0.055128 	4934 	0.054415
35.91 	0.063933 	4927 	0.062269
35.93 	0.056018 	4927 	0.055186
35.95 	0.053691 	4917 	0.052976
35.97 	0.055171 	4912 	0.053959
35.99 	0.057097 	4939 	0.056010
36.01 	0.059635 	4930 	0.058546
36.03 	0.060085 	4943 	0.059018
36.05 	0.060667 	4945 	0.059838
36.07 	0.058109 	4939 	0.057041
36.09 	0.052429 	4940 	0.051836
36.11 	0.055386 	4929 	0.054535
36.13 	0.061514 	4942 	0.060210
36.15 	0.059324 	4939 	0.057644
36.17 	0.055838 	4925 	0.055124
36.19 	0.054251 	4940 	0.052947
36.21 	0.054372 	4929 	0.053778
36.23 	0.051266 	4935 	0.050910
36.25 	0.057883 	4941 	0.057409
36.27 	0.051371 	4925 	0.050776
36.29 	0.064084 	4931 	0.062896
36.31 	0.054180 	4928 	0.053229
36.33 	0.054733 	4933 	0.054496
36.35 	0.049503 	4929 	0.048790
36.37 	0.057688 	4923 	0.056855
36.39 	0.059744 	4921 	0.058504
36.41 	0.059641 	4896 	0.058683
36.43 	0.063312 	4928 	0.062123
36.45 	0.054767 	4930 	0.053935
36.47 	0.053890 	4936 	0.052703
36.49 	0.055848 	4942 	0.054900
36.51 	0.050679 	4933 	0.049848
36.53 	0.060490 	4943 	0.059067
36.55 	0.058250 	4927 	0.057656
36.57 	0.054722 	4934 	0.053872
36.59 	0.056084 	4939 	0.054661
36.61 	0.057189 	4931 	0.055764
36.63 	0.059420 	4931 	0.057856
36.65 	0.055556 	4932 	0.054230
36.67 	0.054158 	4930 	0.053326
36.69 	0.058633 	4929 	0.057900
36.71 	0.054664 	4921 	0.053949
36.73 	0.061523 	4925 	0.060314
36.75 	0.057241 	4944 	0.056412
36.77 	0.057735 	4919 	0.056783
36.79 	0.054054 	4921 	0.052626
36.81 	0.055533 	4916 	0.055175
36.83 	0.057375 	4915 	0.056064
36.85 	0.061249 	4898 	0.060173
36.87 	0.052589 	4944 	0.051641
36.89 	0.048617 	4916 	0.047902
36.91 	0.055050 	4941 	0.053726
36.93 	0.058012 	4930 	0.057418
36.95 	0.055544 	4933 	0.054476
36.97 	0.051682 	4934 	0.051207
36.99 	0.055724 	4935 	0.054537
37.01 	0.057369 	4933 	0.056775
37.03 	0.050975 	4924 	0.050023
37.05 	0.056221 	4927 	0.055745
37.07 	0.059169 	4935 	0.057745
37.09 	0.056006 	4928 	0.054937
37.11 	0.058764 	4935 	0.057696
37.13 	0.051381 	4924 	0.050429
37.15 	0.053779 	4909 	0.053540
37.17 	0.054317 	4934 	0.052972
37.19 	0.057665 	4925 	0.056575
37.21 	0.052878 	4917 	0.051806
37.23 	0.054900 	4918 	0.054424
37.25 	0.055997 	4911 	0.055400
37.27 	0.060074 	4894 	0.059236
37.29 	0.051318 	4930 	0.050705
37.31 	0.053090 	4935 	0.052022
37.33 	0.051756 	4927 	0.050785
37.35 	0.047185 	4938 	0.046236
37.37 	0.053176 	4927 	0.052701
37.39 	0.053742 	4931 	0.053029
37.41 	0.057392 	4931 	0.056541
37.43 	0.056569 	4932 	0.055738
37.45 	0.045695 	4924 	0.045338
37.47 	0.055995 	4929 	0.055044
37.49 	0.053220 	4923 	0.052387
37.51 	0.054936 	4933 	0.053986
37.53 	0.054076 	4919 	0.053242
37.55 	0.053955 	4930 	0.052886
37.57 	0.056244 	4925 	0.055649
37.59 	0.045168 	4915 	0.044691
37.61 	0.058716 	4922 	0.058359
37.63 	0.053263 	4919 	0.052310
37.65 	0.061204 	4918 	0.059774
37.67 	0.062194 	4904 	0.060741
37.69 	0.045937 	4898 	0.045339
37.71 	0.055995 	4929 	0.055044
37.73 	0.052749 	4929 	0.052155
37.75 	0.055870 	4940 	0.055159
37.77 	0.058943 	4920 	0.057991
37.79 	0.061258 	4930 	0.060287
37.81 	0.057977 	4933 	0.057621
37.83 	0.058943 	4920 	0.058090
37.85 	0.052824 	4922 	0.052467
37.87 	0.051630 	4939 	0.050306
37.89 	0.051168 	4925 	0.050454
37.91 	0.052130 	4930 	0.051179
37.93 	0.056109 	4919 	0.055394
37.95 	0.050193 	4921 	0.049479
37.97 	0.052140 	4929 	0.051784
37.99 	0.052728 	4912 	0.052251
38.01 	0.058239 	4928 	0.057407
38.03 	0.053779 	4909 	0.053540
38.05 	0.059695 	4925 	0.058130
38.07 	0.055816 	4909 	0.055219
38.09 	0.054121 	4878 	0.053280
38.11 	0.050253 	4935 	0.049422
38.13 	0.054892 	4937 	0.054180
38.15 	0.049207 	4918 	0.048850
38.17 	0.061055 	4930 	0.059867
38.19 	0.052333 	4930 	0.051263
38.21 	0.052407 	4923 	0.051812
38.23 	0.056501 	4938 	0.055670
38.25 	0.053691 	4917 	0.052381
38.27 	0.054767 	4930 	0.053579
38.29 	0.057880 	4924 	0.056433
38.31 	0.069008 	4927 	0.067937
38.33 	0.056458 	4924 	0.055150
38.35 	0.065341 	4928 	0.064133
38.37 	0.057067 	4924 	0.055997
38.39 	0.058668 	4909 	0.057594
38.41 	0.063173 	4923 	0.061864
38.43 	0.069365 	4916 	0.067459
38.45 	0.067100 	4918 	0.065175
38.47 	0.069696 	4907 	0.069099
38.49 	0.059463 	4877 	0.058742
38.51 	0.068329 	4932 	0.067379
38.53 	0.067965 	4929 	0.066163
38.55 	0.067666 	4936 	0.066361
38.57 	0.065204 	4923 	0.064490
38.59 	0.063160 	4924 	0.062565
38.61 	0.064222 	4936 	0.062323
38.63 	0.061332 	4924 	0.060143
38.65 	0.064050 	4918 	0.062502
38.67 	0.061576 	4937 	0.060271
38.69 	0.056075 	4922 	0.055103
38.71 	0.055037 	4924 	0.054085
38.73 	0.061000 	4918 	0.059928
38.75 	0.056018 	4927 	0.055661
38.77 	0.059110 	4923 	0.058039
38.79 	0.058776 	4934 	0.057351
38.81 	0.056800 	4912 	0.055965
38.83 	0.056719 	4919 	0.055508
38.85 	0.054764 	4912 	0.053810
38.87 	0.059051 	4911 	0.058335
38.89 	0.047784 	4897 	0.046827
38.91 	0.053233 	4903 	0.051660
38.93 	0.054678 	4938 	0.053729
38.95 	0.053477 	4918 	0.052762
38.97 	0.054958 	4931 	0.054364
38.99 	0.051246 	4937 	0.050059
39.01 	0.054900 	4918 	0.053928
39.03 	0.049047 	4934 	0.048434
39.05 	0.058071 	4925 	0.057238
39.07 	0.054021 	4924 	0.053545
39.09 	0.052407 	4923 	0.051455
39.11 	0.048469 	4931 	0.047400
39.13 	0.053220 	4923 	0.052387
39.15 	0.053917 	4915 	0.053201
39.17 	0.058132 	4937 	0.057183
39.19 	0.053285 	4917 	0.052927
39.21 	0.056823 	4910 	0.055749
39.23 	0.050152 	4925 	0.049439
39.25 	0.055059 	4922 	0.053869
39.27 	0.057026 	4910 	0.055833
39.29 	0.055499 	4901 	0.054543
39.31 	0.050369 	4884 	0.049409
39.33 	0.055364 	4931 	0.054532
39.35 	0.057548 	4935 	0.056361
39.37 	0.055184 	4929 	0.054233
39.39 	0.049300 	4929 	0.048944
39.41 	0.048063 	4931 	0.047826
39.43 	0.052706 	4933 	0.051875
39.45 	0.059492 	4925 	0.058422
39.47 	0.054641 	4923 	0.053809
39.49 	0.053517 	4933 	0.052448
39.51 	0.056661 	4924 	0.055710
39.53 	0.056470 	4923 	0.055994
39.55 	0.055092 	4919 	0.053902
39.57 	0.056761 	4933 	0.055336
39.59 	0.049878 	4912 	0.049381
39.61 	0.052407 	4923 	0.051574
39.63 	0.055465 	4922 	0.054989
39.65 	0.052984 	4926 	0.052251
39.67 	0.055567 	4913 	0.054613
39.69 	0.049837 	4916 	0.049122
39.71 	0.050460 	4895 	0.050101
39.73 	0.061328 	4908 	0.060254
39.75 	0.054383 	4928 	0.052838
39.77 	0.056332 	4935 	0.054532
39.79 	0.054202 	4926 	0.053350
39.81 	0.055409 	4927 	0.054101
39.83 	0.052898 	4934 	0.051592
39.85 	0.057642 	4927 	0.056928
39.87 	0.056447 	4925 	0.055733
39.89 	0.055330 	4934 	0.054618
39.91 	0.059325 	4922 	0.058611
39.93 	0.054892 	4937 	0.053468
39.95 	0.056358 	4915 	0.055405
39.97 	0.052760 	4928 	0.052047
39.99 	0.055758 	4932 	0.054808
40.01 	0.054494 	4918 	0.053045
40.03 	0.053369 	4928 	0.052279
40.05 	0.049827 	4917 	0.049231
40.07 	0.055657 	4923 	0.054943
40.09 	0.049634 	4916 	0.048800
40.11 	0.054923 	4916 	0.053969
40.13 	0.052900 	4896 	0.052302
40.15 	0.050275 	4913 	0.049917
40.17 	0.057224 	4928 	0.056035
40.19 	0.051126 	4929 	0.050532
40.21 	0.053901 	4935 	0.053070
40.23 	0.048054 	4932 	0.047103
40.25 	0.046545 	4920 	0.045830
40.27 	0.054892 	4937 	0.053824
40.29 	0.053988 	4927 	0.053156
40.31 	0.053452 	4939 	0.053096
40.33 	0.054947 	4932 	0.054472
40.35 	0.046554 	4919 	0.046316
40.37 	0.050112 	4929 	0.049755
40.39 	0.053944 	4931 	0.053113
40.41 	0.053198 	4925 	0.052484
40.43 	0.053230 	4922 	0.051882
40.45 	0.048044 	4933 	0.047569
40.47 	0.050630 	4918 	0.050035
40.49 	0.057450 	4926 	0.056380
40.51 	0.056887 	4922 	0.055459
40.53 	0.046379 	4916 	0.046141
40.55 	0.056235 	4908 	0.055280
40.57 	0.051738 	4890 	0.050780
40.59 	0.047600 	4937 	0.046512
40.61 	0.052077 	4935 	0.051602
40.63 	0.054564 	4930 	0.053495
40.65 	0.049625 	4937 	0.049151
40.67 	0.054947 	4932 	0.054591
40.69 	0.044561 	4937 	0.043573
40.71 	0.049270 	4932 	0.048557
40.73 	0.047706 	4926 	0.047111
40.75 	0.049888 	4931 	0.049176
40.77 	0.047580 	4939 	0.046987
40.79 	0.045898 	4924 	0.045184
40.81 	0.051002 	4941 	0.050172
40.83 	0.051948 	4928 	0.051591
40.85 	0.055240 	4924 	0.053693
40.87 	0.050933 	4928 	0.049982
40.89 	0.054147 	4931 	0.053791
40.91 	0.050985 	4923 	0.050271
40.93 	0.048642 	4934 	0.047930
40.95 	0.049054 	4913 	0.048338
40.97 	0.053006 	4924 	0.052054
40.99 	0.055646 	4924 	0.054575
41.01 	0.052117 	4912 	0.051402
41.03 	0.047299 	4905 	0.046940
41.05 	0.051053 	4936 	0.050341
41.07 	0.049290 	4930 	0.048696
41.09 	0.050213 	4939 	0.049620
41.11 	0.049848 	4935 	0.049255
41.13 	0.049838 	4936 	0.048889
41.15 	0.049990 	4941 	0.049279
41.17 	0.049047 	4934 	0.048454
41.19 	0.055781 	4930 	0.054949
41.21 	0.053879 	4937 	0.053147
41.23 	0.052035 	4939 	0.051442
41.25 	0.046827 	4933 	0.046590
41.27 	0.051714 	4931 	0.050763
41.29 	0.054180 	4928 	0.052873
41.31 	0.047436 	4933 	0.046704
41.33 	0.052258 	4937 	0.051547
41.35 	0.049615 	4938 	0.048903
41.37 	0.046507 	4924 	0.046150
41.39 	0.048044 	4933 	0.047450
41.41 	0.048924 	4926 	0.048448
41.43 	0.054778 	4929 	0.053094
41.45 	0.043346 	4914 	0.042630
41.47 	0.053593 	4926 	0.052761
41.49 	0.051308 	4892 	0.050111
41.51 	0.054049 	4940 	0.053100
41.53 	0.046723 	4944 	0.046131
41.55 	0.052280 	4935 	0.051686
41.57 	0.045942 	4941 	0.045586
41.59 	0.049463 	4933 	0.049107
41.61 	0.043408 	4953 	0.042580
41.63 	0.048400 	4938 	0.047451
41.65 	0.046460 	4929 	0.045628
41.67 	0.047166 	4940 	0.046316
41.69 	0.044876 	4947 	0.043810
41.71 	0.049453 	4934 	0.049215
41.73 	0.051864 	4936 	0.051033
41.75 	0.045648 	4929 	0.045054
41.77 	0.044930 	4941 	0.044456
41.79 	0.051780 	4944 	0.050102
41.81 	0.049838 	4936 	0.048770
41.83 	0.048701 	4928 	0.047869
41.85 	0.049403 	4939 	0.048790
41.87 	0.054306 	4935 	0.053594
41.89 	0.050476 	4933 	0.050120
41.91 	0.047204 	4936 	0.046730
41.93 	0.048054 	4932 	0.046985
41.95 	0.048063 	4931 	0.047350
41.97 	0.047212 	4914 	0.046854
41.99 	0.048318 	4905 	0.047721
42.01 	0.046540 	4942 	0.045829
42.03 	0.048795 	4939 	0.048084
42.05 	0.049879 	4952 	0.049169
42.07 	0.048815 	4937 	0.048578
42.09 	0.050525 	4948 	0.049934
42.11 	0.048938 	4945 	0.047754
42.13 	0.047927 	4945 	0.047216
42.15 	0.047793 	4938 	0.047555
42.17 	0.046157 	4918 	0.045800
42.19 	0.042787 	4908 	0.041832
42.21 	0.047949 	4901 	0.047591
42.23 	0.048038 	4892 	0.047439
42.25 	0.052567 	4889 	0.051848
42.27 	0.044112 	4874 	0.043390
42.29 	0.044828 	4863 	0.044226
42.31 	0.044696 	4855 	0.044093
42.33 	0.042201 	4834 	0.041716
42.35 	0.050021 	4838 	0.049536
42.37 	0.046377 	4830 	0.045407
42.39 	0.047044 	4804 	0.046191
42.41 	0.045171 	4804 	0.044683
42.43 	0.042362 	4792 	0.041751
42.45 	0.050879 	4776 	0.050389
42.47 	0.047639 	4765 	0.046901
42.49 	0.044911 	4765 	0.044542
42.51 	0.044697 	4743 	0.044327
42.53 	0.046954 	4728 	0.046067
42.55 	0.050765 	4708 	0.050018
42.57 	0.048203 	4730 	0.046820
42.59 	0.047790 	4729 	0.047295
42.61 	0.045030 	4708 	0.044159
42.63 	0.046507 	4709 	0.046133
42.65 	0.045037 	4685 	0.044662
42.67 	0.044620 	4684 	0.043745
42.69 	0.047283 	4674 	0.046280
42.71 	0.048252 	4663 	0.047498
42.73 	0.040517 	4640 	0.040391
42.75 	0.049383 	4617 	0.048368
42.77 	0.049783 	4600 	0.049019
42.79 	0.048450 	4582 	0.048195
42.81 	0.047786 	4562 	0.047144
42.83 	0.043871 	4536 	0.043096
42.85 	0.045936 	4528 	0.045548
42.87 	0.049122 	4499 	0.048601
42.89 	0.051339 	4480 	0.050816
42.91 	0.044659 	4456 	0.044002
42.93 	0.043860 	4446 	0.042937
42.95 	0.048687 	4416 	0.048554
42.97 	0.042945 	4401 	0.042679
42.99 	0.052908 	4385 	0.051951
43.01 	0.050195 	4363 	0.049367
43.03 	0.049619 	4333 	0.048808
43.05 	0.046705 	4325 	0.045622
43.07 	0.046322 	4296 	0.045777
43.09 	0.045529 	4283 	0.045119
43.11 	0.044888 	4255 	0.044338
43.13 	0.050035 	4237 	0.049482
43.15 	0.043509 	4206 	0.042952
43.17 	0.049773 	4179 	0.049189
43.19 	0.051264 	4194 	0.050263
43.21 	0.042905 	4172 	0.042624
43.23 	0.047183 	4154 	0.046478
43.25 	0.042563 	4135 	0.042138
43.27 	0.048965 	4105 	0.048108
43.29 	0.046098 	4100 	0.045526
43.31 	0.048786 	4079 	0.048212
43.33 	0.044927 	4051 	0.044060
43.35 	0.049851 	4032 	0.048979
43.37 	0.044583 	4015 	0.043392
43.39 	0.051474 	4002 	0.050889
43.41 	0.045317 	3972 	0.044432
43.43 	0.041414 	3960 	0.041118
43.45 	0.041931 	3935 	0.041485
43.47 	0.049477 	3921 	0.048581
43.49 	0.044137 	3897 	0.043836
43.51 	0.046170 	3877 	0.045716
43.53 	0.052291 	3863 	0.051684
43.55 	0.043522 	2964 	0.043325
43.57 	0.054066 	2238 	0.053281
43.59 	0.039519 	1746 	0.039183
43.61 	0.043671 	1351 	0.042299
43.63 	0.046953 	1001 	0.045783
43.65 	0.052402 	687 	0.052402
43.67 	0.049801 	502 	0.049801
43.69 	0.049046 	367 	0.049046
43.71 	0.041841 	239 	0.041841
43.73 	0.041667 	120 	0.036785
43.75 	0.000000 	16 	0.000000