File: Example_Data/25SC_s1_0047.001.dat
#F C:\frames\spec\25SC_s1_0047.001
#C title =s:47 frm:1 25SC_s1
#C wavelength =0.15406

#S 1  fr_average C:\frames\spec\25SC_s1_0047.001 C:\win32app\speccom\mask.axs chi 0 180 0 360 0.02
#C 2 theta =0.000000 to 180 deg
#C   q   =0.000000 to 81.568 nm^-1
#C  chi  =0.000000 to 360 deg
#C collumns:
#C  1 position (2theta or chi in degrees)
#C  2 average intensity (sum of all counts in the region divided with number of pixels)
#C  3 Number of pixels in region)
#C  4 error (sum of sqrt(intensity) for all pixels divided by number)
#N 4
#L TTh  Int  N_pix  Err
32.99 	0.049180 	61 	0.049180
33.01 	0.064147 	873 	0.062134
33.03 	0.064702 	1391 	0.063438
33.05 	0.057484 	1757 	0.056818
33.07 	0.064878 	2050 	0.064592
33.09 	0.065616 	2347 	0.064368
33.11 	0.069407 	2579 	0.067723
33.13 	0.060150 	2793 	0.059102
33.15 	0.059020 	2999 	0.057457
33.17 	0.057482 	3201 	0.056384
33.19 	0.061341 	3342 	0.059909
33.21 	0.058207 	3436 	0.057184
33.23 	0.062731 	3523 	0.061567
33.25 	0.058693 	3612 	0.057720
33.27 	0.057576 	3630 	0.056258
33.29 	0.056469 	3648 	0.055345
33.31 	0.061202 	3660 	0.059762
33.33 	0.058871 	3686 	0.058236
33.35 	0.061451 	3694 	0.060658
33.37 	0.057889 	3714 	0.057258
33.39 	0.064629 	3729 	0.062875
33.41 	0.058824 	3740 	0.058354
33.43 	0.061420 	3761 	0.059032
33.45 	0.055659 	3773 	0.054106
33.47 	0.056872 	3798 	0.055638
33.49 	0.055395 	3809 	0.054472
33.51 	0.059240 	3815 	0.058472
33.53 	0.061442 	3841 	0.060070
33.55 	0.055946 	3843 	0.055031
33.57 	0.058035 	3877 	0.056826
33.59 	0.059536 	3880 	0.058177
33.61 	0.061141 	3909 	0.060392
33.63 	0.056392 	3919 	0.055645
33.65 	0.059781 	3931 	0.059334
33.67 	0.056146 	3954 	0.054812
33.69 	0.056160 	3953 	0.055271
33.71 	0.060377 	3975 	0.059788
33.73 	0.060190 	4004 	0.058849
33.75 	0.054514 	3999 	0.054221
33.77 	0.057640 	4025 	0.057058
33.79 	0.052215 	4041 	0.051321
33.81 	0.057702 	4038 	0.056976
33.83 	0.057037 	4050 	0.056603
33.85 	0.057331 	4099 	0.057045
33.87 	0.057650 	4111 	0.056938
33.89 	0.058481 	4121 	0.057770
33.91 	0.054471 	4149 	0.053483
33.93 	0.064563 	4151 	0.063152
33.95 	0.051423 	4181 	0.050582
33.97 	0.056325 	4190 	0.055346
33.99 	0.063095 	4200 	0.062398
34.01 	0.060290 	4213 	0.059177
34.03 	0.058907 	4244 	0.058217
34.05 	0.064440 	4252 	0.063063
34.07 	0.062793 	4268 	0.061832
34.09 	0.048063 	4286 	0.047380
34.11 	0.059042 	4302 	0.057817
34.13 	0.056639 	4308 	0.055665
34.15 	0.061187 	4331 	0.060240
34.17 	0.054713 	4350 	0.053231
34.19 	0.055479 	4362 	0.053711
34.21 	0.059712 	4371 	0.058372
34.23 	0.061006 	4393 	0.060339
34.25 	0.056085 	4404 	0.054999
34.27 	0.056536 	4422 	0.055454
34.29 	0.057497 	4435 	0.055758
34.31 	0.058546 	4458 	0.057364
34.33 	0.053903 	4471 	0.053095
34.35 	0.060214 	4484 	0.059278
34.37 	0.061011 	4491 	0.060359
34.39 	0.056641 	4502 	0.056251
34.41 	0.054353 	4526 	0.053317
34.43 	0.052214 	4539 	0.051569
34.45 	0.066593 	4535 	0.066206
34.47 	0.053571 	4592 	0.052678
34.49 	0.055688 	4597 	0.055051
34.51 	0.057317 	4606 	0.056151
34.53 	0.055998 	4643 	0.055241
34.55 	0.055568 	4643 	0.054684
34.57 	0.057511 	4660 	0.056882
34.59 	0.055829 	4675 	0.054701
34.61 	0.061954 	4697 	0.061206
34.63 	0.056900 	4710 	0.056278
34.65 	0.060792 	4721 	0.059407
34.67 	0.051044 	4741 	0.050550
34.69 	0.058267 	4754 	0.057527
34.71 	0.058749 	4766 	0.057766
34.73 	0.054314 	4787 	0.053702
34.75 	0.053661 	4808 	0.052686
34.77 	0.059983 	4818 	0.059011
34.79 	0.058665 	4824 	0.057674
34.81 	0.064809 	4845 	0.063338
34.83 	0.061909 	4862 	0.061186
34.85 	0.050318 	4869 	0.049837
34.87 	0.061216 	4868 	0.060494
34.89 	0.052028 	4882 	0.050948
34.91 	0.058787 	4882 	0.057947
34.93 	0.056746 	4899 	0.055311
34.95 	0.055828 	4890 	0.054990
34.97 	0.060384 	4902 	0.059428
34.99 	0.054727 	4897 	0.053172
35.01 	0.051595 	4923 	0.051238
35.03 	0.060287 	4943 	0.059576
35.05 	0.052355 	4947 	0.051388
35.07 	0.059312 	4940 	0.058126
35.09 	0.055118 	4953 	0.054172
35.11 	0.057813 	4947 	0.056491
35.13 	0.056474 	4958 	0.055884
35.15 	0.059145 	4937 	0.058433
35.17 	0.058835 	4946 	0.058006
35.19 	0.051801 	4942 	0.051327
35.21 	0.053589 	4945 	0.052997
35.23 	0.052781 	4945 	0.051103
35.25 	0.059478 	4943 	0.058293
35.27 	0.057195 	4948 	0.056248
35.29 	0.056218 	4945 	0.054915
35.31 	0.056355 	4933 	0.055643
35.33 	0.054218 	4943 	0.053981
35.35 	0.059895 	4942 	0.059184
35.37 	0.054667 	4939 	0.053718
35.39 	0.055612 	4945 	0.054664
35.41 	0.051360 	4926 	0.050409
35.43 	0.059193 	4933 	0.057887
35.45 	0.057727 	4937 	0.056659
35.47 	0.056175 	4931 	0.054868
35.49 	0.063747 	4910 	0.063032
35.51 	0.057653 	4926 	0.056464
35.53 	0.054759 	4949 	0.053812
35.55 	0.058443 	4945 	0.057377
35.57 	0.056963 	4933 	0.056013
35.59 	0.058847 	4945 	0.057663
35.61 	0.051801 	4942 	0.050478
35.63 	0.056443 	4943 	0.055732
35.65 	0.055410 	4945 	0.054106
35.67 	0.057264 	4942 	0.056197
35.69 	0.061868 	4946 	0.060802
35.71 	0.053879 	4937 	0.053286
35.73 	0.064019 	4936 	0.062951
35.75 	0.055567 	4931 	0.054735
35.77 	0.056554 	4951 	0.055963
35.79 	0.057380 	4932 	0.056430
35.81 	0.058585 	4933 	0.057635
35.83 	0.059038 	4946 	0.057972
35.85 	0.055319 	4935 	0.054370
35.87 	0.058095 	4923 	0.057242
35.89 	0.057965 	4934 	0.057015
35.91 	0.048305 	4927 	0.047830
35.93 	0.059874 	4927 	0.059161
35.95 	0.054505 	4917 	0.053790
35.97 	0.062500 	4912 	0.061427
35.99 	0.062361 	4939 	0.060819
36.01 	0.059026 	4930 	0.058195
36.03 	0.053409 	4943 	0.052816
36.05 	0.060667 	4945 	0.059720
36.07 	0.057906 	4939 	0.057076
36.09 	0.059109 	4940 	0.058161
36.11 	0.065328 	4929 	0.063664
36.13 	0.056860 	4942 	0.056148
36.15 	0.057502 	4939 	0.056533
36.17 	0.055838 	4925 	0.055005
36.19 	0.058502 	4940 	0.057198
36.21 	0.054372 	4929 	0.053521
36.23 	0.051874 	4935 	0.050925
36.25 	0.058693 	4941 	0.057744
36.27 	0.060102 	4925 	0.059388
36.29 	0.056581 	4931 	0.056224
36.31 	0.059050 	4928 	0.058099
36.33 	0.053720 	4933 	0.053245
36.35 	0.056198 	4929 	0.055604
36.37 	0.057485 	4923 	0.056295
36.39 	0.056493 	4921 	0.056135
36.41 	0.055760 	4896 	0.054922
36.43 	0.055804 	4928 	0.054853
36.45 	0.061866 	4930 	0.060678
36.47 	0.058347 	4936 	0.057635
36.49 	0.056455 	4942 	0.055981
36.51 	0.059801 	4933 	0.058376
36.53 	0.061299 	4943 	0.060351
36.55 	0.063933 	4927 	0.063101
36.57 	0.060397 	4934 	0.059190
36.59 	0.060134 	4939 	0.058809
36.61 	0.059014 	4931 	0.058163
36.63 	0.060637 	4931 	0.059805
36.65 	0.064274 	4932 	0.062849
36.67 	0.056389 	4930 	0.055082
36.69 	0.051735 	4929 	0.051022
36.71 	0.055680 	4921 	0.054846
36.73 	0.065178 	4925 	0.063869
36.75 	0.056432 	4944 	0.055721
36.77 	0.056312 	4919 	0.055002
36.79 	0.059744 	4921 	0.058792
36.81 	0.061229 	4916 	0.060514
36.83 	0.054730 	4915 	0.054135
36.85 	0.052470 	4898 	0.051614
36.87 	0.057039 	4944 	0.056328
36.89 	0.052278 	4916 	0.051682
36.91 	0.055859 	4941 	0.054792
36.93 	0.054970 	4930 	0.053386
36.95 	0.054733 	4933 	0.053170
36.97 	0.058776 	4934 	0.057450
36.99 	0.056332 	4935 	0.055976
37.01 	0.058585 	4933 	0.057279
37.03 	0.052396 	4924 	0.051425
37.05 	0.054394 	4927 	0.053919
37.07 	0.060993 	4935 	0.059905
37.09 	0.063109 	4928 	0.061563
37.11 	0.057143 	4935 	0.055956
37.13 	0.053412 	4924 	0.052698
37.15 	0.060705 	4909 	0.059631
37.17 	0.061208 	4934 	0.060496
37.19 	0.058071 	4925 	0.057238
37.21 	0.050031 	4917 	0.049316
37.23 	0.057137 	4918 	0.055946
37.25 	0.058033 	4911 	0.057675
37.27 	0.055170 	4894 	0.054451
37.29 	0.054564 	4930 	0.053970
37.31 	0.052685 	4935 	0.052091
37.33 	0.057439 	4927 	0.056725
37.35 	0.056501 	4938 	0.056145
37.37 	0.053785 	4927 	0.053191
37.39 	0.053336 	4931 	0.052386
37.41 	0.059420 	4931 	0.058212
37.43 	0.050892 	4932 	0.050180
37.45 	0.061332 	4924 	0.060024
37.47 	0.054981 	4929 	0.053792
37.49 	0.052813 	4923 	0.051465
37.51 	0.050679 	4933 	0.049967
37.53 	0.055702 	4919 	0.055226
37.55 	0.055781 	4930 	0.053999
37.57 	0.059086 	4925 	0.058729
37.59 	0.056968 	4915 	0.055777
37.61 	0.052418 	4922 	0.051228
37.63 	0.055092 	4919 	0.054021
37.65 	0.058967 	4918 	0.058491
37.67 	0.053426 	4904 	0.052709
37.69 	0.053287 	4898 	0.053048
37.71 	0.053358 	4929 	0.052882
37.73 	0.054981 	4929 	0.054505
37.75 	0.060526 	4940 	0.058866
37.77 	0.051829 	4920 	0.051472
37.79 	0.051927 	4930 	0.051214
37.81 	0.053112 	4933 	0.052023
37.83 	0.048171 	4920 	0.047694
37.85 	0.056684 	4922 	0.055851
37.87 	0.056489 	4939 	0.055284
37.89 	0.056650 	4925 	0.055917
37.91 	0.051318 	4930 	0.050724
37.93 	0.058752 	4919 	0.057442
37.95 	0.058728 	4921 	0.058371
37.97 	0.055184 	4929 	0.054471
37.99 	0.058225 	4912 	0.057132
38.01 	0.059253 	4928 	0.058421
38.03 	0.050519 	4909 	0.050161
38.05 	0.051777 	4925 	0.051301
38.07 	0.048890 	4909 	0.048054
38.09 	0.060066 	4878 	0.059225
38.11 	0.064438 	4935 	0.063488
38.13 	0.047802 	4937 	0.046853
38.15 	0.064660 	4918 	0.063450
38.17 	0.057404 	4930 	0.056077
38.19 	0.066734 	4930 	0.064714
38.21 	0.064392 	4923 	0.063678
38.23 	0.064399 	4938 	0.063450
38.25 	0.060199 	4917 	0.058988
38.27 	0.059635 	4930 	0.058566
38.29 	0.070065 	4924 	0.068518
38.31 	0.065151 	4927 	0.063943
38.33 	0.067222 	4924 	0.066270
38.35 	0.067573 	4928 	0.066028
38.37 	0.071284 	4924 	0.069380
38.39 	0.073335 	4909 	0.072122
38.41 	0.076173 	4923 	0.074626
38.43 	0.068348 	4916 	0.067395
38.45 	0.077064 	4918 	0.075496
38.47 	0.079886 	4907 	0.077856
38.49 	0.069920 	4877 	0.068599
38.51 	0.078873 	4932 	0.077210
38.53 	0.071820 	4929 	0.070156
38.55 	0.070502 	4936 	0.068703
38.57 	0.065814 	4923 	0.064465
38.59 	0.072299 	4924 	0.070514
38.61 	0.069287 	4936 	0.067507
38.63 	0.066409 	4924 	0.065934
38.65 	0.068320 	4918 	0.066038
38.67 	0.062184 	4937 	0.061353
38.69 	0.054246 	4922 	0.053294
38.71 	0.059708 	4924 	0.058042
38.73 	0.057950 	4918 	0.056759
38.75 	0.059874 	4927 	0.059161
38.77 	0.051595 	4923 	0.050881
38.79 	0.057965 	4934 	0.057253
38.81 	0.053339 	4912 	0.052265
38.83 	0.053060 	4919 	0.052345
38.85 	0.055578 	4912 	0.054008
38.87 	0.046630 	4911 	0.045914
38.89 	0.046559 	4897 	0.045722
38.91 	0.055272 	4903 	0.054794
38.93 	0.046173 	4938 	0.045342
38.95 	0.050020 	4918 	0.049663
38.97 	0.051105 	4931 	0.050630
38.99 	0.052866 	4937 	0.052392
39.01 	0.045344 	4918 	0.044986
39.03 	0.045805 	4934 	0.045330
39.05 	0.051371 	4925 	0.050657
39.07 	0.047522 	4924 	0.046571
39.09 	0.048548 	4923 	0.047953
39.11 	0.043399 	4931 	0.042449
39.13 	0.048141 	4923 	0.047903
39.15 	0.048016 	4915 	0.047063
39.17 	0.051043 	4937 	0.050687
39.19 	0.046573 	4917 	0.045977
39.21 	0.041548 	4910 	0.041190
39.23 	0.041218 	4925 	0.041218
39.25 	0.044900 	4922 	0.044305
39.27 	0.047454 	4910 	0.046619
39.29 	0.046929 	4901 	0.045973
39.31 	0.043407 	4884 	0.043167
39.33 	0.048063 	4931 	0.047350
39.35 	0.040527 	4935 	0.040052
39.37 	0.047474 	4929 	0.047236
39.39 	0.041185 	4929 	0.041185
39.41 	0.040154 	4931 	0.039560
39.43 	0.041760 	4933 	0.041285
39.45 	0.042030 	4925 	0.041436
39.47 	0.045298 	4923 	0.044584
39.49 	0.039124 	4933 	0.038768
39.51 	0.048538 	4924 	0.048181
39.53 	0.045907 	4923 	0.044836
39.55 	0.042895 	4919 	0.042538
39.57 	0.039732 	4933 	0.039139
39.59 	0.039699 	4912 	0.039460
39.61 	0.047126 	4923 	0.046650
39.63 	0.040634 	4922 	0.040277
39.65 	0.040398 	4926 	0.040160
39.67 	0.047629 	4913 	0.047152
39.69 	0.042107 	4916 	0.041750
39.71 	0.045352 	4895 	0.043916
39.73 	0.045436 	4908 	0.044242
39.75 	0.046672 	4928 	0.046315
39.77 	0.047011 	4935 	0.046418
39.79 	0.047503 	4926 	0.047027
39.81 	0.046073 	4927 	0.045240
39.83 	0.042156 	4934 	0.041781
39.85 	0.041202 	4927 	0.040726
39.87 	0.048731 	4925 	0.048255
39.89 	0.041548 	4934 	0.041074
39.91 	0.045510 	4922 	0.044677
39.93 	0.041928 	4937 	0.041454
39.95 	0.043744 	4915 	0.042790
39.97 	0.045860 	4928 	0.045266
39.99 	0.044201 	4932 	0.043607
40.01 	0.043310 	4918 	0.043072
40.03 	0.037744 	4928 	0.037268
40.05 	0.043522 	4917 	0.043046
40.07 	0.043266 	4923 	0.042909
40.09 	0.042718 	4916 	0.042241
40.11 	0.044548 	4916 	0.044310
40.13 	0.038603 	4896 	0.038603
40.15 	0.040098 	4913 	0.039601
40.17 	0.038149 	4928 	0.037793
40.19 	0.043822 	4929 	0.043347
40.21 	0.046809 	4935 	0.046334
40.23 	0.041768 	4932 	0.041412
40.25 	0.041463 	4920 	0.040630
40.27 	0.041523 	4937 	0.041286
40.29 	0.042825 	4927 	0.042469
40.31 	0.042114 	4939 	0.041165
40.33 	0.042174 	4932 	0.041698
40.35 	0.045131 	4919 	0.044655
40.37 	0.041388 	4929 	0.041150
40.39 	0.041979 	4931 	0.041623
40.41 	0.042640 	4925 	0.042164
40.43 	0.041853 	4922 	0.041020
40.45 	0.043381 	4933 	0.043025
40.47 	0.037414 	4918 	0.037037
40.49 	0.046691 	4926 	0.046215
40.51 	0.042666 	4922 	0.042309
40.53 	0.046583 	4916 	0.045987
40.55 	0.039731 	4908 	0.039134
40.57 	0.038446 	4890 	0.038206
40.59 	0.049018 	4937 	0.048068
40.61 	0.045390 	4935 	0.044678
40.63 	0.047059 	4930 	0.045989
40.65 	0.044764 	4937 	0.044645
40.67 	0.042174 	4932 	0.042055
40.69 	0.041928 	4937 	0.041454
40.71 	0.040754 	4932 	0.040279
40.73 	0.041007 	4926 	0.040650
40.75 	0.047049 	4931 	0.046099
40.77 	0.045961 	4939 	0.045368
40.79 	0.042242 	4924 	0.042004
40.81 	0.040478 	4941 	0.040003
40.83 	0.047078 	4928 	0.046721
40.85 	0.040820 	4924 	0.040345
40.87 	0.041599 	4928 	0.041242
40.89 	0.042588 	4931 	0.042350
40.91 	0.042048 	4923 	0.041691
40.93 	0.041548 	4934 	0.041192
40.95 	0.041115 	4913 	0.040400
40.97 	0.039602 	4924 	0.039364
40.99 	0.041836 	4924 	0.041241
41.01 	0.040309 	4912 	0.039475
41.03 	0.043017 	4905 	0.042420
41.05 	0.043152 	4936 	0.043034
41.07 	0.044625 	4930 	0.043555
41.09 	0.038267 	4939 	0.038030
41.11 	0.042148 	4935 	0.041554
41.13 	0.046596 	4936 	0.045884
41.15 	0.041085 	4941 	0.040966
41.17 	0.041751 	4934 	0.041157
41.19 	0.038945 	4930 	0.038351
41.21 	0.041321 	4937 	0.040846
41.23 	0.041304 	4939 	0.040829
41.25 	0.041354 	4933 	0.040998
41.27 	0.042182 	4931 	0.041588
41.29 	0.040990 	4928 	0.040515
41.31 	0.038313 	4933 	0.037838
41.33 	0.037877 	4937 	0.037403
41.35 	0.035237 	4938 	0.035000
41.37 	0.044476 	4924 	0.043881
41.39 	0.037705 	4933 	0.037092
41.41 	0.036541 	4926 	0.035708
41.43 	0.038953 	4929 	0.038715
41.45 	0.032764 	4914 	0.032644
41.47 	0.041210 	4926 	0.040972
41.49 	0.038635 	4892 	0.038275
41.51 	0.035223 	4940 	0.034986
41.53 	0.043689 	4944 	0.043097
41.55 	0.039311 	4935 	0.039192
41.57 	0.041085 	4941 	0.040848
41.59 	0.040138 	4933 	0.039425
41.61 	0.041187 	4953 	0.040832
41.63 	0.039692 	4938 	0.039218
41.65 	0.043214 	4929 	0.042976
41.67 	0.037449 	4940 	0.037212
41.69 	0.043663 	4947 	0.043308
41.71 	0.040535 	4934 	0.039941
41.73 	0.040924 	4936 	0.040568
41.75 	0.039765 	4929 	0.039052
41.77 	0.040882 	4941 	0.040408
41.79 	0.039442 	4944 	0.039205
41.81 	0.039100 	4936 	0.038744
41.83 	0.038149 	4928 	0.037674
41.85 	0.035635 	4939 	0.035398
41.87 	0.037285 	4935 	0.036573
41.89 	0.037705 	4933 	0.037112
41.91 	0.042950 	4936 	0.042831
41.93 	0.038118 	4932 	0.037881
41.95 	0.037923 	4931 	0.037211
41.97 	0.035206 	4914 	0.034848
41.99 	0.047910 	4905 	0.046955
42.01 	0.037434 	4942 	0.037316
42.03 	0.034825 	4939 	0.034113
42.05 	0.041397 	4952 	0.041043
42.07 	0.040916 	4937 	0.040204
42.09 	0.046281 	4948 	0.045808
42.11 	0.042872 	4945 	0.041904
42.13 	0.041254 	4945 	0.041135
42.15 	0.034832 	4938 	0.034239
42.17 	0.039854 	4918 	0.039020
42.19 	0.041972 	4908 	0.041734
42.21 	0.036319 	4901 	0.035961
42.23 	0.036999 	4892 	0.036400
42.25 	0.043158 	4889 	0.042559
42.27 	0.039803 	4874 	0.039442
42.29 	0.037220 	4863 	0.036738
42.31 	0.038723 	4855 	0.038100
42.33 	0.035581 	4834 	0.035218
42.35 	0.038652 	4838 	0.038289
42.37 	0.037267 	4830 	0.037025
42.39 	0.039759 	4804 	0.039149
42.41 	0.041424 	4804 	0.040814
42.43 	0.039649 	4792 	0.038671
42.45 	0.035595 	4776 	0.035472
42.47 	0.036936 	4765 	0.036813
42.49 	0.039035 	4765 	0.038789
42.51 	0.037107 	4743 	0.036737
42.53 	0.040186 	4728 	0.040062
42.55 	0.037596 	4708 	0.037098
42.57 	0.035729 	4730 	0.035110
42.59 	0.041446 	4729 	0.040951
42.61 	0.043543 	4708 	0.043170
42.63 	0.039711 	4709 	0.039214
42.65 	0.035219 	4685 	0.034594
42.67 	0.037788 	4684 	0.037663
42.69 	0.038083 	4674 	0.037832
42.71 	0.043320 	4663 	0.042671
42.73 	0.036207 	4640 	0.036207
42.75 	0.037903 	4617 	0.037269
42.77 	0.035870 	4600 	0.035615
42.79 	0.033610 	4582 	0.033354
42.81 	0.039895 	4562 	0.039638
42.83 	0.035053 	4536 	0.034795
42.85 	0.042182 	4528 	0.041535
42.87 	0.040231 	4499 	0.039580
42.89 	0.045089 	4480 	0.044828
42.91 	0.039048 	4456 	0.038654
42.93 	0.038911 	4446 	0.038780
42.95 	0.038043 	4416 	0.037380
42.97 	0.035219 	4401 	0.035086
42.99 	0.036260 	4385 	0.036126
43.01 	0.038964 	4363 	0.038561
43.03 	0.037387 	4333 	0.037117
43.05 	0.043237 	4325 	0.042695
43.07 	0.042365 	4296 	0.041956
43.09 	0.039925 	4283 	0.039378
43.11 	0.030787 	4255 	0.030650
43.13 	0.038943 	4237 	0.038804
43.15 	0.036614 	4206 	0.036614
43.17 	0.037808 	4179 	0.037365
43.19 	0.038150 	4194 	0.037870
43.21 	0.036673 	4172 	0.036533
43.23 	0.040684 	4154 	0.039979
43.25 	0.044256 	4135 	0.044115
43.27 	0.040926 	4105 	0.040783
43.29 	0.042683 	4100 	0.041969
43.31 	0.038000 	4079 	0.037712
43.33 	0.035053 	4051 	0.034908
43.35 	0.040179 	4032 	0.039307
43.37 	0.036364 	4015 	0.036072
43.39 	0.040480 	4002 	0.040041
43.41 	0.032226 	3972 	0.031488
43.43 	0.031061 	3960 	0.030913
43.45 	0.040915 	3935 	0.040468
43.47 	0.036725 	3921 	0.035804
43.49 	0.033616 	3897 	0.033616
43.51 	0.038174 	3877 	0.038023
43.53 	0.039607 	3863 	0.038848
43.55 	0.035762 	2964 	0.035170
43.57 	0.042002 	2238 	0.041478
43.59 	0.038946 	1746 	0.038946
43.61 	0.037750 	1351 	0.037316
43.63 	0.033966 	1001 	0.033966
43.65 	0.045124 	687 	0.043418
43.67 	0.039841 	502 	0.039841
43.69 	0.029973 	367 	0.029973
43.71 	0.041841 	239 	0.041841
43.73 	0.041667 	120 	0.041667
43.75 	0.000000 	16 	0.000000