File: Example_Data/25SC_s1_0049.004.dat
#F C:\frames\spec\25SC_s1_0049.004
#C title =s:49 frm:4 25SC_s1
#C wavelength =0.15406

#S 1  fr_average C:\frames\spec\25SC_s1_0049.004 C:\win32app\speccom\mask.axs chi 0 180 0 360 0.02
#C 2 theta =0.000000 to 180 deg
#C   q   =0.000000 to 81.568 nm^-1
#C  chi  =0.000000 to 360 deg
#C collumns:
#C  1 position (2theta or chi in degrees)
#C  2 average intensity (sum of all counts in the region divided with number of pixels)
#C  3 Number of pixels in region)
#C  4 error (sum of sqrt(intensity) for all pixels divided by number)
#N 4
#L TTh  Int  N_pix  Err
32.99 	0.114754 	61 	0.105151
33.01 	0.051546 	873 	0.050875
33.03 	0.057513 	1391 	0.057091
33.05 	0.058623 	1757 	0.057289
33.07 	0.061951 	2050 	0.060522
33.09 	0.055390 	2347 	0.055140
33.11 	0.061264 	2579 	0.059674
33.13 	0.064089 	2793 	0.062621
33.15 	0.060353 	2999 	0.059963
33.17 	0.056545 	3201 	0.055630
33.19 	0.050269 	3342 	0.049743
33.21 	0.055879 	3436 	0.055538
33.23 	0.055634 	3523 	0.054637
33.25 	0.052326 	3612 	0.051353
33.27 	0.053444 	3630 	0.052449
33.29 	0.066338 	3648 	0.064571
33.31 	0.065301 	3660 	0.064180
33.33 	0.058600 	3686 	0.057329
33.35 	0.059556 	3694 	0.058605
33.37 	0.058158 	3714 	0.056581
33.39 	0.058461 	3729 	0.058304
33.41 	0.054011 	3740 	0.053202
33.43 	0.056368 	3761 	0.055433
33.45 	0.053803 	3773 	0.052872
33.47 	0.063981 	3798 	0.062439
33.49 	0.061696 	3809 	0.060773
33.51 	0.056881 	3815 	0.056113
33.53 	0.063265 	3841 	0.062045
33.55 	0.054905 	3843 	0.054143
33.57 	0.059324 	3877 	0.058418
33.59 	0.061082 	3880 	0.059397
33.61 	0.058327 	3909 	0.056978
33.63 	0.056647 	3919 	0.056049
33.65 	0.053930 	3931 	0.053334
33.67 	0.061963 	3954 	0.060481
33.69 	0.058943 	3953 	0.058498
33.71 	0.062138 	3975 	0.060616
33.73 	0.060190 	4004 	0.059458
33.75 	0.060265 	3999 	0.059679
33.77 	0.056894 	4025 	0.055876
33.79 	0.066073 	4041 	0.064768
33.81 	0.062655 	4038 	0.060769
33.83 	0.052593 	4050 	0.051869
33.85 	0.065626 	4099 	0.064482
33.87 	0.054001 	4111 	0.053289
33.89 	0.059937 	4121 	0.059368
33.91 	0.063630 	4149 	0.062641
33.93 	0.053963 	4151 	0.053398
33.95 	0.054293 	4181 	0.053453
33.97 	0.058234 	4190 	0.057395
33.99 	0.057619 	4200 	0.056643
34.01 	0.063138 	4213 	0.062165
34.03 	0.055372 	4244 	0.054406
34.05 	0.056209 	4252 	0.054831
34.07 	0.064433 	4268 	0.063198
34.09 	0.059729 	4286 	0.058909
34.11 	0.065783 	4302 	0.063446
34.13 	0.056639 	4308 	0.056231
34.15 	0.056338 	4331 	0.055256
34.17 	0.056552 	4350 	0.055744
34.19 	0.055708 	4362 	0.054634
34.21 	0.064516 	4371 	0.062908
34.23 	0.061689 	4393 	0.060622
34.25 	0.060173 	4404 	0.059241
34.27 	0.063320 	4422 	0.061973
34.29 	0.056821 	4435 	0.056424
34.31 	0.054957 	4458 	0.053906
34.33 	0.065981 	4471 	0.064616
34.35 	0.061329 	4484 	0.059762
34.37 	0.059452 	4491 	0.057735
34.39 	0.053976 	4502 	0.052415
34.41 	0.062749 	4526 	0.060807
34.43 	0.051113 	4539 	0.049822
34.45 	0.057111 	4535 	0.055949
34.47 	0.055531 	4592 	0.055021
34.49 	0.056776 	4597 	0.055757
34.51 	0.057099 	4606 	0.055192
34.53 	0.059660 	4643 	0.058650
34.55 	0.057291 	4643 	0.056260
34.57 	0.060730 	4660 	0.059598
34.59 	0.060107 	4675 	0.058854
34.61 	0.061316 	4697 	0.060443
34.63 	0.063482 	4710 	0.062487
34.65 	0.061639 	4721 	0.060399
34.67 	0.059059 	4741 	0.058194
34.69 	0.061422 	4754 	0.060067
34.71 	0.057700 	4766 	0.056594
34.73 	0.056612 	4787 	0.055755
34.75 	0.059276 	4808 	0.058545
34.77 	0.056870 	4818 	0.055776
34.79 	0.053483 	4824 	0.052875
34.81 	0.054902 	4845 	0.053572
34.83 	0.059852 	4862 	0.059009
34.85 	0.056685 	4869 	0.055963
34.87 	0.065325 	4868 	0.064362
34.89 	0.061245 	4882 	0.060285
34.91 	0.060426 	4882 	0.059706
34.93 	0.055113 	4899 	0.054635
34.95 	0.062577 	4890 	0.061139
34.97 	0.061404 	4902 	0.060189
34.99 	0.055748 	4897 	0.054652
35.01 	0.063782 	4923 	0.062354
35.03 	0.061299 	4943 	0.060094
35.05 	0.055791 	4947 	0.055199
35.07 	0.056275 	4940 	0.054734
35.09 	0.056329 	4953 	0.054773
35.11 	0.053366 	4947 	0.052300
35.13 	0.062929 	4958 	0.062102
35.15 	0.053879 	4937 	0.052436
35.17 	0.054994 	4946 	0.054283
35.19 	0.057871 	4942 	0.057160
35.21 	0.052983 	4945 	0.052509
35.23 	0.056825 	4945 	0.056233
35.25 	0.062108 	4943 	0.061515
35.27 	0.058610 	4948 	0.057662
35.29 	0.063701 	4945 	0.062260
35.31 	0.060207 	4933 	0.058901
35.33 	0.056646 	4943 	0.055579
35.35 	0.059490 	4942 	0.058423
35.37 	0.063576 	4939 	0.062508
35.39 	0.064914 	4945 	0.063966
35.41 	0.060089 	4926 	0.059118
35.43 	0.059193 	4933 	0.058006
35.45 	0.052664 	4937 	0.051596
35.47 	0.060028 	4931 	0.059078
35.49 	0.063747 	4910 	0.062316
35.51 	0.058668 	4926 	0.057479
35.53 	0.063043 	4949 	0.061978
35.55 	0.062083 	4945 	0.060780
35.57 	0.058990 	4933 	0.057565
35.59 	0.059858 	4945 	0.058911
35.61 	0.060097 	4942 	0.058774
35.63 	0.060085 	4943 	0.058544
35.65 	0.056218 	4945 	0.055271
35.67 	0.056455 	4942 	0.054914
35.69 	0.058633 	4946 	0.057212
35.71 	0.063399 	4937 	0.062450
35.73 	0.053282 	4936 	0.052550
35.75 	0.054756 	4931 	0.054162
35.77 	0.062412 	4951 	0.060874
35.79 	0.060827 	4932 	0.059877
35.81 	0.056558 	4933 	0.055608
35.83 	0.056207 	4946 	0.054667
35.85 	0.049645 	4935 	0.048814
35.87 	0.052407 	4923 	0.051574
35.89 	0.056546 	4934 	0.055240
35.91 	0.057845 	4927 	0.056418
35.93 	0.058453 	4927 	0.056988
35.95 	0.060403 	4917 	0.059926
35.97 	0.053542 	4912 	0.053065
35.99 	0.052845 	4939 	0.052252
36.01 	0.065112 	4930 	0.063567
36.03 	0.059073 	4943 	0.058007
36.05 	0.057634 	4945 	0.056568
36.07 	0.062361 	4939 	0.061037
36.09 	0.059109 	4940 	0.058042
36.11 	0.059647 	4929 	0.057864
36.13 	0.058681 	4942 	0.057732
36.15 	0.056894 	4939 	0.055708
36.17 	0.056041 	4925 	0.055327
36.19 	0.059717 	4940 	0.059124
36.21 	0.058835 	4929 	0.058122
36.23 	0.057548 	4935 	0.056361
36.25 	0.055454 	4941 	0.054624
36.27 	0.053604 	4925 	0.052771
36.29 	0.060028 	4931 	0.058603
36.31 	0.056615 	4928 	0.055783
36.33 	0.059599 	4933 	0.059124
36.35 	0.051329 	4929 	0.051091
36.37 	0.060938 	4923 	0.060106
36.39 	0.064215 	4921 	0.062409
36.41 	0.057802 	4896 	0.056606
36.43 	0.056209 	4928 	0.055496
36.45 	0.053144 	4930 	0.052174
36.47 	0.055713 	4936 	0.054645
36.49 	0.057467 	4942 	0.055195
36.51 	0.053720 	4933 	0.052651
36.53 	0.054016 	4943 	0.053305
36.55 	0.063122 	4927 	0.061695
36.57 	0.054722 	4934 	0.053773
36.59 	0.057097 	4939 	0.056504
36.61 	0.062665 	4931 	0.061714
36.63 	0.052322 	4931 	0.051372
36.65 	0.061030 	4932 	0.060199
36.67 	0.056795 	4930 	0.055607
36.69 	0.057010 	4929 	0.056178
36.71 	0.058728 	4921 	0.057538
36.73 	0.057868 	4925 	0.057392
36.75 	0.057241 	4944 	0.056530
36.77 	0.062411 	4919 	0.061439
36.79 	0.058728 	4921 	0.058133
36.81 	0.056143 	4916 	0.054832
36.83 	0.061241 	4915 	0.059553
36.85 	0.060841 	4898 	0.059765
36.87 	0.059871 	4944 	0.058567
36.89 	0.057771 	4916 	0.056936
36.91 	0.061121 	4941 	0.060766
36.93 	0.051521 	4930 	0.050333
36.95 	0.057977 	4933 	0.057027
36.97 	0.051277 	4934 	0.050664
36.99 	0.056130 	4935 	0.055180
37.01 	0.056963 	4933 	0.056132
37.03 	0.054833 	4924 	0.053763
37.05 	0.059671 	4927 	0.058720
37.07 	0.064235 	4935 	0.062316
37.09 	0.058036 	4928 	0.057085
37.11 	0.059777 	4935 	0.058471
37.13 	0.053006 	4924 	0.052292
37.15 	0.055612 	4909 	0.054419
37.17 	0.056749 	4934 	0.055324
37.19 	0.052183 	4925 	0.051469
37.21 	0.053081 	4917 	0.052128
37.23 	0.058560 	4918 	0.057727
37.25 	0.052942 	4911 	0.052107
37.27 	0.053535 	4894 	0.053176
37.29 	0.058215 	4930 	0.057383
37.31 	0.050253 	4935 	0.049541
37.33 	0.057845 	4927 	0.056893
37.35 	0.060956 	4938 	0.059770
37.37 	0.051959 	4927 	0.051364
37.39 	0.049280 	4931 	0.048567
37.41 	0.053539 	4931 	0.053064
37.43 	0.056164 	4932 	0.055332
37.45 	0.056052 	4924 	0.054981
37.47 	0.052140 	4929 	0.051190
37.49 	0.053016 	4923 	0.052065
37.51 	0.049666 	4933 	0.049191
37.53 	0.051230 	4919 	0.050515
37.55 	0.051927 	4930 	0.050976
37.57 	0.052386 	4925 	0.051791
37.59 	0.062258 	4915 	0.061543
37.61 	0.048761 	4922 	0.047928
37.63 	0.053060 	4919 	0.052345
37.65 	0.051240 	4918 	0.050645
37.67 	0.057300 	4904 	0.055628
37.69 	0.052470 	4898 	0.051633
37.71 	0.063502 	4929 	0.062076
37.73 	0.059647 	4929 	0.058459
37.75 	0.059919 	4940 	0.058140
37.77 	0.051220 	4920 	0.050148
37.79 	0.052535 	4930 	0.052179
37.81 	0.058990 	4933 	0.058397
37.83 	0.063211 	4920 	0.062616
37.85 	0.057700 	4922 	0.056510
37.87 	0.057502 	4939 	0.056197
37.89 	0.051777 	4925 	0.051301
37.91 	0.051318 	4930 	0.050249
37.93 	0.051637 	4919 	0.051160
37.95 	0.058931 	4921 	0.058098
37.97 	0.053966 	4929 	0.053372
37.99 	0.055782 	4912 	0.055305
38.01 	0.052963 	4928 	0.052131
38.03 	0.060501 	4909 	0.059308
38.05 	0.053807 	4925 	0.052618
38.07 	0.056834 	4909 	0.055760
38.09 	0.052481 	4878 	0.051760
38.11 	0.052888 	4935 	0.052531
38.13 	0.059550 	4937 	0.059076
38.15 	0.055917 	4918 	0.055064
38.17 	0.055375 	4930 	0.054662
38.19 	0.059432 	4930 	0.057887
38.21 	0.058095 	4923 	0.057143
38.23 	0.059133 	4938 	0.058066
38.25 	0.055115 	4917 	0.053547
38.27 	0.052535 	4930 	0.051941
38.29 	0.056864 	4924 	0.055437
38.31 	0.057642 	4927 	0.056552
38.33 	0.057880 	4924 	0.057404
38.35 	0.061485 	4928 	0.060772
38.37 	0.066409 	4924 	0.065339
38.39 	0.065594 	4909 	0.064401
38.41 	0.058298 	4923 	0.057108
38.43 	0.064890 	4916 	0.063699
38.45 	0.062017 	4918 	0.060588
38.47 	0.068270 	4907 	0.066937
38.49 	0.067665 	4877 	0.065843
38.51 	0.068735 	4932 	0.067785
38.53 	0.065328 	4929 	0.063902
38.55 	0.070705 	4936 	0.069874
38.57 	0.062970 	4923 	0.061284
38.59 	0.068643 	4924 	0.067216
38.61 	0.065235 	4936 	0.064286
38.63 	0.070268 	4924 	0.069078
38.65 	0.061204 	4918 	0.060489
38.67 	0.062791 	4937 	0.061961
38.69 	0.066030 	4922 	0.065078
38.71 	0.065191 	4924 	0.064477
38.73 	0.056527 	4918 	0.055455
38.75 	0.063528 	4927 	0.062339
38.77 	0.055860 	4923 	0.055503
38.79 	0.064248 	4934 	0.062705
38.81 	0.057003 	4912 	0.055811
38.83 	0.054279 	4919 	0.053803
38.85 	0.058836 	4912 	0.058239
38.87 	0.058847 	4911 	0.058251
38.89 	0.053911 	4897 	0.053432
38.91 	0.057108 	4903 	0.056152
38.93 	0.059336 	4938 	0.058624
38.95 	0.054900 	4918 	0.053828
38.97 	0.051511 	4931 	0.051016
38.99 	0.053069 	4937 	0.052357
39.01 	0.059374 	4918 	0.059016
39.03 	0.049250 	4934 	0.048538
39.05 	0.059695 	4925 	0.057792
39.07 	0.053615 	4924 	0.052663
39.09 	0.049766 	4923 	0.049052
39.11 	0.055770 	4931 	0.054582
39.13 	0.053829 	4923 	0.053472
39.15 	0.055341 	4915 	0.054606
39.17 	0.055094 	4937 	0.054501
39.19 	0.055725 	4917 	0.054653
39.21 	0.050306 	4910 	0.049828
39.23 	0.056244 	4925 	0.055411
39.25 	0.055059 	4922 	0.054107
39.27 	0.054582 	4910 	0.053389
39.29 	0.056315 	4901 	0.055239
39.31 	0.054668 	4884 	0.054069
39.33 	0.049280 	4931 	0.048686
39.35 	0.055927 	4935 	0.054977
39.37 	0.057212 	4929 	0.056143
39.39 	0.050112 	4929 	0.049280
39.41 	0.054553 	4931 	0.053840
39.43 	0.054531 	4933 	0.054056
39.45 	0.054213 	4925 	0.053500
39.47 	0.050782 	4923 	0.049949
39.49 	0.054733 	4933 	0.054140
39.51 	0.056052 	4924 	0.055338
39.53 	0.054235 	4923 	0.053402
39.55 	0.050010 	4919 	0.049415
39.57 	0.054125 	4933 	0.053156
39.59 	0.053542 	4912 	0.052708
39.61 	0.056267 	4923 	0.055434
39.63 	0.055262 	4922 	0.054191
39.65 	0.052984 	4926 	0.052508
39.67 	0.059841 	4913 	0.058768
39.69 	0.054516 	4916 	0.053682
39.71 	0.051481 	4895 	0.050883
39.73 	0.058680 	4908 	0.057108
39.75 	0.055398 	4928 	0.054922
39.77 	0.059980 	4935 	0.058536
39.79 	0.051157 	4926 	0.050800
39.81 	0.052770 	4927 	0.051938
39.83 	0.064451 	4934 	0.063501
39.85 	0.051756 	4927 	0.051042
39.87 	0.051574 	4925 	0.050860
39.89 	0.051480 	4934 	0.050767
39.91 	0.056278 	4922 	0.055207
39.93 	0.059550 	4937 	0.058482
39.95 	0.053306 	4915 	0.052710
39.97 	0.053774 	4928 	0.053299
39.99 	0.054745 	4932 	0.053913
40.01 	0.055104 	4918 	0.054489
40.03 	0.052760 	4928 	0.052047
40.05 	0.048607 	4917 	0.047773
40.07 	0.053626 	4923 	0.052040
40.09 	0.050041 	4916 	0.049425
40.11 	0.055533 	4916 	0.054461
40.13 	0.054943 	4896 	0.054345
40.15 	0.056788 	4913 	0.056192
40.17 	0.054586 	4928 	0.053378
40.19 	0.054575 	4929 	0.053505
40.21 	0.050861 	4935 	0.050248
40.23 	0.049473 	4932 	0.048523
40.25 	0.051220 	4920 	0.049910
40.27 	0.053879 	4937 	0.053167
40.29 	0.055815 	4927 	0.055696
40.31 	0.054869 	4939 	0.053545
40.33 	0.047040 	4932 	0.046565
40.35 	0.049400 	4919 	0.048567
40.37 	0.055589 	4929 	0.054381
40.39 	0.051105 	4931 	0.050036
40.41 	0.054416 	4925 	0.053207
40.43 	0.046526 	4922 	0.045812
40.45 	0.050476 	4933 	0.049645
40.47 	0.047784 	4918 	0.047545
40.49 	0.055623 	4926 	0.054553
40.51 	0.052215 	4922 	0.051143
40.53 	0.053092 	4916 	0.052020
40.55 	0.045232 	4908 	0.044874
40.57 	0.053783 	4890 	0.052825
40.59 	0.051853 	4937 	0.050904
40.61 	0.055927 	4935 	0.054977
40.63 	0.050101 	4930 	0.049983
40.65 	0.046790 	4937 	0.046078
40.67 	0.052311 	4932 	0.051005
40.69 	0.046992 	4937 	0.046280
40.71 	0.050892 	4932 	0.050298
40.73 	0.055826 	4926 	0.054875
40.75 	0.047860 	4931 	0.047266
40.77 	0.053250 	4939 	0.052301
40.79 	0.056864 	4924 	0.056151
40.81 	0.050799 	4941 	0.050207
40.83 	0.048701 	4928 	0.048345
40.85 	0.048335 	4924 	0.047978
40.87 	0.051745 	4928 	0.051507
40.89 	0.050497 	4931 	0.049408
40.91 	0.046110 	4923 	0.045634
40.93 	0.048642 	4934 	0.047930
40.95 	0.043761 	4913 	0.043404
40.97 	0.056052 	4924 	0.054981
40.99 	0.051990 	4924 	0.050543
41.01 	0.055375 	4912 	0.054421
41.03 	0.050561 	4905 	0.049605
41.05 	0.049028 	4936 	0.048197
41.07 	0.053550 	4930 	0.052599
41.09 	0.050010 	4939 	0.049061
41.11 	0.046809 	4935 	0.046452
41.13 	0.051864 	4936 	0.050914
41.15 	0.046752 	4941 	0.045803
41.17 	0.046007 	4934 	0.045770
41.19 	0.053955 	4930 	0.053361
41.21 	0.053069 	4937 	0.051863
41.23 	0.052440 	4939 	0.051491
41.25 	0.049868 	4933 	0.049393
41.27 	0.048672 	4931 	0.048078
41.29 	0.050731 	4928 	0.050255
41.31 	0.048044 	4933 	0.047213
41.33 	0.048815 	4937 	0.048578
41.35 	0.047590 	4938 	0.047234
41.37 	0.053006 	4924 	0.051816
41.39 	0.051490 	4933 	0.050896
41.41 	0.049939 	4926 	0.049087
41.43 	0.046865 	4929 	0.046271
41.45 	0.051486 	4914 	0.050870
41.47 	0.049330 	4926 	0.048498
41.49 	0.050491 	4892 	0.050251
41.51 	0.047976 	4940 	0.047264
41.53 	0.055218 	4944 	0.054508
41.55 	0.051469 	4935 	0.051113
41.57 	0.045537 	4941 	0.045419
41.59 	0.053112 	4933 	0.052043
41.61 	0.057339 	4953 	0.056984
41.63 	0.046780 	4938 	0.046424
41.65 	0.055792 	4929 	0.055079
41.67 	0.048381 	4940 	0.047195
41.69 	0.053568 	4947 	0.052857
41.71 	0.046210 	4934 	0.045379
41.73 	0.052269 	4936 	0.051537
41.75 	0.043417 	4929 	0.043179
41.77 	0.045740 	4941 	0.044910
41.79 	0.052994 	4944 	0.052283
41.81 	0.048420 	4936 	0.047352
41.83 	0.048904 	4928 	0.048053
41.85 	0.049403 	4939 	0.048928
41.87 	0.044782 	4935 	0.044307
41.89 	0.046017 	4933 	0.045779
41.91 	0.049433 	4936 	0.048602
41.93 	0.048054 	4932 	0.047578
41.95 	0.051308 	4931 	0.050714
41.97 	0.042735 	4914 	0.042239
41.99 	0.048930 	4905 	0.048094
42.01 	0.049575 	4942 	0.048982
42.03 	0.047580 	4939 	0.046987
42.05 	0.047254 	4952 	0.046426
42.07 	0.046182 	4937 	0.045470
42.09 	0.050121 	4948 	0.049273
42.11 	0.050961 	4945 	0.050131
42.13 	0.049747 	4945 	0.049392
42.15 	0.046173 	4938 	0.045698
42.17 	0.046970 	4918 	0.046256
42.19 	0.054401 	4908 	0.053566
42.21 	0.046725 	4901 	0.046247
42.23 	0.050899 	4892 	0.049941
42.25 	0.044590 	4889 	0.044230
42.27 	0.052934 	4874 	0.052093
42.29 	0.046885 	4863 	0.045660
42.31 	0.049640 	4855 	0.049278
42.33 	0.044270 	4834 	0.043300
42.35 	0.047954 	4838 	0.047590
42.37 	0.051346 	4830 	0.050618
42.39 	0.050583 	4804 	0.049851
42.41 	0.050375 	4804 	0.049399
42.43 	0.050292 	4792 	0.049070
42.45 	0.047320 	4776 	0.046584
42.47 	0.043442 	4765 	0.043073
42.49 	0.051626 	4765 	0.050889
42.51 	0.043854 	4743 	0.043360
42.53 	0.048435 	4728 	0.047815
42.55 	0.045455 	4708 	0.045081
42.57 	0.047780 	4730 	0.047285
42.59 	0.049693 	4729 	0.048806
42.61 	0.046517 	4708 	0.045397
42.63 	0.046931 	4709 	0.046309
42.65 	0.046318 	4685 	0.045443
42.67 	0.044193 	4684 	0.043693
42.69 	0.046855 	4674 	0.046228
42.71 	0.046537 	4663 	0.046034
42.73 	0.051724 	4640 	0.051345
42.75 	0.048083 	4617 	0.047703
42.77 	0.044565 	4600 	0.044183
42.79 	0.044959 	4582 	0.044703
42.81 	0.048224 	4562 	0.047454
42.83 	0.047178 	4536 	0.046274
42.85 	0.051016 	4528 	0.050498
42.87 	0.046010 	4499 	0.044969
42.89 	0.042411 	4480 	0.042018
42.91 	0.043312 	4456 	0.042787
42.93 	0.042510 	4446 	0.041588
42.95 	0.047328 	4416 	0.046378
42.97 	0.043399 	4401 	0.043000
42.99 	0.044926 	4385 	0.043857
43.01 	0.042860 	4363 	0.042458
43.03 	0.042003 	4333 	0.041192
43.05 	0.041387 	4325 	0.041252
43.07 	0.049814 	4296 	0.049132
43.09 	0.048331 	4283 	0.047920
43.11 	0.053114 	4255 	0.052563
43.13 	0.051215 	4237 	0.050386
43.15 	0.039230 	4206 	0.038812
43.17 	0.045944 	4179 	0.045243
43.19 	0.044349 	4194 	0.043790
43.21 	0.042665 	4172 	0.041823
43.23 	0.049350 	4154 	0.048222
43.25 	0.046917 	4135 	0.046185
43.27 	0.048965 	4105 	0.048108
43.29 	0.052927 	4100 	0.051927
43.31 	0.047806 	4079 	0.046944
43.33 	0.046408 	4051 	0.045685
43.35 	0.045139 	4032 	0.044558
43.37 	0.045828 	4015 	0.045099
43.39 	0.043978 	4002 	0.042953
43.41 	0.043807 	3972 	0.043512
43.43 	0.045202 	3960 	0.044314
43.45 	0.044219 	3935 	0.043772
43.47 	0.046927 	3921 	0.046628
43.49 	0.043880 	3897 	0.043730
43.51 	0.043332 	3877 	0.043030
43.53 	0.048149 	3863 	0.047088
43.55 	0.048583 	2964 	0.047792
43.57 	0.045130 	2238 	0.044344
43.59 	0.049828 	1746 	0.049157
43.61 	0.045152 	1351 	0.044718
43.63 	0.041958 	1001 	0.041958
43.65 	0.050946 	687 	0.050946
43.67 	0.043825 	502 	0.043825
43.69 	0.038147 	367 	0.036551
43.71 	0.046025 	239 	0.046025
43.73 	0.041667 	120 	0.041667
43.75 	0.000000 	16 	0.000000