File: Example_Data/25SC_s1_0035.004.dat
#F C:\frames\spec\25SC_s1_0035.004
#C title =s:35 frm:4 25SC_s1
#C wavelength =0.15406

#S 1  fr_average C:\frames\spec\25SC_s1_0035.004 C:\win32app\speccom\mask.axs chi 0 180 0 360 0.02
#C 2 theta =0.000000 to 180 deg
#C   q   =0.000000 to 81.568 nm^-1
#C  chi  =0.000000 to 360 deg
#C collumns:
#C  1 position (2theta or chi in degrees)
#C  2 average intensity (sum of all counts in the region divided with number of pixels)
#C  3 Number of pixels in region)
#C  4 error (sum of sqrt(intensity) for all pixels divided by number)
#N 4
#L TTh  Int  N_pix  Err
32.99 	0.114754 	61 	0.114754
33.01 	0.056128 	873 	0.053444
33.03 	0.047448 	1391 	0.046606
33.05 	0.057484 	1757 	0.056818
33.07 	0.058049 	2050 	0.056620
33.09 	0.059651 	2347 	0.059401
33.11 	0.056611 	2579 	0.055930
33.13 	0.056928 	2793 	0.056089
33.15 	0.056686 	2999 	0.056295
33.17 	0.061543 	3201 	0.060811
33.19 	0.060742 	3342 	0.060216
33.21 	0.066938 	3436 	0.065233
33.23 	0.055918 	3523 	0.055253
33.25 	0.055648 	3612 	0.054350
33.27 	0.057025 	3630 	0.056379
33.29 	0.054276 	3648 	0.052644
33.31 	0.057650 	3660 	0.056050
33.33 	0.059957 	3686 	0.059003
33.35 	0.058473 	3694 	0.057522
33.37 	0.060582 	3714 	0.059793
33.39 	0.054706 	3729 	0.053450
33.41 	0.052406 	3740 	0.051780
33.43 	0.056900 	3761 	0.055498
33.45 	0.052478 	3773 	0.051857
33.47 	0.053449 	3798 	0.053295
33.49 	0.061959 	3809 	0.060882
33.51 	0.059764 	3815 	0.057436
33.53 	0.058058 	3841 	0.057118
33.55 	0.057767 	3843 	0.057158
33.57 	0.062419 	3877 	0.061664
33.59 	0.061598 	3880 	0.059937
33.61 	0.056280 	3909 	0.055681
33.63 	0.064047 	3919 	0.063449
33.65 	0.069448 	3931 	0.067809
33.67 	0.052352 	3954 	0.051315
33.69 	0.057931 	3953 	0.057190
33.71 	0.062138 	3975 	0.061107
33.73 	0.059441 	4004 	0.058270
33.75 	0.061765 	3999 	0.061033
33.77 	0.058634 	4025 	0.058051
33.79 	0.063598 	4041 	0.062293
33.81 	0.062159 	4038 	0.060999
33.83 	0.060741 	4050 	0.060018
33.85 	0.059771 	4099 	0.058770
33.87 	0.057893 	4111 	0.056730
33.89 	0.057753 	4121 	0.057184
33.91 	0.058809 	4149 	0.057962
33.93 	0.052517 	4151 	0.052094
33.95 	0.059794 	4181 	0.058510
33.97 	0.063246 	4190 	0.061988
33.99 	0.059286 	4200 	0.058449
34.01 	0.058153 	4213 	0.057041
34.03 	0.056550 	4244 	0.055998
34.05 	0.054798 	4252 	0.054247
34.07 	0.061387 	4268 	0.060701
34.09 	0.061363 	4286 	0.061089
34.11 	0.053696 	4302 	0.053015
34.13 	0.060353 	4308 	0.059923
34.15 	0.056569 	4331 	0.055352
34.17 	0.053103 	4350 	0.052161
34.19 	0.055708 	4362 	0.054903
34.21 	0.055136 	4371 	0.054064
34.23 	0.060096 	4393 	0.059296
34.25 	0.058583 	4404 	0.057785
34.27 	0.061058 	4422 	0.059999
34.29 	0.057948 	4435 	0.056363
34.31 	0.058098 	4458 	0.056784
34.33 	0.058153 	4471 	0.056449
34.35 	0.061106 	4484 	0.059669
34.37 	0.061902 	4491 	0.060184
34.39 	0.061972 	4502 	0.060108
34.41 	0.067388 	4526 	0.066224
34.43 	0.065874 	4539 	0.064712
34.45 	0.063065 	4535 	0.061773
34.47 	0.055749 	4592 	0.054984
34.49 	0.058516 	4597 	0.057497
34.51 	0.060139 	4606 	0.058994
34.53 	0.058798 	4643 	0.057390
34.55 	0.062675 	4643 	0.061035
34.57 	0.050644 	4660 	0.050141
34.59 	0.059251 	4675 	0.058249
34.61 	0.063232 	4697 	0.062109
34.63 	0.051168 	4710 	0.050546
34.65 	0.053590 	4721 	0.053094
34.67 	0.059692 	4741 	0.059321
34.69 	0.053429 	4754 	0.052566
34.71 	0.049727 	4766 	0.049359
34.73 	0.062879 	4787 	0.061777
34.75 	0.052621 	4808 	0.052255
34.77 	0.049813 	4818 	0.048841
34.79 	0.059909 	4824 	0.058937
34.81 	0.054902 	4845 	0.053572
34.83 	0.053270 	4862 	0.051323
34.85 	0.063257 	4869 	0.062516
34.87 	0.052999 	4868 	0.052277
34.89 	0.061245 	4882 	0.060525
34.91 	0.052642 	4882 	0.051922
34.93 	0.059808 	4899 	0.058493
34.95 	0.055010 	4890 	0.054291
34.97 	0.057120 	4902 	0.056144
34.99 	0.057790 	4897 	0.056594
35.01 	0.060938 	4923 	0.060225
35.03 	0.057253 	4943 	0.056186
35.05 	0.056802 	4947 	0.055835
35.07 	0.052834 	4940 	0.051885
35.09 	0.057945 	4953 	0.056880
35.11 	0.055387 	4947 	0.054558
35.13 	0.060912 	4958 	0.059966
35.15 	0.060361 	4937 	0.059155
35.17 	0.062070 	4946 	0.061241
35.19 	0.057062 	4942 	0.055877
35.21 	0.049545 	4945 	0.048716
35.23 	0.050354 	4945 	0.050117
35.25 	0.059883 	4943 	0.058560
35.27 	0.055982 	4948 	0.055153
35.29 	0.056623 	4945 	0.055320
35.31 	0.055747 	4933 	0.055035
35.33 	0.064333 	4943 	0.062655
35.35 	0.062323 	4942 	0.060782
35.37 	0.058919 	4939 	0.057970
35.39 	0.064307 	4945 	0.063478
35.41 	0.057653 	4926 	0.056940
35.43 	0.065477 	4933 	0.064052
35.45 	0.058132 	4937 	0.056788
35.47 	0.059420 	4931 	0.058470
35.49 	0.060896 	4910 	0.059564
35.51 	0.057653 	4926 	0.056801
35.53 	0.057992 	4949 	0.057045
35.55 	0.055814 	4945 	0.054985
35.57 	0.055544 	4933 	0.054713
35.59 	0.061072 	4945 	0.060598
35.61 	0.051801 	4942 	0.050971
35.63 	0.054623 	4943 	0.053556
35.65 	0.054601 	4945 	0.053534
35.67 	0.056657 	4942 	0.055709
35.69 	0.053579 	4946 	0.052513
35.71 	0.055297 	4937 	0.054703
35.73 	0.055511 	4936 	0.054798
35.75 	0.059014 	4931 	0.057232
35.77 	0.049687 	4951 	0.049095
35.79 	0.056367 	4932 	0.054922
35.81 	0.054936 	4933 	0.053848
35.83 	0.057218 	4946 	0.056626
35.85 	0.059574 	4935 	0.058744
35.87 	0.063579 	4923 	0.062389
35.89 	0.068910 	4934 	0.067366
35.91 	0.059468 	4927 	0.058279
35.93 	0.061092 	4927 	0.060379
35.95 	0.054505 	4917 	0.053532
35.97 	0.060668 	4912 	0.059952
35.99 	0.056287 	4939 	0.055931
36.01 	0.054361 	4930 	0.053767
36.03 	0.052397 	4943 	0.052042
36.05 	0.052983 	4945 	0.052746
36.07 	0.061348 	4939 	0.059688
36.09 	0.054858 	4940 	0.054265
36.11 	0.053358 	4929 	0.052645
36.13 	0.053622 	4942 	0.052773
36.15 	0.056894 	4939 	0.055708
36.17 	0.057259 	4925 	0.055812
36.19 	0.058704 	4940 	0.057874
36.21 	0.059241 	4929 	0.057340
36.23 	0.061601 	4935 	0.060295
36.25 	0.058288 	4941 	0.057221
36.27 	0.057462 	4925 	0.056154
36.29 	0.054350 	4931 	0.053518
36.31 	0.054789 	4928 	0.054076
36.33 	0.055747 	4933 	0.055153
36.35 	0.054169 	4929 	0.053813
36.37 	0.052001 	4923 	0.051505
36.39 	0.058321 	4921 	0.056893
36.41 	0.060866 	4896 	0.060148
36.43 	0.054383 	4928 	0.053551
36.45 	0.056998 	4930 	0.056404
36.47 	0.064222 	4936 	0.062917
36.49 	0.055443 	4942 	0.054613
36.51 	0.057977 	4933 	0.057027
36.53 	0.051790 	4943 	0.050961
36.55 	0.051147 	4927 	0.050790
36.57 	0.057154 	4934 	0.056205
36.59 	0.059324 	4939 	0.058256
36.61 	0.056784 	4931 	0.056308
36.63 	0.056986 	4931 	0.055680
36.65 	0.055353 	4932 	0.054640
36.67 	0.054767 	4930 	0.053935
36.69 	0.054981 	4929 	0.054010
36.71 	0.061573 	4921 	0.060144
36.73 	0.052589 	4925 	0.051637
36.75 	0.050162 	4944 	0.049688
36.77 	0.056922 	4919 	0.056089
36.79 	0.049380 	4921 	0.048666
36.81 	0.053499 	4916 	0.052049
36.83 	0.053917 	4915 	0.053321
36.85 	0.049816 	4898 	0.048740
36.87 	0.049757 	4944 	0.049165
36.89 	0.056753 	4916 	0.055919
36.91 	0.056264 	4941 	0.055197
36.93 	0.054361 	4930 	0.053767
36.95 	0.056761 	4933 	0.055573
36.97 	0.054317 	4934 	0.053486
36.99 	0.052280 	4935 	0.051311
37.01 	0.050071 	4933 	0.049339
37.03 	0.048538 	4924 	0.047824
37.05 	0.057642 	4927 	0.056453
37.07 	0.051064 	4935 	0.049996
37.09 	0.052963 	4928 	0.052012
37.11 	0.048227 	4935 	0.047633
37.13 	0.055849 	4924 	0.055254
37.15 	0.051742 	4909 	0.051264
37.17 	0.051885 	4934 	0.051173
37.19 	0.055635 	4925 	0.054921
37.21 	0.057555 	4917 	0.057198
37.23 	0.052460 	4918 	0.051865
37.25 	0.050295 	4911 	0.049341
37.27 	0.062730 	4894 	0.062131
37.29 	0.055375 	4930 	0.054306
37.31 	0.049848 	4935 	0.049136
37.33 	0.050132 	4927 	0.049300
37.35 	0.053463 	4938 	0.052633
37.37 	0.053379 	4927 	0.052666
37.39 	0.054350 	4931 	0.053756
37.41 	0.052728 	4931 	0.051302
37.43 	0.048054 	4932 	0.047460
37.45 	0.053615 	4924 	0.052644
37.47 	0.057212 	4929 	0.056004
37.49 	0.054641 	4923 	0.053571
37.51 	0.049260 	4933 	0.048310
37.53 	0.058548 	4919 	0.058072
37.55 	0.057404 	4930 	0.056334
37.57 	0.055635 	4925 	0.054564
37.59 	0.055341 	4915 	0.054387
37.61 	0.054043 	4922 	0.053448
37.63 	0.055296 	4919 	0.054343
37.65 	0.057137 	4918 	0.055946
37.67 	0.053834 	4904 	0.052639
37.69 	0.050225 	4898 	0.049866
37.71 	0.052749 	4929 	0.051917
37.73 	0.051532 	4929 	0.050343
37.75 	0.052834 	4940 	0.052123
37.77 	0.052642 	4920 	0.052047
37.79 	0.053550 	4930 	0.052718
37.81 	0.058585 	4933 	0.058229
37.83 	0.053252 	4920 	0.052180
37.85 	0.055872 	4922 	0.055158
37.87 	0.055477 	4939 	0.054528
37.89 	0.049949 	4925 	0.049236
37.91 	0.056187 	4930 	0.055236
37.93 	0.056516 	4919 	0.056039
37.95 	0.049177 	4921 	0.048225
37.97 	0.053763 	4929 	0.052932
37.99 	0.052932 	4912 	0.052335
38.01 	0.056006 	4928 	0.055056
38.03 	0.058668 	4909 	0.057832
38.05 	0.055838 	4925 	0.055243
38.07 	0.060094 	4909 	0.058781
38.09 	0.054121 	4878 	0.053280
38.11 	0.058156 	4935 	0.056494
38.13 	0.054689 	4937 	0.053977
38.15 	0.055714 	4918 	0.054523
38.17 	0.053347 	4930 	0.052515
38.19 	0.055984 	4930 	0.055152
38.21 	0.063579 	4923 	0.062508
38.23 	0.055083 	4938 	0.054253
38.25 	0.061216 	4917 	0.059667
38.27 	0.061866 	4930 	0.060559
38.29 	0.066409 	4924 	0.065815
38.31 	0.063122 	4927 	0.062170
38.33 	0.062754 	4924 	0.061921
38.35 	0.059659 	4928 	0.058827
38.37 	0.067628 	4924 	0.066319
38.39 	0.069057 	4909 	0.068102
38.41 	0.065610 	4923 	0.064421
38.43 	0.068959 	4916 	0.067866
38.45 	0.066490 	4918 	0.064803
38.47 	0.066843 	4907 	0.066127
38.49 	0.057822 	4877 	0.057222
38.51 	0.070762 	4932 	0.069218
38.53 	0.061067 	4929 	0.059978
38.55 	0.062804 	4936 	0.061617
38.57 	0.059110 	4923 	0.058634
38.59 	0.060114 	4924 	0.059162
38.61 	0.061183 	4936 	0.060471
38.63 	0.058083 	4924 	0.057131
38.65 	0.062220 	4918 	0.061268
38.67 	0.062791 	4937 	0.061961
38.69 	0.055465 	4922 	0.054632
38.71 	0.052803 	4924 	0.051732
38.73 	0.060797 	4918 	0.059229
38.75 	0.057642 	4927 	0.056809
38.77 	0.053220 	4923 	0.052625
38.79 	0.056952 	4934 	0.056239
38.81 	0.049267 	4912 	0.048313
38.83 	0.052043 	4919 	0.050714
38.85 	0.050285 	4912 	0.049569
38.87 	0.048870 	4911 	0.048035
38.89 	0.053911 	4897 	0.052316
38.91 	0.054252 	4903 	0.053177
38.93 	0.053463 	4938 	0.052751
38.95 	0.048394 	4918 	0.048036
38.97 	0.053539 	4931 	0.053182
38.99 	0.048410 	4937 	0.048054
39.01 	0.052867 	4918 	0.051795
39.03 	0.051885 	4934 	0.050935
39.05 	0.057259 	4925 	0.056426
39.07 	0.053412 	4924 	0.052579
39.09 	0.053016 	4923 	0.052540
39.11 	0.047252 	4931 	0.047014
39.13 	0.051391 	4923 	0.050677
39.15 	0.051068 	4915 	0.050234
39.17 	0.049423 	4937 	0.048592
39.19 	0.056335 	4917 	0.054866
39.21 	0.048676 	4910 	0.047960
39.23 	0.052183 	4925 	0.051707
39.25 	0.055668 	4922 	0.054835
39.27 	0.053564 	4910 	0.051894
39.29 	0.048357 	4901 	0.047640
39.31 	0.050573 	4884 	0.049734
39.33 	0.048672 	4931 	0.048078
39.35 	0.049443 	4935 	0.048236
39.37 	0.050720 	4929 	0.049888
39.39 	0.052749 	4929 	0.051917
39.41 	0.048469 	4931 	0.047875
39.43 	0.054733 	4933 	0.054140
39.45 	0.058274 	4925 	0.057323
39.47 	0.059110 	4923 	0.057782
39.49 	0.048044 	4933 	0.046956
39.51 	0.051584 	4924 	0.051465
39.53 	0.059923 	4923 	0.059328
39.55 	0.060988 	4919 	0.059440
39.57 	0.051693 	4933 	0.051336
39.59 	0.055782 	4912 	0.054947
39.61 	0.053829 	4923 	0.052639
39.63 	0.058716 	4922 	0.057407
39.65 	0.051360 	4926 	0.050171
39.67 	0.051089 	4913 	0.050612
39.69 	0.050854 	4916 	0.050378
39.71 	0.059448 	4895 	0.058252
39.73 	0.049511 	4908 	0.048556
39.75 	0.052354 	4928 	0.051284
39.77 	0.060588 	4935 	0.059875
39.79 	0.053796 	4926 	0.053439
39.81 	0.053785 	4927 	0.052953
39.83 	0.054114 	4934 	0.053165
39.85 	0.052770 	4927 	0.051700
39.87 	0.055635 	4925 	0.055040
39.89 	0.054520 	4934 	0.053788
39.91 	0.055872 	4922 	0.054681
39.93 	0.053069 	4937 	0.052475
39.95 	0.054527 	4915 	0.053335
39.97 	0.050325 	4928 	0.049611
39.99 	0.052514 	4932 	0.052039
40.01 	0.049614 	4918 	0.048542
40.03 	0.047281 	4928 	0.046687
40.05 	0.050031 	4917 	0.048720
40.07 	0.047938 	4923 	0.047224
40.09 	0.052889 	4916 	0.052293
40.11 	0.057974 	4916 	0.057021
40.13 	0.055351 	4896 	0.054155
40.15 	0.057602 	4913 	0.056648
40.17 	0.047890 	4928 	0.047176
40.19 	0.051938 	4929 	0.051086
40.21 	0.050659 	4935 	0.050065
40.23 	0.050487 	4932 	0.049536
40.25 	0.050203 	4920 	0.049727
40.27 	0.056512 	4937 	0.055444
40.29 	0.055409 	4927 	0.054577
40.31 	0.053857 	4939 	0.053145
40.33 	0.051298 	4932 	0.050585
40.35 	0.055702 	4919 	0.054988
40.37 	0.053763 	4929 	0.052813
40.39 	0.053539 	4931 	0.052351
40.41 	0.053198 	4925 	0.052246
40.43 	0.050183 	4922 	0.049350
40.45 	0.056963 	4933 	0.055895
40.47 	0.053274 	4918 	0.051844
40.49 	0.055420 	4926 	0.054073
40.51 	0.054043 	4922 	0.052972
40.53 	0.055736 	4916 	0.055021
40.55 	0.052975 	4908 	0.052617
40.57 	0.051943 	4890 	0.050865
40.59 	0.049828 	4937 	0.049116
40.61 	0.052888 	4935 	0.051582
40.63 	0.053955 	4930 	0.053005
40.65 	0.050030 	4937 	0.049081
40.67 	0.049676 	4932 	0.048607
40.69 	0.049828 	4937 	0.048997
40.71 	0.051298 	4932 	0.050704
40.73 	0.048721 	4926 	0.047770
40.75 	0.053133 	4931 	0.051826
40.77 	0.052440 	4939 	0.052321
40.79 	0.056052 	4924 	0.054386
40.81 	0.050192 	4941 	0.049718
40.83 	0.052760 	4928 	0.051571
40.85 	0.047522 	4924 	0.047284
40.87 	0.047078 	4928 	0.046602
40.89 	0.054553 	4931 	0.053840
40.91 	0.054641 	4923 	0.053928
40.93 	0.048237 	4934 	0.047524
40.95 	0.049257 	4913 	0.048422
40.97 	0.051381 	4924 	0.050291
40.99 	0.050772 	4924 	0.049681
41.01 	0.054357 	4912 	0.053760
41.03 	0.044648 	4905 	0.044051
41.05 	0.046596 	4936 	0.046003
41.07 	0.052535 	4930 	0.052060
41.09 	0.046973 	4939 	0.046143
41.11 	0.049645 	4935 	0.049171
41.13 	0.048420 	4936 	0.047945
41.15 	0.042704 	4941 	0.042092
41.17 	0.053506 	4934 	0.052913
41.19 	0.053144 	4930 	0.052431
41.21 	0.046790 	4937 	0.046434
41.23 	0.053047 	4939 	0.051693
41.25 	0.048652 	4933 	0.048058
41.27 	0.049686 	4931 	0.049092
41.29 	0.048498 	4928 	0.048142
41.31 	0.046625 	4933 	0.045675
41.33 	0.048005 	4937 	0.047649
41.35 	0.049210 	4938 	0.048261
41.37 	0.048132 	4924 	0.047398
41.39 	0.053112 	4933 	0.051687
41.41 	0.048112 	4926 	0.047636
41.43 	0.048489 	4929 	0.047657
41.45 	0.052707 	4914 	0.051991
41.47 	0.048721 	4926 	0.048483
41.49 	0.049060 	4892 	0.048461
41.51 	0.049190 	4940 	0.048479
41.53 	0.048746 	4944 	0.047660
41.55 	0.044377 	4935 	0.043902
41.57 	0.052216 	4941 	0.051505
41.59 	0.054125 	4933 	0.052819
41.61 	0.047850 	4953 	0.047377
41.63 	0.050020 	4938 	0.049190
41.65 	0.050923 	4929 	0.050448
41.67 	0.052632 	4940 	0.051446
41.69 	0.046897 	4947 	0.046187
41.71 	0.048845 	4934 	0.048370
41.73 	0.046191 	4936 	0.045835
41.75 	0.045851 	4929 	0.045000
41.77 	0.046549 	4941 	0.045700
41.79 	0.047735 	4944 	0.047024
41.81 	0.049433 	4936 	0.048365
41.83 	0.049513 	4928 	0.048800
41.85 	0.044138 	4939 	0.043901
41.87 	0.049037 	4935 	0.047831
41.89 	0.049666 	4933 	0.049072
41.91 	0.047407 	4936 	0.047288
41.93 	0.042985 	4932 	0.042747
41.95 	0.050700 	4931 	0.049749
41.97 	0.045991 	4914 	0.045395
41.99 	0.043425 	4905 	0.042947
42.01 	0.048563 	4942 	0.047852
42.03 	0.048795 	4939 	0.047728
42.05 	0.047658 	4952 	0.046948
42.07 	0.047600 	4937 	0.046769
42.09 	0.046281 	4948 	0.045926
42.11 	0.050758 	4945 	0.049436
42.13 	0.044692 	4945 	0.043981
42.15 	0.044552 	4938 	0.044197
42.17 	0.048800 	4918 	0.048205
42.19 	0.049104 	4908 	0.048387
42.21 	0.043665 	4901 	0.043426
42.23 	0.045789 	4892 	0.045190
42.25 	0.048067 	4889 	0.047348
42.27 	0.043496 	4874 	0.042775
42.29 	0.053465 	4863 	0.052742
42.31 	0.047992 	4855 	0.047147
42.33 	0.048614 	4834 	0.047766
42.35 	0.048574 	4838 	0.047968
42.37 	0.050518 	4830 	0.049790
42.39 	0.039342 	4804 	0.038976
42.41 	0.044754 	4804 	0.044389
42.43 	0.045910 	4792 	0.045910
42.45 	0.038945 	4776 	0.038454
42.47 	0.052466 	4765 	0.052097
42.49 	0.048269 	4765 	0.047408
42.51 	0.041746 	4743 	0.041622
42.53 	0.041455 	4728 	0.041207
42.55 	0.048216 	4708 	0.047967
42.57 	0.049683 	4730 	0.049187
42.59 	0.041446 	4729 	0.040579
42.61 	0.042268 	4708 	0.042020
42.63 	0.048206 	4709 	0.047957
42.65 	0.043757 	4685 	0.043257
42.67 	0.048463 	4684 	0.047567
42.69 	0.047069 	4674 	0.047069
42.71 	0.040961 	4663 	0.040584
42.73 	0.048491 	4640 	0.047608
42.75 	0.040936 	4617 	0.040301
42.77 	0.047609 	4600 	0.046803
42.79 	0.047141 	4582 	0.045863
42.81 	0.039237 	4562 	0.038595
42.83 	0.042108 	4536 	0.041591
42.85 	0.046599 	4528 	0.046081
42.87 	0.048677 	4499 	0.047506
42.89 	0.044420 	4480 	0.043635
42.91 	0.044659 	4456 	0.044265
42.93 	0.038012 	4446 	0.037485
42.95 	0.046875 	4416 	0.046212
42.97 	0.047262 	4401 	0.046596
42.99 	0.047206 	4385 	0.046672
43.01 	0.044465 	4363 	0.044062
43.03 	0.046388 	4333 	0.045712
43.05 	0.047861 	4325 	0.046642
43.07 	0.048650 	4296 	0.048241
43.09 	0.048097 	4283 	0.047550
43.11 	0.047709 	4255 	0.046607
43.13 	0.040831 	4237 	0.040278
43.15 	0.051831 	4206 	0.051134
43.17 	0.046423 	4179 	0.045582
43.19 	0.040773 	4194 	0.040354
43.21 	0.044583 	4172 	0.044583
43.23 	0.043813 	4154 	0.043108
43.25 	0.048851 	4135 	0.048001
43.27 	0.048965 	4105 	0.048108
43.29 	0.051220 	4100 	0.050791
43.31 	0.046090 	4079 	0.045515
43.33 	0.043446 	4051 	0.043157
43.35 	0.042659 	4032 	0.042223
43.37 	0.038356 	4015 	0.038064
43.39 	0.048226 	4002 	0.047470
43.41 	0.043303 	3972 	0.043303
43.43 	0.047727 	3960 	0.047727
43.45 	0.043202 	3935 	0.042755
43.47 	0.048457 	3921 	0.048009
43.49 	0.049525 	3897 	0.048749
43.51 	0.043590 	3877 	0.043439
43.53 	0.047373 	3863 	0.046614
43.55 	0.037449 	2964 	0.037252
43.57 	0.047811 	2238 	0.047811
43.59 	0.041237 	1746 	0.040566
43.61 	0.051073 	1351 	0.050640
43.63 	0.041958 	1001 	0.041373
43.65 	0.033479 	687 	0.033479
43.67 	0.035857 	502 	0.034690
43.69 	0.035422 	367 	0.035422
43.71 	0.033473 	239 	0.033473
43.73 	0.025000 	120 	0.025000
43.75 	0.000000 	16 	0.000000