File: Example_Data/25SC_s1_0028.000.dat
#F C:\frames\spec\25SC_s1_0028.000
#C title =s:28 frm:0 25SC_s1
#C wavelength =0.15406

#S 1  fr_average C:\frames\spec\25SC_s1_0028.000 C:\win32app\speccom\mask.axs chi 0 180 0 360 0.02
#C 2 theta =0.000000 to 180 deg
#C   q   =0.000000 to 81.568 nm^-1
#C  chi  =0.000000 to 360 deg
#C collumns:
#C  1 position (2theta or chi in degrees)
#C  2 average intensity (sum of all counts in the region divided with number of pixels)
#C  3 Number of pixels in region)
#C  4 error (sum of sqrt(intensity) for all pixels divided by number)
#N 4
#L TTh  Int  N_pix  Err
32.99 	0.032787 	61 	0.032787
33.01 	0.049255 	873 	0.048584
33.03 	0.061107 	1391 	0.060265
33.05 	0.058054 	1757 	0.056720
33.07 	0.059024 	2050 	0.057310
33.09 	0.062207 	2347 	0.061458
33.11 	0.066693 	2579 	0.066011
33.13 	0.056212 	2793 	0.056002
33.15 	0.066355 	2999 	0.065379
33.17 	0.059669 	3201 	0.058205
33.19 	0.063136 	3342 	0.061383
33.21 	0.063446 	3436 	0.062593
33.23 	0.057905 	3523 	0.056575
33.25 	0.067276 	3612 	0.065627
33.27 	0.052893 	3630 	0.051763
33.29 	0.064419 	3648 	0.063134
33.31 	0.058743 	3660 	0.057463
33.33 	0.063483 	3686 	0.061550
33.35 	0.059556 	3694 	0.058446
33.37 	0.056543 	3714 	0.054966
33.39 	0.061679 	3729 	0.061207
33.41 	0.058824 	3740 	0.057571
33.43 	0.062217 	3761 	0.060790
33.45 	0.061755 	3773 	0.060823
33.47 	0.059505 	3798 	0.058580
33.49 	0.055658 	3809 	0.054735
33.51 	0.054260 	3815 	0.053799
33.53 	0.060141 	3841 	0.059378
33.55 	0.064012 	3843 	0.062183
33.57 	0.053908 	3877 	0.052850
33.59 	0.058763 	3880 	0.058310
33.61 	0.062932 	3909 	0.062033
33.63 	0.059454 	3919 	0.058557
33.65 	0.060799 	3931 	0.059756
33.67 	0.060698 	3954 	0.059513
33.69 	0.062990 	3953 	0.061656
33.71 	0.059623 	3975 	0.057412
33.73 	0.070430 	4004 	0.069113
33.75 	0.059015 	3999 	0.056671
33.77 	0.056646 	4025 	0.055773
33.79 	0.059144 	4041 	0.057984
33.81 	0.063645 	4038 	0.062775
33.83 	0.053333 	4050 	0.052899
33.85 	0.056599 	4099 	0.055456
33.87 	0.059110 	4111 	0.058112
33.89 	0.059209 	4121 	0.058640
33.91 	0.061461 	4149 	0.060190
33.93 	0.061431 	4151 	0.060020
33.95 	0.057642 	4181 	0.056101
33.97 	0.056802 	4190 	0.055683
33.99 	0.052619 	4200 	0.052201
34.01 	0.057916 	4213 	0.056804
34.03 	0.056315 	4244 	0.055073
34.05 	0.061148 	4252 	0.059908
34.07 	0.049438 	4268 	0.048889
34.09 	0.054130 	4286 	0.053310
34.11 	0.059507 	4302 	0.058690
34.13 	0.062210 	4308 	0.060986
34.15 	0.060725 	4331 	0.059237
34.17 	0.062529 	4350 	0.061586
34.19 	0.059376 	4362 	0.058839
34.21 	0.059254 	4371 	0.058584
34.23 	0.056226 	4393 	0.055426
34.25 	0.053134 	4404 	0.052069
34.27 	0.059249 	4422 	0.058719
34.29 	0.053213 	4435 	0.052553
34.31 	0.059668 	4458 	0.058354
34.33 	0.056363 	4471 	0.055708
34.35 	0.059322 	4484 	0.058408
34.37 	0.052995 	4491 	0.052473
34.39 	0.057752 	4502 	0.057492
34.41 	0.058551 	4526 	0.057623
34.43 	0.056180 	4539 	0.055126
34.45 	0.051158 	4535 	0.050641
34.47 	0.059233 	4592 	0.058085
34.49 	0.057646 	4597 	0.056499
34.51 	0.056665 	4606 	0.055881
34.53 	0.049322 	4643 	0.048691
34.55 	0.055137 	4643 	0.053497
34.57 	0.058155 	4660 	0.057023
34.59 	0.059251 	4675 	0.058249
34.61 	0.050245 	4697 	0.049871
34.63 	0.057537 	4710 	0.056667
34.65 	0.055709 	4721 	0.054468
34.67 	0.055263 	4741 	0.054398
34.69 	0.058477 	4754 	0.057101
34.71 	0.058959 	4766 	0.057976
34.73 	0.054314 	4787 	0.053335
34.75 	0.058236 	4808 	0.057627
34.77 	0.061851 	4818 	0.060514
34.79 	0.051617 	4824 	0.050403
34.81 	0.058617 	4845 	0.057771
34.83 	0.052448 	4862 	0.051845
34.85 	0.052783 	4869 	0.052181
34.87 	0.053821 	4868 	0.053340
34.89 	0.056534 	4882 	0.054955
34.91 	0.061860 	4882 	0.061020
34.93 	0.060829 	4899 	0.060111
34.95 	0.052556 	4890 	0.051598
34.97 	0.056916 	4902 	0.055362
34.99 	0.056565 	4897 	0.055469
35.01 	0.053016 	4923 	0.052065
35.03 	0.051588 	4943 	0.050996
35.05 	0.053568 	4947 	0.052976
35.07 	0.062955 	4940 	0.061750
35.09 	0.061175 	4953 	0.060939
35.11 	0.052961 	4947 	0.052488
35.13 	0.052239 	4958 	0.051648
35.15 	0.052056 	4937 	0.051443
35.17 	0.057016 	4946 	0.055831
35.19 	0.048563 	4942 	0.048089
35.21 	0.052376 	4945 	0.052021
35.23 	0.058443 	4945 	0.057377
35.25 	0.059680 	4943 	0.058969
35.27 	0.058003 	4948 	0.057175
35.29 	0.063903 	4945 	0.062718
35.31 	0.063045 	4933 	0.062095
35.33 	0.054420 	4943 	0.053097
35.35 	0.058074 	4942 	0.057244
35.37 	0.061146 	4939 	0.059604
35.39 	0.059656 	4945 	0.058590
35.41 	0.055420 	4926 	0.054112
35.43 	0.055950 	4933 	0.055237
35.45 	0.056715 	4937 	0.055884
35.47 	0.053742 	4931 	0.053029
35.49 	0.052342 	4910 	0.051388
35.51 	0.062525 	4926 	0.060603
35.53 	0.055769 	4949 	0.054566
35.55 	0.052781 	4945 	0.052188
35.57 	0.052909 	4933 	0.052196
35.59 	0.058241 	4945 	0.057411
35.61 	0.064953 	4942 	0.063768
35.63 	0.061906 	4943 	0.060602
35.65 	0.058443 	4945 	0.057495
35.67 	0.056860 	4942 	0.056247
35.69 	0.050344 	4946 	0.050225
35.71 	0.057727 	4937 	0.057134
35.73 	0.053079 	4936 	0.051992
35.75 	0.053742 	4931 	0.052672
35.77 	0.064835 	4951 	0.063297
35.79 	0.056772 	4932 	0.055327
35.81 	0.059396 	4933 	0.058446
35.83 	0.054185 	4946 	0.053119
35.85 	0.057143 	4935 	0.056312
35.87 	0.058704 	4923 	0.057514
35.89 	0.054520 	4934 	0.053788
35.91 	0.055409 	4927 	0.054101
35.93 	0.056018 	4927 	0.055067
35.95 	0.053895 	4917 	0.053656
35.97 	0.054153 	4912 	0.053318
35.99 	0.057906 	4939 	0.056839
36.01 	0.059635 	4930 	0.058684
36.03 	0.061501 	4943 	0.061027
36.05 	0.054803 	4945 	0.053974
36.07 	0.058919 	4939 	0.058089
36.09 	0.059919 	4940 	0.058852
36.11 	0.061676 	4929 	0.060606
36.13 	0.054027 	4942 	0.053078
36.15 	0.060741 	4939 	0.059555
36.17 	0.063959 	4925 	0.062651
36.19 	0.062348 	4940 	0.061380
36.21 	0.060053 	4929 	0.058983
36.23 	0.066261 	4935 	0.064580
36.25 	0.061728 	4941 	0.060780
36.27 	0.057665 	4925 	0.056713
36.29 	0.059623 	4931 	0.058554
36.31 	0.061485 	4928 	0.060634
36.33 	0.057369 	4933 	0.056419
36.35 	0.059241 	4929 	0.058172
36.37 	0.063173 	4923 	0.061983
36.39 	0.058728 	4921 	0.058133
36.41 	0.057394 	4896 	0.056796
36.43 	0.055804 	4928 	0.055447
36.45 	0.054970 	4930 	0.054019
36.47 	0.057131 	4936 	0.056419
36.49 	0.058883 	4942 	0.057698
36.51 	0.058788 	4933 	0.057838
36.53 	0.058669 	4943 	0.057365
36.55 	0.055409 	4927 	0.054458
36.57 	0.059181 	4934 	0.058231
36.59 	0.059324 	4939 	0.058494
36.61 	0.057189 	4931 	0.056358
36.63 	0.063070 	4931 	0.062001
36.65 	0.056164 	4932 	0.054838
36.67 	0.054767 	4930 	0.054173
36.69 	0.054778 	4929 	0.054065
36.71 	0.057305 	4921 	0.056353
36.73 	0.056650 	4925 	0.056293
36.75 	0.059668 	4944 	0.058483
36.77 	0.054889 	4919 	0.053817
36.79 	0.055273 	4921 	0.054083
36.81 	0.060415 	4916 	0.058985
36.83 	0.058800 	4915 	0.058323
36.85 	0.055125 	4898 	0.053809
36.87 	0.053600 	4944 	0.052140
36.89 	0.059601 	4916 	0.058529
36.91 	0.062943 	4941 	0.061738
36.93 	0.055172 	4930 	0.054459
36.95 	0.056558 	4933 	0.055470
36.97 	0.061411 	4934 	0.060105
36.99 	0.061196 	4935 	0.060226
37.01 	0.061423 	4933 	0.060117
37.03 	0.056255 	4924 	0.055422
37.05 	0.059874 	4927 	0.058804
37.07 	0.059372 	4935 	0.058185
37.09 	0.059659 	4928 	0.058589
37.11 	0.052685 	4935 	0.051498
37.13 	0.052396 	4924 	0.051326
37.15 	0.059686 	4909 	0.058732
37.17 	0.054114 	4934 	0.053639
37.19 	0.056041 	4925 	0.054732
37.21 	0.059996 	4917 	0.059519
37.23 	0.061000 	4918 	0.059690
37.25 	0.055589 	4911 	0.054516
37.27 	0.056191 	4894 	0.055353
37.29 	0.056592 	4930 	0.055385
37.31 	0.061398 	4935 	0.060092
37.33 	0.051350 	4927 	0.050755
37.35 	0.057311 	4938 	0.056718
37.37 	0.050538 	4927 	0.050300
37.39 	0.057595 	4931 	0.056526
37.41 	0.060434 	4931 	0.059840
37.43 	0.060827 	4932 	0.059046
37.45 	0.050162 	4924 	0.049330
37.47 	0.054169 	4929 	0.053694
37.49 	0.056470 	4923 	0.055875
37.51 	0.058788 	4933 	0.057343
37.53 	0.054279 	4919 	0.053069
37.55 	0.054158 	4930 	0.053921
37.57 	0.051371 	4925 	0.050657
37.59 	0.056765 	4915 	0.055692
37.61 	0.055262 	4922 	0.054667
37.63 	0.057532 	4919 	0.056698
37.65 	0.054290 	4918 	0.053695
37.67 	0.051591 	4904 	0.050396
37.69 	0.060637 	4898 	0.059919
37.71 	0.057821 	4929 	0.057108
37.73 	0.056401 	4929 	0.055926
37.75 	0.053239 	4940 	0.051816
37.77 	0.055081 	4920 	0.053633
37.79 	0.058012 	4930 	0.057062
37.81 	0.059801 	4933 	0.059089
37.83 	0.053049 	4920 	0.052692
37.85 	0.056481 	4922 	0.054914
37.87 	0.054869 	4939 	0.054158
37.89 	0.061726 	4925 	0.060655
37.91 	0.050913 	4930 	0.049943
37.93 	0.055499 	4919 	0.053832
37.95 	0.055883 	4921 	0.055407
37.97 	0.057415 	4929 	0.056465
37.99 	0.058836 	4912 	0.058120
38.01 	0.060471 	4928 	0.059520
38.03 	0.057242 	4909 	0.056287
38.05 	0.055635 	4925 	0.054921
38.07 	0.059279 	4909 	0.058802
38.09 	0.060476 	4878 	0.059515
38.11 	0.056332 	4935 	0.055739
38.13 	0.062994 	4937 	0.062282
38.15 	0.056934 	4918 	0.056219
38.17 	0.060649 	4930 	0.059699
38.19 	0.055578 	4930 	0.054865
38.21 	0.067235 	4923 	0.065451
38.23 	0.057716 	4938 	0.056510
38.25 	0.063453 	4917 	0.062024
38.27 	0.065314 	4930 	0.063651
38.29 	0.066613 	4924 	0.065522
38.31 	0.065963 	4927 	0.065369
38.33 	0.065800 	4924 	0.065086
38.35 	0.070008 	4928 	0.068701
38.37 	0.072096 	4924 	0.070649
38.39 	0.073742 	4909 	0.072310
38.41 	0.070079 	4923 	0.068889
38.43 	0.082181 	4916 	0.080751
38.45 	0.072590 	4918 	0.071142
38.47 	0.075199 	4907 	0.073647
38.49 	0.073201 	4877 	0.071259
38.51 	0.072587 	4932 	0.070924
38.53 	0.084398 	4929 	0.082259
38.55 	0.087318 	4936 	0.085874
38.57 	0.081658 	4923 	0.080230
38.59 	0.080016 	4924 	0.078450
38.61 	0.082455 	4936 	0.080300
38.63 	0.078595 	4924 	0.076077
38.65 	0.080521 	4918 	0.079091
38.67 	0.081831 	4937 	0.080407
38.69 	0.078423 	4922 	0.076381
38.71 	0.075955 	4924 	0.075003
38.73 	0.068524 	4918 	0.067928
38.75 	0.071646 	4927 	0.070933
38.77 	0.065610 	4923 	0.064401
38.79 	0.069923 	4934 	0.068023
38.81 	0.062093 	4912 	0.061258
38.83 	0.061191 	4919 	0.060120
38.85 	0.060057 	4912 	0.059222
38.87 	0.062105 	4911 	0.060793
38.89 	0.057995 	4897 	0.056798
38.91 	0.056904 	4903 	0.055709
38.93 	0.053058 	4938 	0.052228
38.95 	0.051850 	4918 	0.050778
38.97 	0.050294 	4931 	0.049581
38.99 	0.057930 	4937 	0.056605
39.01 	0.051240 	4918 	0.050645
39.03 	0.051885 	4934 	0.050698
39.05 	0.049746 	4925 	0.049270
39.07 	0.049147 	4924 	0.048790
39.09 	0.047532 	4923 	0.046699
39.11 	0.045224 	4931 	0.044511
39.13 	0.047532 	4923 	0.047056
39.15 	0.053103 	4915 	0.051772
39.17 	0.045777 	4937 	0.045302
39.19 	0.049827 	4917 	0.048993
39.21 	0.048065 	4910 	0.047707
39.23 	0.049949 	4925 	0.049117
39.25 	0.048354 	4922 	0.047521
39.27 	0.045214 	4910 	0.044737
39.29 	0.046521 	4901 	0.045684
39.31 	0.049140 	4884 	0.048061
39.33 	0.043602 	4931 	0.043008
39.35 	0.049037 	4935 	0.048681
39.37 	0.048691 	4929 	0.048097
39.39 	0.050517 	4929 	0.049567
39.41 	0.052119 	4931 	0.051387
39.43 	0.042773 	4933 	0.042179
39.45 	0.045482 	4925 	0.044888
39.47 	0.048345 	4923 	0.047393
39.49 	0.046422 	4933 	0.046066
39.51 	0.046507 	4924 	0.046031
39.53 	0.046923 	4923 	0.046685
39.55 	0.044521 	4919 	0.043688
39.57 	0.044598 	4933 	0.043885
39.59 	0.048046 	4912 	0.047449
39.61 	0.042860 	4923 	0.042384
39.63 	0.046729 	4922 	0.045658
39.65 	0.045270 	4926 	0.044556
39.67 	0.045593 	4913 	0.045236
39.69 	0.042718 	4916 	0.042341
39.71 	0.048621 	4895 	0.047544
39.73 	0.048900 	4908 	0.048184
39.75 	0.048498 	4928 	0.048023
39.77 	0.041945 	4935 	0.041708
39.79 	0.042631 	4926 	0.042274
39.81 	0.042013 	4927 	0.041162
39.83 	0.046413 	4934 	0.045938
39.85 	0.041607 	4927 	0.041013
39.87 	0.040406 	4925 	0.039811
39.89 	0.042967 	4934 	0.042492
39.91 	0.041853 	4922 	0.041139
39.93 	0.043346 	4937 	0.043109
39.95 	0.042116 	4915 	0.041639
39.97 	0.045860 	4928 	0.045385
39.99 	0.043593 	4932 	0.043118
40.01 	0.047377 	4918 	0.046662
40.03 	0.042411 	4928 	0.042054
40.05 	0.042302 	4917 	0.041826
40.07 	0.045907 	4923 	0.045431
40.09 	0.038853 	4916 	0.038257
40.11 	0.047396 	4916 	0.046920
40.13 	0.049020 	4896 	0.048661
40.15 	0.044169 	4913 	0.043930
40.17 	0.041802 	4928 	0.041326
40.19 	0.041793 	4929 	0.041437
40.21 	0.042553 	4935 	0.041960
40.23 	0.042174 	4932 	0.041936
40.25 	0.041260 	4920 	0.040903
40.27 	0.041118 	4937 	0.040525
40.29 	0.047087 	4927 	0.046493
40.31 	0.039279 	4939 	0.038923
40.33 	0.049676 	4932 	0.049200
40.35 	0.041878 	4919 	0.041640
40.37 	0.044228 	4929 	0.043396
40.39 	0.041371 	4931 	0.041015
40.41 	0.040812 	4925 	0.040336
40.43 	0.045916 	4922 	0.045440
40.45 	0.039327 	4933 	0.039208
40.47 	0.042497 	4918 	0.041901
40.49 	0.046488 	4926 	0.045755
40.51 	0.042259 	4922 	0.041783
40.53 	0.044955 	4916 	0.044240
40.55 	0.035860 	4908 	0.035621
40.57 	0.048466 	4890 	0.047728
40.59 	0.039498 	4937 	0.038667
40.61 	0.038906 	4935 	0.038431
40.63 	0.038742 	4930 	0.038505
40.65 	0.045777 	4937 	0.045065
40.67 	0.041565 	4932 	0.041328
40.69 	0.041726 	4937 	0.041488
40.71 	0.048662 	4932 	0.047593
40.73 	0.043849 	4926 	0.043492
40.75 	0.045224 	4931 	0.044868
40.77 	0.047783 	4939 	0.046834
40.79 	0.043258 	4924 	0.042901
40.81 	0.045537 	4941 	0.044826
40.83 	0.043222 	4928 	0.042985
40.85 	0.041024 	4924 	0.040310
40.87 	0.040179 	4928 	0.039703
40.89 	0.041777 	4931 	0.041301
40.91 	0.045094 	4923 	0.044618
40.93 	0.044994 	4934 	0.044400
40.95 	0.042133 	4913 	0.041179
40.97 	0.040617 	4924 	0.040260
40.99 	0.037571 	4924 	0.037214
41.01 	0.043567 	4912 	0.042970
41.03 	0.039755 	4905 	0.039517
41.05 	0.039708 	4936 	0.039471
41.07 	0.042799 	4930 	0.042205
41.09 	0.035027 	4939 	0.034790
41.11 	0.042553 	4935 	0.042316
41.13 	0.045989 	4936 	0.045158
41.15 	0.040478 	4941 	0.039885
41.17 	0.038914 	4934 	0.038439
41.19 	0.040568 	4930 	0.039974
41.21 	0.041928 	4937 	0.041810
41.23 	0.042114 	4939 	0.041521
41.25 	0.041557 	4933 	0.040844
41.27 	0.043399 	4931 	0.042924
41.29 	0.039164 	4928 	0.038926
41.31 	0.040138 	4933 	0.039782
41.33 	0.043144 	4937 	0.042669
41.35 	0.035237 	4938 	0.034762
41.37 	0.042039 	4924 	0.041563
41.39 	0.041760 	4933 	0.041641
41.41 	0.039586 	4926 	0.039110
41.43 	0.046865 	4929 	0.046034
41.45 	0.039072 	4914 	0.038595
41.47 	0.037759 	4926 	0.037283
41.49 	0.036795 	4892 	0.036316
41.51 	0.043320 	4940 	0.042846
41.53 	0.038633 	4944 	0.038514
41.55 	0.042756 	4935 	0.042261
41.57 	0.043311 	4941 	0.042718
41.59 	0.044598 	4933 	0.044004
41.61 	0.036140 	4953 	0.035667
41.63 	0.040705 	4938 	0.040112
41.65 	0.034490 	4929 	0.034014
41.67 	0.047571 	4940 	0.047097
41.69 	0.037801 	4947 	0.037327
41.71 	0.037090 	4934 	0.036615
41.73 	0.037885 	4936 	0.037292
41.75 	0.036721 	4929 	0.036603
41.77 	0.034204 	4941 	0.033848
41.79 	0.038026 	4944 	0.037552
41.81 	0.037277 	4936 	0.037040
41.83 	0.042817 	4928 	0.042460
41.85 	0.035635 	4939 	0.035279
41.87 	0.041337 	4935 	0.040863
41.89 	0.038313 	4933 	0.037601
41.91 	0.038290 	4936 	0.037934
41.93 	0.035077 	4932 	0.034721
41.95 	0.040560 	4931 	0.039609
41.97 	0.038665 	4914 	0.038546
41.99 	0.038124 	4905 	0.037766
42.01 	0.039458 	4942 	0.038865
42.03 	0.037457 	4939 	0.036864
42.05 	0.040590 	4952 	0.039643
42.07 	0.043954 	4937 	0.043242
42.09 	0.037187 	4948 	0.036595
42.11 	0.038220 	4945 	0.038220
42.13 	0.039029 	4945 	0.038437
42.15 	0.034427 	4938 	0.033952
42.17 	0.039447 	4918 	0.039209
42.19 	0.038101 	4908 	0.037266
42.21 	0.041216 	4901 	0.040738
42.23 	0.041087 	4892 	0.040848
42.25 	0.040295 	4889 	0.039456
42.27 	0.035084 	4874 	0.034964
42.29 	0.036192 	4863 	0.036071
42.31 	0.035221 	4855 	0.034739
42.33 	0.040546 	4834 	0.040304
42.35 	0.040926 	4838 	0.040563
42.37 	0.037060 	4830 	0.036454
42.39 	0.037261 	4804 	0.037261
42.41 	0.039967 	4804 	0.039845
42.43 	0.039649 	4792 	0.039405
42.45 	0.038107 	4776 	0.037494
42.47 	0.038195 	4765 	0.037335
42.49 	0.043442 	4765 	0.042581
42.51 	0.040902 	4743 	0.040408
42.53 	0.035744 	4728 	0.035621
42.55 	0.037596 	4708 	0.037347
42.57 	0.038478 	4730 	0.038106
42.59 	0.035525 	4729 	0.035154
42.61 	0.036321 	4708 	0.036197
42.63 	0.036738 	4709 	0.036220
42.65 	0.037780 	4685 	0.037405
42.67 	0.038002 	4684 	0.037627
42.69 	0.035516 	4674 	0.035140
42.71 	0.036028 	4663 	0.035777
42.73 	0.039224 	4640 	0.038719
42.75 	0.036604 	4617 	0.036096
42.77 	0.036739 	4600 	0.036357
42.79 	0.035137 	4582 	0.035010
42.81 	0.040552 	4562 	0.040167
42.83 	0.030864 	4536 	0.030606
42.85 	0.036661 	4528 	0.036661
42.87 	0.040453 	4499 	0.040323
42.89 	0.040848 	4480 	0.040587
42.91 	0.042639 	4456 	0.042376
42.93 	0.039361 	4446 	0.038702
42.95 	0.038723 	4416 	0.038590
42.97 	0.045217 	4401 	0.044685
42.99 	0.042417 	4385 	0.041749
43.01 	0.038964 	4363 	0.038695
43.03 	0.041311 	4333 	0.040500
43.05 	0.036763 	4325 	0.036357
43.07 	0.037942 	4296 	0.037806
43.09 	0.038524 	4283 	0.038114
43.11 	0.038308 	4255 	0.037620
43.13 	0.035166 	4237 	0.035028
43.15 	0.038754 	4206 	0.038476
43.17 	0.037569 	4179 	0.037429
43.19 	0.041011 	4194 	0.040033
43.21 	0.038830 	4172 	0.038830
43.23 	0.040924 	4154 	0.040642
43.25 	0.037485 	4135 	0.037060
43.27 	0.038490 	4105 	0.038062
43.29 	0.037317 	4100 	0.037031
43.31 	0.038245 	4079 	0.038101
43.33 	0.040237 	4051 	0.039803
43.35 	0.041419 	4032 	0.040838
43.37 	0.045330 	4015 	0.045038
43.39 	0.040730 	4002 	0.040583
43.41 	0.038520 	3972 	0.037782
43.43 	0.035354 	3960 	0.035058
43.45 	0.043202 	3935 	0.042904
43.47 	0.038001 	3921 	0.037851
43.49 	0.040544 	3897 	0.040394
43.51 	0.039979 	3877 	0.039828
43.53 	0.034429 	3863 	0.034429
43.55 	0.032051 	2964 	0.031854
43.57 	0.034406 	2238 	0.034144
43.59 	0.034937 	1746 	0.034601
43.61 	0.026647 	1351 	0.026647
43.63 	0.040959 	1001 	0.039789
43.65 	0.040757 	687 	0.039904
43.67 	0.043825 	502 	0.042658
43.69 	0.035422 	367 	0.035422
43.71 	0.046025 	239 	0.046025
43.73 	0.066667 	120 	0.066667
43.75 	0.000000 	16 	0.000000