File: Example_Data/25SC_s1_0026.004.dat
#F C:\frames\spec\25SC_s1_0026.004
#C title =s:26 frm:4 25SC_s1
#C wavelength =0.15406

#S 1  fr_average C:\frames\spec\25SC_s1_0026.004 C:\win32app\speccom\mask.axs chi 0 180 0 360 0.02
#C 2 theta =0.000000 to 180 deg
#C   q   =0.000000 to 81.568 nm^-1
#C  chi  =0.000000 to 360 deg
#C collumns:
#C  1 position (2theta or chi in degrees)
#C  2 average intensity (sum of all counts in the region divided with number of pixels)
#C  3 Number of pixels in region)
#C  4 error (sum of sqrt(intensity) for all pixels divided by number)
#N 4
#L TTh  Int  N_pix  Err
32.99 	0.114754 	61 	0.114754
33.01 	0.067583 	873 	0.065570
33.03 	0.048886 	1391 	0.048886
33.05 	0.048947 	1757 	0.048280
33.07 	0.059024 	2050 	0.058167
33.09 	0.050277 	2347 	0.049778
33.11 	0.054285 	2579 	0.052922
33.13 	0.050125 	2793 	0.048657
33.15 	0.059020 	2999 	0.058238
33.17 	0.056857 	3201 	0.055210
33.19 	0.060742 	3342 	0.059690
33.21 	0.058789 	3436 	0.057937
33.23 	0.055634 	3523 	0.054637
33.25 	0.060908 	3612 	0.059935
33.27 	0.059780 	3630 	0.058973
33.29 	0.061129 	3648 	0.060327
33.31 	0.060109 	3660 	0.059149
33.33 	0.055887 	3686 	0.054775
33.35 	0.057120 	3694 	0.055508
33.37 	0.061389 	3714 	0.060128
33.39 	0.062215 	3729 	0.060330
33.41 	0.054545 	3740 	0.053136
33.43 	0.066738 	3761 	0.065647
33.45 	0.064140 	3773 	0.063208
33.47 	0.056082 	3798 	0.055311
33.49 	0.061171 	3809 	0.059941
33.51 	0.056356 	3815 	0.055282
33.53 	0.058839 	3841 	0.058686
33.55 	0.057507 	3843 	0.056440
33.57 	0.059066 	3877 	0.057858
33.59 	0.056443 	3880 	0.055839
33.61 	0.054234 	3909 	0.053185
33.63 	0.064302 	3919 	0.063256
33.65 	0.061816 	3931 	0.061369
33.67 	0.056399 	3954 	0.055954
33.69 	0.058690 	3953 	0.057924
33.71 	0.059119 	3975 	0.058825
33.73 	0.056444 	4004 	0.055712
33.75 	0.054014 	3999 	0.053135
33.77 	0.053665 	4025 	0.052646
33.79 	0.061123 	4041 	0.060399
33.81 	0.059188 	4038 	0.057737
33.83 	0.058765 	4050 	0.057898
33.85 	0.056843 	4099 	0.055843
33.87 	0.062515 	4111 	0.060805
33.89 	0.063091 	4121 	0.062523
33.91 	0.057363 	4149 	0.056375
33.93 	0.062154 	4151 	0.060578
33.95 	0.057163 	4181 	0.055879
33.97 	0.068258 	4190 	0.066720
33.99 	0.058333 	4200 	0.057636
34.01 	0.065037 	4213 	0.064481
34.03 	0.056550 	4244 	0.055446
34.05 	0.058325 	4252 	0.057774
34.07 	0.052015 	4268 	0.051740
34.09 	0.058096 	4286 	0.057139
34.11 	0.058345 	4302 	0.056711
34.13 	0.062674 	4308 	0.061178
34.15 	0.058185 	4331 	0.057238
34.17 	0.064828 	4350 	0.063616
34.19 	0.062586 	4362 	0.061646
34.21 	0.059025 	4371 	0.058757
34.23 	0.058730 	4393 	0.058063
34.25 	0.059264 	4404 	0.057801
34.27 	0.056536 	4422 	0.055741
34.29 	0.062909 	4435 	0.061720
34.31 	0.059219 	4458 	0.058825
34.33 	0.061507 	4471 	0.060066
34.35 	0.055977 	4484 	0.054670
34.37 	0.056112 	4491 	0.055330
34.39 	0.061084 	4502 	0.060173
34.41 	0.062528 	4526 	0.061622
34.43 	0.062349 	4539 	0.061703
34.45 	0.065270 	4535 	0.063591
34.47 	0.055749 	4592 	0.054473
34.49 	0.057429 	4597 	0.056792
34.51 	0.063178 	4606 	0.062013
34.53 	0.055783 	4643 	0.054900
34.55 	0.050829 	4643 	0.049294
34.57 	0.054936 	4660 	0.054181
34.59 	0.060107 	4675 	0.058729
34.61 	0.050671 	4697 	0.049548
34.63 	0.054352 	4710 	0.053482
34.65 	0.064817 	4721 	0.063576
34.67 	0.052942 	4741 	0.052572
34.69 	0.055743 	4754 	0.054880
34.71 	0.054133 	4766 	0.053376
34.73 	0.057656 	4787 	0.056432
34.75 	0.053661 	4808 	0.053051
34.77 	0.056247 	4818 	0.055761
34.79 	0.064262 	4824 	0.062683
34.81 	0.057585 	4845 	0.056134
34.83 	0.054504 	4862 	0.053762
34.85 	0.052988 	4869 	0.052507
34.87 	0.057108 	4868 	0.056366
34.89 	0.057354 	4882 	0.055794
34.91 	0.062065 	4882 	0.060865
34.93 	0.064503 	4899 	0.063188
34.95 	0.058487 	4890 	0.057528
34.97 	0.054060 	4902 	0.053343
34.99 	0.059833 	4897 	0.058497
35.01 	0.055048 	4923 	0.054096
35.03 	0.061906 	4943 	0.060602
35.05 	0.061654 	4947 	0.060233
35.07 	0.061741 	4940 	0.060911
35.09 	0.058954 	4953 	0.058363
35.11 	0.058015 	4947 	0.057304
35.13 	0.058693 	4958 	0.057630
35.15 	0.053271 	4937 	0.052322
35.17 	0.060655 	4946 	0.059944
35.19 	0.055241 	4942 	0.054411
35.21 	0.059858 	4945 	0.058674
35.23 	0.051769 	4945 	0.051059
35.25 	0.060692 	4943 	0.059625
35.27 	0.057195 	4948 	0.056484
35.29 	0.063094 	4945 	0.062028
35.31 	0.058382 	4933 	0.058026
35.33 	0.058871 	4943 	0.057568
35.35 	0.049777 	4942 	0.048948
35.37 	0.059729 	4939 	0.058661
35.39 	0.055814 	4945 	0.055222
35.41 	0.055420 	4926 	0.054826
35.43 	0.055342 	4933 	0.054016
35.45 	0.059955 	4937 	0.058631
35.47 	0.060434 	4931 	0.059445
35.49 	0.056619 	4910 	0.056261
35.51 	0.052172 	4926 	0.051459
35.53 	0.053344 	4949 	0.052042
35.55 	0.045905 	4945 	0.045668
35.57 	0.060207 	4933 	0.059376
35.59 	0.055410 	4945 	0.054580
35.61 	0.057669 	4942 	0.056721
35.63 	0.063120 	4943 	0.061460
35.65 	0.060465 	4945 	0.059399
35.67 	0.059085 	4942 	0.058256
35.69 	0.056611 	4946 	0.055664
35.71 	0.056917 	4937 	0.055849
35.73 	0.055916 	4936 	0.054254
35.75 	0.058812 	4931 	0.058693
35.77 	0.055544 	4951 	0.054361
35.79 	0.055961 	4932 	0.055011
35.81 	0.060004 	4933 	0.058935
35.83 	0.059846 	4946 	0.058544
35.85 	0.052685 	4935 	0.051973
35.87 	0.054235 	4923 	0.053640
35.89 	0.057762 	4934 	0.056338
35.91 	0.058250 	4927 	0.056923
35.93 	0.053988 	4927 	0.053394
35.95 	0.061216 	4917 	0.059787
35.97 	0.059039 	4912 	0.058801
35.99 	0.057906 	4939 	0.057076
36.01 	0.051724 	4930 	0.050992
36.03 	0.052802 	4943 	0.051735
36.05 	0.058645 	4945 	0.058171
36.07 	0.056084 	4939 	0.055017
36.09 	0.054453 	4940 	0.053979
36.11 	0.056807 	4929 	0.056212
36.13 	0.058681 	4942 	0.057495
36.15 	0.058311 	4939 	0.057600
36.17 	0.058071 	4925 	0.056862
36.19 	0.053846 	4940 	0.053490
36.21 	0.055386 	4929 	0.054079
36.23 	0.056130 	4935 	0.054943
36.25 	0.056264 	4941 	0.055197
36.27 	0.055635 	4925 	0.055159
36.29 	0.061651 	4931 	0.060819
36.31 	0.058239 	4928 	0.056654
36.33 	0.057977 	4933 	0.057264
36.35 	0.058835 	4929 	0.057766
36.37 	0.054641 	4923 	0.053908
36.39 	0.061370 	4921 	0.060774
36.41 	0.057394 	4896 	0.057035
36.43 	0.062094 	4928 	0.061143
36.45 	0.054361 	4930 	0.053529
36.47 	0.058752 	4936 	0.057565
36.49 	0.051194 	4942 	0.050720
36.51 	0.056558 	4933 	0.055470
36.53 	0.058669 	4943 	0.058076
36.55 	0.056018 	4927 	0.054710
36.57 	0.057965 	4934 	0.057015
36.59 	0.056287 	4939 	0.055101
36.61 	0.060028 	4931 	0.059197
36.63 	0.056784 	4931 	0.056190
36.65 	0.059205 	4932 	0.058374
36.67 	0.054970 	4930 	0.054613
36.69 	0.055792 	4929 	0.055198
36.71 	0.061573 	4921 	0.060621
36.73 	0.054010 	4925 	0.053178
36.75 	0.057646 	4944 	0.056816
36.77 	0.051637 	4919 	0.050803
36.79 	0.057305 	4921 	0.056710
36.81 	0.049634 	4916 	0.048800
36.83 	0.053510 	4915 	0.052179
36.85 	0.049408 	4898 	0.048332
36.87 	0.052589 	4944 	0.051641
36.89 	0.052075 	4916 	0.051479
36.91 	0.057478 	4941 	0.056174
36.93 	0.046247 	4930 	0.045535
36.95 	0.052504 	4933 	0.051554
36.97 	0.062627 	4934 	0.061202
36.99 	0.051469 	4935 	0.050282
37.01 	0.054328 	4933 	0.053497
37.03 	0.060114 	4924 	0.059281
37.05 	0.053785 	4927 	0.053191
37.07 	0.054306 	4935 	0.053475
37.09 	0.057021 	4928 	0.056308
37.11 	0.055724 	4935 	0.054656
37.13 	0.061332 	4924 	0.060856
37.15 	0.053168 	4909 	0.052452
37.17 	0.050466 	4934 	0.049160
37.19 	0.049137 	4925 	0.048542
37.21 	0.051454 	4917 	0.050739
37.23 	0.053884 	4918 	0.052554
37.25 	0.060476 	4911 	0.059025
37.27 	0.053944 	4894 	0.052986
37.29 	0.059838 	4930 	0.059125
37.31 	0.055927 	4935 	0.054621
37.33 	0.056424 	4927 	0.055235
37.35 	0.056906 	4938 	0.056075
37.37 	0.052162 	4927 	0.050854
37.39 	0.048063 	4931 	0.047350
37.41 	0.057392 	4931 	0.056798
37.43 	0.053122 	4932 	0.052647
37.45 	0.048335 	4924 	0.047859
37.47 	0.054981 	4929 	0.053792
37.49 	0.051798 	4923 	0.050727
37.51 	0.054733 	4933 	0.054021
37.53 	0.051230 	4919 	0.050754
37.55 	0.057201 	4930 	0.055874
37.57 	0.055431 	4925 	0.055194
37.59 	0.052696 	4915 	0.051981
37.61 	0.056684 	4922 	0.055851
37.63 	0.050417 	4919 	0.049821
37.65 	0.049410 	4918 	0.048934
37.67 	0.055873 	4904 	0.055395
37.69 	0.052062 	4898 	0.051344
37.71 	0.058227 	4929 	0.057157
37.73 	0.051126 	4929 	0.049938
37.75 	0.049798 	4940 	0.049205
37.77 	0.055081 	4920 	0.054605
37.79 	0.054564 	4930 	0.053732
37.81 	0.047638 	4933 	0.047282
37.83 	0.054472 	4920 	0.053519
37.85 	0.056075 	4922 	0.055242
37.87 	0.057906 	4939 	0.057076
37.89 	0.057462 	4925 	0.056629
37.91 	0.049696 	4930 	0.049339
37.93 	0.050620 	4919 	0.050144
37.95 	0.057712 	4921 	0.056641
37.97 	0.051938 	4929 	0.051224
37.99 	0.049064 	4912 	0.048229
38.01 	0.057021 	4928 	0.055951
38.03 	0.060501 	4909 	0.059069
38.05 	0.049137 	4925 	0.048423
38.07 	0.058464 	4909 	0.057748
38.09 	0.056581 	4878 	0.056100
38.11 	0.056332 	4935 	0.055383
38.13 	0.057727 	4937 	0.056541
38.15 	0.057950 	4918 	0.057355
38.17 	0.056187 	4930 	0.055335
38.19 	0.059635 	4930 	0.058803
38.21 	0.062157 	4923 	0.061086
38.23 	0.055893 	4938 	0.054944
38.25 	0.062030 	4917 	0.060600
38.27 	0.064503 	4930 	0.063315
38.29 	0.067019 	4924 	0.066186
38.31 	0.063730 	4927 	0.062779
38.33 	0.061535 	4924 	0.059394
38.35 	0.060471 	4928 	0.059758
38.37 	0.062551 	4924 	0.061956
38.39 	0.065798 	4909 	0.064246
38.41 	0.059110 	4923 	0.057682
38.43 	0.064687 	4916 	0.063495
38.45 	0.069337 	4918 	0.068146
38.47 	0.063583 	4907 	0.062608
38.49 	0.066844 	4877 	0.065403
38.51 	0.065896 	4932 	0.064313
38.53 	0.064516 	4929 	0.063328
38.55 	0.062196 	4936 	0.061128
38.57 	0.053220 	4923 	0.051772
38.59 	0.060317 	4924 	0.059722
38.61 	0.061183 	4936 	0.059740
38.63 	0.057271 	4924 	0.056299
38.65 	0.057747 	4918 	0.056556
38.67 	0.050030 	4937 	0.049318
38.69 	0.060341 	4922 	0.059508
38.71 	0.059504 	4924 	0.057958
38.73 	0.053477 	4918 	0.052881
38.75 	0.053582 	4927 	0.052631
38.77 	0.055860 	4923 	0.055384
38.79 	0.057762 	4934 	0.056912
38.81 	0.051303 	4912 	0.050349
38.83 	0.058345 	4919 	0.057512
38.85 	0.058428 	4912 	0.056639
38.87 	0.046834 	4911 	0.046357
38.89 	0.062487 	4897 	0.061411
38.91 	0.054864 	4903 	0.053789
38.93 	0.052248 	4938 	0.051655
38.95 	0.058154 	4918 	0.056724
38.97 	0.054147 	4931 	0.053553
38.99 	0.055499 	4937 	0.054550
39.01 	0.053274 	4918 	0.052678
39.03 	0.051277 	4934 	0.050327
39.05 	0.048731 	4925 	0.048255
39.07 	0.046507 	4924 	0.045655
39.09 	0.054032 	4923 	0.053080
39.11 	0.059217 	4931 	0.057910
39.13 	0.050782 	4923 	0.049592
39.15 	0.056968 	4915 	0.056611
39.17 	0.051853 	4937 	0.050667
39.19 	0.047793 	4917 	0.046940
39.21 	0.050916 	4910 	0.050320
39.23 	0.052386 	4925 	0.051791
39.25 	0.053840 	4922 	0.053007
39.27 	0.059878 	4910 	0.059401
39.29 	0.052438 	4901 	0.052080
39.31 	0.049345 	4884 	0.048865
39.33 	0.052930 	4931 	0.052336
39.35 	0.046606 	4935 	0.046012
39.37 	0.049909 	4929 	0.049196
39.39 	0.055386 	4929 	0.054317
39.41 	0.050902 	4931 	0.049833
39.43 	0.048855 	4933 	0.048380
39.45 	0.052386 	4925 	0.052148
39.47 	0.052813 	4923 	0.052337
39.49 	0.050476 	4933 	0.049883
39.51 	0.051990 	4924 	0.051276
39.53 	0.045094 	4923 	0.044262
39.55 	0.051637 	4919 	0.050922
39.57 	0.053517 	4933 	0.052923
39.59 	0.051507 	4912 	0.050910
39.61 	0.058704 	4923 	0.057871
39.63 	0.058716 	4922 	0.057645
39.65 	0.050954 	4926 	0.049983
39.67 	0.057195 	4913 	0.055626
39.69 	0.059194 	4916 	0.058003
39.71 	0.058018 	4895 	0.056941
39.73 	0.052160 	4908 	0.051682
39.75 	0.053774 	4928 	0.053180
39.77 	0.054306 	4935 	0.053712
39.79 	0.055420 	4926 	0.054588
39.81 	0.057033 	4927 	0.056082
39.83 	0.053912 	4934 	0.052843
39.85 	0.048508 	4927 	0.047914
39.87 	0.050761 	4925 	0.049315
39.89 	0.052290 	4934 	0.051459
39.91 	0.060951 	4922 	0.060118
39.93 	0.056107 	4937 	0.054782
39.95 	0.056562 	4915 	0.055370
39.97 	0.052151 	4928 	0.051794
39.99 	0.049473 	4932 	0.048998
40.01 	0.054900 	4918 	0.054067
40.03 	0.052557 	4928 	0.052200
40.05 	0.051047 	4917 	0.050213
40.07 	0.058501 	4923 	0.056954
40.09 	0.052889 	4916 	0.052054
40.11 	0.053092 	4916 	0.052496
40.13 	0.054330 	4896 	0.053971
40.15 	0.054346 	4913 	0.052915
40.17 	0.053977 	4928 	0.053383
40.19 	0.054575 	4929 	0.053743
40.21 	0.053698 	4935 	0.053105
40.23 	0.051298 	4932 	0.050466
40.25 	0.052033 	4920 	0.051199
40.27 	0.056107 	4937 	0.055039
40.29 	0.048711 	4927 	0.047998
40.31 	0.052845 	4939 	0.052252
40.33 	0.049270 	4932 	0.049033
40.35 	0.057125 	4919 	0.056173
40.37 	0.052546 	4929 	0.051833
40.39 	0.045630 	4931 	0.044561
40.41 	0.050761 	4925 	0.049334
40.43 	0.050792 	4922 	0.049959
40.45 	0.052301 	4933 	0.052063
40.47 	0.054087 	4918 	0.053611
40.49 	0.046894 	4926 	0.046399
40.51 	0.042666 	4922 	0.042071
40.53 	0.052278 	4916 	0.051325
40.55 	0.047270 	4908 	0.046554
40.57 	0.048057 	4890 	0.047219
40.59 	0.053474 	4937 	0.052999
40.61 	0.054306 	4935 	0.053475
40.63 	0.057809 	4930 	0.056265
40.65 	0.050638 	4937 	0.050045
40.67 	0.058191 	4932 	0.057241
40.69 	0.046992 	4937 	0.046517
40.71 	0.049473 	4932 	0.048879
40.73 	0.055826 	4926 	0.054875
40.75 	0.053539 	4931 	0.052351
40.77 	0.050213 	4939 	0.049620
40.79 	0.047522 	4924 	0.046928
40.81 	0.049180 	4941 	0.048113
40.83 	0.049919 	4928 	0.049324
40.85 	0.052600 	4924 	0.052243
40.87 	0.049513 	4928 	0.049038
40.89 	0.047049 	4931 	0.046337
40.91 	0.055657 	4923 	0.055062
40.93 	0.047629 	4934 	0.046679
40.95 	0.049054 	4913 	0.048577
40.97 	0.049756 	4924 	0.049142
40.99 	0.044882 	4924 	0.044644
41.01 	0.048656 	4912 	0.048060
41.03 	0.051988 	4905 	0.051032
41.05 	0.053079 	4936 	0.052229
41.07 	0.055375 	4930 	0.054168
41.09 	0.050415 	4939 	0.049822
41.11 	0.053293 	4935 	0.052699
41.13 	0.052674 	4936 	0.051725
41.15 	0.047561 	4941 	0.045783
41.17 	0.054925 	4934 	0.054450
41.19 	0.052535 	4930 	0.051823
41.21 	0.054487 	4937 	0.054249
41.23 	0.046366 	4939 	0.045654
41.25 	0.046219 	4933 	0.045507
41.27 	0.051916 	4931 	0.050610
41.29 	0.050325 	4928 	0.049849
41.31 	0.050274 	4933 	0.049680
41.33 	0.048207 	4937 	0.047140
41.35 	0.049615 	4938 	0.048903
41.37 	0.048944 	4924 	0.048230
41.39 	0.043381 	4933 	0.042669
41.41 	0.046488 	4926 	0.046131
41.43 	0.045648 	4929 	0.045173
41.45 	0.051689 	4914 	0.050855
41.47 	0.049736 	4926 	0.049260
41.49 	0.047220 	4892 	0.046861
41.51 	0.055061 	4940 	0.053994
41.53 	0.047735 	4944 	0.047142
41.55 	0.049443 	4935 	0.048018
41.57 	0.047156 	4941 	0.046682
41.59 	0.044395 	4933 	0.044157
41.61 	0.053099 	4953 	0.052271
41.63 	0.043945 	4938 	0.043451
41.65 	0.050517 	4929 	0.049804
41.67 	0.048785 	4940 	0.048193
41.69 	0.048110 	4947 	0.047380
41.71 	0.046007 	4934 	0.045532
41.73 	0.047812 	4936 	0.047100
41.75 	0.043822 	4929 	0.043466
41.77 	0.047764 	4941 	0.046934
41.79 	0.047937 	4944 	0.047344
41.81 	0.049028 	4936 	0.048553
41.83 	0.052151 	4928 	0.051200
41.85 	0.047176 	4939 	0.046820
41.87 	0.055522 	4935 	0.054335
41.89 	0.043787 	4933 	0.043074
41.91 	0.048622 	4936 	0.047910
41.93 	0.049067 	4932 	0.048473
41.95 	0.048063 	4931 	0.047350
41.97 	0.054538 	4914 	0.053465
41.99 	0.047299 	4905 	0.046582
42.01 	0.047147 	4942 	0.046199
42.03 	0.048998 	4939 	0.048168
42.05 	0.051090 	4952 	0.049908
42.07 	0.043549 	4937 	0.042718
42.09 	0.039814 	4948 	0.039577
42.11 	0.045501 	4945 	0.045027
42.13 	0.047523 	4945 	0.046812
42.15 	0.045970 	4938 	0.045258
42.17 	0.044124 	4918 	0.043766
42.19 	0.048900 	4908 	0.048184
42.21 	0.050194 	4901 	0.049118
42.23 	0.040270 	4892 	0.039791
42.25 	0.044181 	4889 	0.044061
42.27 	0.049651 	4874 	0.048690
42.29 	0.043594 	4863 	0.042872
42.31 	0.043872 	4855 	0.043510
42.33 	0.049441 	4834 	0.048108
42.35 	0.046300 	4838 	0.045675
42.37 	0.046584 	4830 	0.045856
42.39 	0.045587 	4804 	0.045465
42.41 	0.043714 	4804 	0.043104
42.43 	0.046745 	4792 	0.046011
42.45 	0.051089 	4776 	0.050108
42.47 	0.048478 	4765 	0.048110
42.49 	0.047009 	4765 	0.045760
42.51 	0.045962 	4743 	0.045592
42.53 	0.051184 	4728 	0.050441
42.55 	0.049915 	4708 	0.049542
42.57 	0.045455 	4730 	0.044588
42.59 	0.040178 	4729 	0.040054
42.61 	0.047154 	4708 	0.046407
42.63 	0.049267 	4709 	0.048645
42.65 	0.048666 	4685 	0.047395
42.67 	0.042058 	4684 	0.041558
42.69 	0.046855 	4674 	0.046354
42.71 	0.046108 	4663 	0.045354
42.73 	0.044828 	4640 	0.044196
42.75 	0.047867 	4617 	0.046831
42.77 	0.048913 	4600 	0.048404
42.79 	0.046486 	4582 	0.045591
42.81 	0.049540 	4562 	0.048769
42.83 	0.043651 	4536 	0.043113
42.85 	0.049028 	4528 	0.048381
42.87 	0.046232 	4499 	0.045972
42.89 	0.048437 	4480 	0.047784
42.91 	0.053187 	4456 	0.052376
42.93 	0.042510 	4446 	0.041720
42.95 	0.046422 	4416 	0.046024
42.97 	0.041809 	4401 	0.041121
42.99 	0.045610 	4385 	0.044942
43.01 	0.044236 	4363 	0.044101
43.03 	0.050312 	4333 	0.049500
43.05 	0.045318 	4325 	0.044099
43.07 	0.043762 	4296 	0.043353
43.09 	0.045996 	4283 	0.045722
43.11 	0.042538 	4255 	0.041850
43.13 	0.045787 	4237 	0.044819
43.15 	0.045411 	4206 	0.044436
43.17 	0.045944 	4179 	0.045664
43.19 	0.054602 	4194 	0.053461
43.21 	0.046740 	4172 	0.046038
43.23 	0.044776 	4154 	0.044353
43.25 	0.051270 	4135 	0.050561
43.27 	0.054080 	4105 	0.052630
43.29 	0.044146 	4100 	0.042980
43.31 	0.043638 	4079 	0.043495
43.33 	0.045915 	4051 	0.045481
43.35 	0.043651 	4032 	0.043360
43.37 	0.046077 	4015 	0.045640
43.39 	0.043478 	4002 	0.042600
43.41 	0.043303 	3972 	0.043008
43.43 	0.045960 	3960 	0.044875
43.45 	0.051842 	3935 	0.050503
43.47 	0.040806 	3921 	0.040358
43.49 	0.046703 	3897 	0.045951
43.51 	0.047201 	3877 	0.046597
43.53 	0.052291 	3863 	0.051078
43.55 	0.039474 	2964 	0.038881
43.57 	0.049598 	2238 	0.048813
43.59 	0.049255 	1746 	0.048920
43.61 	0.049593 	1351 	0.049593
43.63 	0.037962 	1001 	0.037962
43.65 	0.053857 	687 	0.051159
43.67 	0.039841 	502 	0.039841
43.69 	0.046322 	367 	0.046322
43.71 	0.041841 	239 	0.041841
43.73 	0.033333 	120 	0.033333
43.75 	0.062500 	16 	0.062500