File: Example_Data/25SC_s1_0022.003.dat
#F C:\frames\spec\25SC_s1_0022.003
#C title =s:22 frm:3 25SC_s1
#C wavelength =0.15406

#S 1  fr_average C:\frames\spec\25SC_s1_0022.003 C:\win32app\speccom\mask.axs chi 0 180 0 360 0.02
#C 2 theta =0.000000 to 180 deg
#C   q   =0.000000 to 81.568 nm^-1
#C  chi  =0.000000 to 360 deg
#C collumns:
#C  1 position (2theta or chi in degrees)
#C  2 average intensity (sum of all counts in the region divided with number of pixels)
#C  3 Number of pixels in region)
#C  4 error (sum of sqrt(intensity) for all pixels divided by number)
#N 4
#L TTh  Int  N_pix  Err
32.99 	0.081967 	61 	0.081967
33.01 	0.060710 	873 	0.059368
33.03 	0.063264 	1391 	0.062000
33.05 	0.052362 	1757 	0.052362
33.07 	0.056098 	2050 	0.054383
33.09 	0.067320 	2347 	0.064824
33.11 	0.062040 	2579 	0.060450
33.13 	0.063731 	2793 	0.061809
33.15 	0.055685 	2999 	0.054513
33.17 	0.053108 	3201 	0.052376
33.19 	0.057451 	3342 	0.056224
33.21 	0.055588 	3436 	0.054906
33.23 	0.057054 	3523 	0.056389
33.25 	0.058970 	3612 	0.057997
33.27 	0.066942 	3630 	0.065813
33.29 	0.056469 	3648 	0.056309
33.31 	0.062022 	3660 	0.061382
33.33 	0.062670 	3686 	0.061557
33.35 	0.052788 	3694 	0.052313
33.37 	0.049273 	3714 	0.048327
33.39 	0.065433 	3729 	0.063705
33.41 	0.060963 	3740 	0.060023
33.43 	0.051582 	3761 	0.051115
33.45 	0.063080 	3773 	0.061527
33.47 	0.060032 	3798 	0.059260
33.49 	0.060908 	3809 	0.059653
33.51 	0.055308 	3815 	0.053773
33.53 	0.060922 	3841 	0.059702
33.55 	0.060370 	3843 	0.059302
33.57 	0.060098 	3877 	0.059343
33.59 	0.065206 	3880 	0.063672
33.61 	0.058071 	3909 	0.057322
33.63 	0.059709 	3919 	0.058663
33.65 	0.058509 	3931 	0.057615
33.67 	0.060445 	3954 	0.059556
33.69 	0.063243 	3953 	0.062947
33.71 	0.062138 	3975 	0.060665
33.73 	0.057942 	4004 	0.057064
33.75 	0.054764 	3999 	0.054178
33.77 	0.056646 	4025 	0.056185
33.79 	0.063351 	4041 	0.061732
33.81 	0.061417 	4038 	0.060232
33.83 	0.059753 	4050 	0.058861
33.85 	0.052696 	4099 	0.051695
33.87 	0.062758 	4111 	0.061903
33.89 	0.059452 	4121 	0.058172
33.91 	0.058809 	4149 	0.057539
33.93 	0.057336 	4151 	0.056066
33.95 	0.063143 	4181 	0.062442
33.97 	0.052745 	4190 	0.052325
33.99 	0.061667 	4200 	0.060969
34.01 	0.060052 	4213 	0.059218
34.03 	0.067154 	4244 	0.066463
34.05 	0.063029 	4252 	0.061376
34.07 	0.056467 	4268 	0.054957
34.09 	0.063696 	4286 	0.062739
34.11 	0.055556 	4302 	0.054739
34.13 	0.064995 	4308 	0.063364
34.15 	0.059340 	4331 	0.058258
34.17 	0.054713 	4350 	0.054174
34.19 	0.055479 	4362 	0.055211
34.21 	0.058568 	4371 	0.056826
34.23 	0.060323 	4393 	0.059123
34.25 	0.058810 	4404 	0.058012
34.27 	0.063772 	4422 	0.062447
34.29 	0.060203 	4435 	0.059278
34.31 	0.061463 	4458 	0.060149
34.33 	0.065981 	4471 	0.064911
34.35 	0.054862 	4484 	0.054078
34.37 	0.062347 	4491 	0.061043
34.39 	0.057530 	4502 	0.056338
34.41 	0.063190 	4526 	0.061098
34.43 	0.057502 	4539 	0.056448
34.45 	0.057332 	4535 	0.056428
34.47 	0.056402 	4592 	0.055361
34.49 	0.066783 	4597 	0.065254
34.51 	0.057534 	4606 	0.057406
34.53 	0.054706 	4643 	0.053823
34.55 	0.060521 	4643 	0.060017
34.57 	0.060086 	4660 	0.059185
34.59 	0.056684 	4675 	0.055933
34.61 	0.054929 	4697 	0.053931
34.63 	0.060934 	4710 	0.060043
34.65 	0.055709 	4721 	0.054716
34.67 	0.056106 	4741 	0.055365
34.69 	0.058056 	4754 	0.057194
34.71 	0.056022 	4766 	0.054916
34.73 	0.055149 	4787 	0.054293
34.75 	0.054908 	4808 	0.054421
34.77 	0.057700 	4818 	0.057336
34.79 	0.057214 	4824 	0.056364
34.81 	0.061300 	4845 	0.060817
34.83 	0.054710 	4862 	0.054349
34.85 	0.058328 	4869 	0.057727
34.87 	0.060805 	4868 	0.060204
34.89 	0.064932 	4882 	0.063493
34.91 	0.056944 	4882 	0.055844
34.93 	0.061237 	4899 	0.060639
34.95 	0.059714 	4890 	0.059235
34.97 	0.058956 	4902 	0.058478
34.99 	0.057382 	4897 	0.056764
35.01 	0.062360 	4923 	0.060932
35.03 	0.057860 	4943 	0.056675
35.05 	0.060441 	4947 	0.058645
35.07 	0.057490 	4940 	0.056423
35.09 	0.057743 	4953 	0.057270
35.11 	0.066909 	4947 	0.065251
35.13 	0.053651 	4958 	0.053178
35.15 	0.057322 	4937 	0.056610
35.17 	0.058027 	4946 	0.056842
35.19 	0.057264 	4942 	0.055842
35.21 	0.058645 	4945 	0.057323
35.23 	0.060667 	4945 	0.059246
35.25 	0.060287 	4943 	0.059932
35.27 	0.063864 	4948 	0.062799
35.29 	0.056218 	4945 	0.055508
35.31 	0.061018 	4933 	0.059711
35.33 	0.056039 	4943 	0.054972
35.35 	0.057871 	4942 	0.056923
35.37 	0.061348 	4939 	0.060281
35.39 	0.056825 	4945 	0.056233
35.41 	0.061510 	4926 	0.060916
35.43 	0.058990 	4933 	0.058397
35.45 	0.056917 	4937 	0.056205
35.47 	0.051916 	4931 	0.051560
35.49 	0.063951 	4910 	0.063355
35.51 	0.057247 	4926 	0.055820
35.53 	0.064660 	4949 	0.063002
35.55 	0.057230 	4945 	0.056400
35.57 	0.058382 	4933 	0.057650
35.59 	0.059050 	4945 	0.057845
35.61 	0.056050 	4942 	0.054865
35.63 	0.056241 	4943 	0.055649
35.65 	0.059050 	4945 	0.057983
35.67 	0.055848 	4942 	0.055255
35.69 	0.054387 	4946 	0.053558
35.71 	0.065829 	4937 	0.064880
35.73 	0.058347 	4936 	0.057753
35.75 	0.060637 	4931 	0.059449
35.77 	0.057564 	4951 	0.056579
35.79 	0.057989 	4932 	0.056801
35.81 	0.065883 	4933 	0.064339
35.83 	0.057420 	4946 	0.056354
35.85 	0.062209 	4935 	0.060765
35.87 	0.058095 	4923 	0.057024
35.89 	0.059992 	4934 	0.059517
35.91 	0.061904 	4927 	0.060358
35.93 	0.053988 	4927 	0.053156
35.95 	0.057962 	4917 	0.056533
35.97 	0.061075 	4912 	0.059882
35.99 	0.057704 	4939 	0.057230
36.01 	0.055172 	4930 	0.054697
36.03 	0.054420 	4943 	0.053315
36.05 	0.060465 	4945 	0.059261
36.07 	0.059121 	4939 	0.058054
36.09 	0.057692 	4940 	0.057099
36.11 	0.048286 	4929 	0.047573
36.13 	0.054027 	4942 	0.052960
36.15 	0.056489 	4939 	0.055422
36.17 	0.063553 	4925 	0.062602
36.19 	0.057895 	4940 	0.057539
36.21 	0.052749 	4929 	0.052155
36.23 	0.054103 	4935 	0.053272
36.25 	0.061728 	4941 	0.060642
36.27 	0.056244 	4925 	0.055411
36.29 	0.060840 	4931 	0.060008
36.31 	0.060471 	4928 	0.060114
36.33 	0.060815 	4933 	0.059509
36.35 	0.058633 	4929 	0.057662
36.37 	0.058298 	4923 	0.057108
36.39 	0.059338 	4921 	0.057889
36.41 	0.062500 	4896 	0.060825
36.43 	0.054180 	4928 	0.053824
36.45 	0.054564 	4930 	0.054089
36.47 	0.058752 	4936 	0.057447
36.49 	0.054229 	4942 	0.053399
36.51 	0.065275 	4933 	0.064206
36.53 	0.051183 	4943 	0.050472
36.55 	0.055206 	4927 	0.054730
36.57 	0.054925 	4934 	0.053362
36.59 	0.052237 	4939 	0.051526
36.61 	0.059014 	4931 	0.058302
36.63 	0.054147 	4931 	0.053415
36.65 	0.058394 	4932 	0.057325
36.67 	0.057404 	4930 	0.056453
36.69 	0.057618 	4929 	0.056549
36.71 	0.052835 	4921 	0.051982
36.73 	0.052995 	4925 	0.052519
36.75 	0.061084 	4944 	0.060373
36.77 	0.058345 	4919 	0.057869
36.79 	0.055273 	4921 	0.054321
36.81 	0.053702 	4916 	0.052987
36.83 	0.056155 	4915 	0.055559
36.85 	0.057779 	4898 	0.056104
36.87 	0.057646 	4944 	0.056698
36.89 	0.056143 	4916 	0.054952
36.91 	0.055859 	4941 	0.054279
36.93 	0.053753 	4930 	0.053158
36.95 	0.061423 	4933 	0.060473
36.97 	0.053506 	4934 	0.052656
36.99 	0.054914 	4935 	0.053846
37.01 	0.055950 	4933 	0.055118
37.03 	0.048944 	4924 	0.047992
37.05 	0.056018 	4927 	0.055186
37.07 	0.058561 	4935 	0.057849
37.09 	0.049310 	4928 	0.048478
37.11 	0.054509 	4935 	0.054390
37.13 	0.058489 	4924 	0.057537
37.15 	0.057242 	4909 	0.056884
37.17 	0.052088 	4934 	0.051375
37.19 	0.058071 	4925 	0.056763
37.21 	0.051658 	4917 	0.050704
37.23 	0.052867 	4918 	0.052391
37.25 	0.058847 	4911 	0.057655
37.27 	0.054352 	4894 	0.052657
37.29 	0.058012 	4930 	0.057299
37.31 	0.055724 	4935 	0.054498
37.33 	0.049726 	4927 	0.049132
37.35 	0.056501 	4938 	0.055077
37.37 	0.055409 	4927 	0.054795
37.39 	0.052930 	4931 	0.052336
37.41 	0.053944 	4931 	0.053212
37.43 	0.052920 	4932 	0.052188
37.45 	0.055240 	4924 	0.054169
37.47 	0.054372 	4929 	0.053382
37.49 	0.058907 	4923 	0.057717
37.51 	0.056355 	4933 	0.056118
37.53 	0.060785 	4919 	0.059713
37.55 	0.050913 	4930 	0.050319
37.57 	0.053604 	4925 	0.052890
37.59 	0.049440 	4915 	0.048487
37.61 	0.048354 	4922 	0.047997
37.63 	0.058142 	4919 	0.057070
37.65 	0.048800 	4918 	0.048562
37.67 	0.049347 	4904 	0.048511
37.69 	0.055125 	4898 	0.054248
37.71 	0.047677 	4929 	0.046964
37.73 	0.051532 	4929 	0.050224
37.75 	0.051417 	4940 	0.051061
37.77 	0.043699 	4920 	0.043580
37.79 	0.047262 	4930 	0.046668
37.81 	0.047638 	4933 	0.046926
37.83 	0.053049 	4920 	0.052096
37.85 	0.048151 	4922 	0.047794
37.87 	0.055274 	4939 	0.054444
37.89 	0.051777 	4925 	0.050568
37.91 	0.051724 	4930 	0.050892
37.93 	0.046554 	4919 	0.045959
37.95 	0.052428 	4921 	0.050742
37.97 	0.048489 	4929 	0.047538
37.99 	0.051710 	4912 	0.050995
38.01 	0.056615 	4928 	0.056021
38.03 	0.054797 	4909 	0.053843
38.05 	0.048934 	4925 	0.048101
38.07 	0.053371 	4909 	0.052655
38.09 	0.057811 	4878 	0.056249
38.11 	0.053901 	4935 	0.052951
38.13 	0.046790 	4937 	0.046078
38.15 	0.049004 	4918 	0.048885
38.17 	0.054158 	4930 	0.053089
38.19 	0.053753 	4930 	0.053020
38.21 	0.055657 	4923 	0.054943
38.23 	0.049008 	4938 	0.048770
38.25 	0.057149 	4917 	0.056553
38.27 	0.053753 	4930 	0.053040
38.29 	0.060114 	4924 	0.059638
38.31 	0.051756 	4927 	0.050923
38.33 	0.057271 	4924 	0.056557
38.35 	0.062094 	4928 	0.060787
38.37 	0.060317 	4924 	0.059127
38.39 	0.056427 	4909 	0.055114
38.41 	0.052407 	4923 	0.051455
38.43 	0.057364 	4916 	0.056649
38.45 	0.068727 	4918 	0.068012
38.47 	0.060118 	4907 	0.059283
38.49 	0.055772 	4877 	0.055412
38.51 	0.054947 	4932 	0.054235
38.53 	0.057415 	4929 	0.056940
38.55 	0.058752 	4936 	0.058040
38.57 	0.059313 	4923 	0.058243
38.59 	0.060926 	4924 	0.059360
38.61 	0.057334 	4936 	0.056503
38.63 	0.061129 	4924 	0.059702
38.65 	0.059984 	4918 	0.059150
38.67 	0.051853 	4937 	0.051141
38.69 	0.049167 	4922 	0.049048
38.71 	0.056661 	4924 	0.055809
38.73 	0.055510 	4918 	0.054796
38.75 	0.056627 	4927 	0.056032
38.77 	0.050173 	4923 	0.049578
38.79 	0.050061 	4934 	0.049467
38.81 	0.052117 	4912 	0.051144
38.83 	0.050823 	4919 	0.049851
38.85 	0.048453 	4912 	0.048334
38.87 	0.052128 	4911 	0.050915
38.89 	0.054727 	4897 	0.053770
38.91 	0.052009 	4903 	0.051292
38.93 	0.054678 	4938 	0.053966
38.95 	0.051444 	4918 	0.050967
38.97 	0.049280 	4931 	0.048805
38.99 	0.045169 	4937 	0.044220
39.01 	0.047784 	4918 	0.046950
39.03 	0.048034 	4934 	0.046966
39.05 	0.049543 	4925 	0.048829
39.07 	0.049350 	4924 	0.048636
39.09 	0.046923 	4923 	0.046328
39.11 	0.055364 	4931 	0.054770
39.13 	0.043266 	4923 	0.042295
39.15 	0.056358 	4915 	0.055643
39.17 	0.048207 	4937 	0.047970
39.19 	0.042099 	4917 	0.041622
39.21 	0.052342 	4910 	0.051626
39.23 	0.052589 	4925 	0.051994
39.25 	0.050386 	4922 	0.049910
39.27 	0.042159 	4910 	0.041682
39.29 	0.048562 	4901 	0.048083
39.31 	0.044431 	4884 	0.043951
39.33 	0.048469 	4931 	0.047637
39.35 	0.049848 	4935 	0.048542
39.37 	0.043619 	4929 	0.042669
39.39 	0.046663 	4929 	0.046544
39.41 	0.044007 	4931 	0.043532
39.43 	0.048855 	4933 	0.048261
39.45 	0.047310 	4925 	0.046715
39.47 	0.049157 	4923 	0.048562
39.49 	0.046625 	4933 	0.046150
39.51 	0.046507 	4924 	0.045555
39.53 	0.047329 	4923 	0.046377
39.55 	0.051433 	4919 	0.050461
39.57 	0.048044 	4933 	0.047688
39.59 	0.047638 	4912 	0.047042
39.61 	0.047126 	4923 	0.046293
39.63 	0.048151 	4922 	0.047437
39.65 	0.048315 	4926 	0.047483
39.67 	0.047222 	4913 	0.046149
39.69 	0.046786 	4916 	0.046548
39.71 	0.050255 	4895 	0.049178
39.73 	0.049715 	4908 	0.048879
39.75 	0.048498 	4928 	0.048023
39.77 	0.047011 	4935 	0.046418
39.79 	0.052984 	4926 	0.052033
39.81 	0.046276 	4927 	0.045800
39.83 	0.050061 	4934 	0.049586
39.85 	0.048102 	4927 	0.048102
39.87 	0.048528 	4925 	0.047576
39.89 	0.052290 	4934 	0.051934
39.91 	0.049777 	4922 	0.049181
39.93 	0.047397 	4937 	0.046923
39.95 	0.044354 	4915 	0.043520
39.97 	0.051339 	4928 	0.050626
39.99 	0.051095 	4932 	0.050857
40.01 	0.047580 	4918 	0.047104
40.03 	0.049513 	4928 	0.048919
40.05 	0.044133 	4917 	0.043537
40.07 	0.047329 	4923 	0.046972
40.09 	0.043531 	4916 	0.042797
40.11 	0.047396 	4916 	0.046205
40.13 	0.050858 	4896 	0.050140
40.15 	0.039894 	4913 	0.039159
40.17 	0.047687 	4928 	0.047211
40.19 	0.050112 	4929 	0.049042
40.21 	0.041945 	4935 	0.041589
40.23 	0.051095 	4932 	0.050501
40.25 	0.043089 	4920 	0.042613
40.27 	0.048410 	4937 	0.047698
40.29 	0.041405 	4927 	0.040929
40.31 	0.048188 	4939 	0.047120
40.33 	0.049473 	4932 	0.048879
40.35 	0.049400 	4919 	0.048666
40.37 	0.045851 	4929 	0.045732
40.39 	0.044818 	4931 	0.044106
40.41 	0.045076 	4925 	0.044362
40.43 	0.042056 	4922 	0.041580
40.45 	0.042165 	4933 	0.041215
40.47 	0.040260 	4918 	0.040141
40.49 	0.039992 	4926 	0.039635
40.51 	0.047745 	4922 	0.047150
40.53 	0.042514 	4916 	0.041799
40.55 	0.042584 	4908 	0.041987
40.57 	0.048671 	4890 	0.047712
40.59 	0.046790 	4937 	0.046315
40.61 	0.044174 	4935 	0.043343
40.63 	0.043408 	4930 	0.043051
40.65 	0.045169 	4937 	0.044695
40.67 	0.046837 	4932 	0.046243
40.69 	0.037675 	4937 	0.036963
40.71 	0.051703 	4932 	0.050872
40.73 	0.048924 	4926 	0.048310
40.75 	0.044210 	4931 	0.043854
40.77 	0.048998 	4939 	0.047930
40.79 	0.044070 	4924 	0.043594
40.81 	0.047764 	4941 	0.046222
40.83 	0.042817 	4928 	0.042222
40.85 	0.048538 	4924 	0.047586
40.87 	0.043425 	4928 	0.042831
40.89 	0.041574 	4931 	0.041099
40.91 	0.047938 	4923 	0.047462
40.93 	0.044791 	4934 	0.044435
40.95 	0.042744 	4913 	0.042267
40.97 	0.048538 	4924 	0.047943
40.99 	0.041430 	4924 	0.040835
41.01 	0.042142 	4912 	0.041665
41.03 	0.043425 	4905 	0.043067
41.05 	0.043963 	4936 	0.043369
41.07 	0.045233 	4930 	0.044639
41.09 	0.043329 	4939 	0.042617
41.11 	0.046809 	4935 	0.045958
41.13 	0.047407 	4936 	0.046695
41.15 	0.048573 	4941 	0.047980
41.17 	0.043170 	4934 	0.043051
41.19 	0.049290 	4930 	0.048815
41.21 	0.046182 	4937 	0.045945
41.23 	0.043734 	4939 	0.043259
41.25 	0.044800 	4933 	0.044207
41.27 	0.044413 	4931 	0.044057
41.29 	0.046063 	4928 	0.045331
41.31 	0.046219 	4933 	0.045863
41.33 	0.043144 	4937 	0.041957
41.35 	0.042122 	4938 	0.041885
41.37 	0.041227 	4924 	0.040751
41.39 	0.048855 	4933 	0.047905
41.41 	0.040398 	4926 	0.040041
41.43 	0.039562 	4929 	0.039324
41.45 	0.047009 	4914 	0.046413
41.47 	0.044458 	4926 	0.043744
41.49 	0.043540 	4892 	0.043062
41.51 	0.039676 	4940 	0.039320
41.53 	0.042476 	4944 	0.042002
41.55 	0.046403 	4935 	0.045691
41.57 	0.043513 	4941 	0.043513
41.59 	0.047436 	4933 	0.046723
41.61 	0.047244 	4953 	0.047126
41.63 	0.041312 	4938 	0.040838
41.65 	0.048286 	4929 	0.047296
41.67 	0.041903 	4940 	0.041666
41.69 	0.043259 	4947 	0.042430
41.71 	0.040130 	4934 	0.039892
41.73 	0.047407 	4936 	0.046813
41.75 	0.044025 	4929 	0.043906
41.77 	0.043716 	4941 	0.043242
41.79 	0.044296 	4944 	0.043230
41.81 	0.041329 	4936 	0.040854
41.83 	0.043628 	4928 	0.042915
41.85 	0.039684 	4939 	0.038973
41.87 	0.039108 	4935 	0.038871
41.89 	0.038313 	4933 	0.038195
41.91 	0.041329 	4936 	0.040736
41.93 	0.044809 	4932 	0.043602
41.95 	0.040965 	4931 	0.040609
41.97 	0.042939 	4914 	0.042581
41.99 	0.046075 	4905 	0.045120
42.01 	0.038244 	4942 	0.038007
42.03 	0.039684 	4939 	0.039328
42.05 	0.046648 	4952 	0.045800
42.07 	0.044764 	4937 	0.043933
42.09 	0.041633 	4948 	0.041041
42.11 	0.042669 	4945 	0.042432
42.13 	0.044287 	4945 	0.043813
42.15 	0.045160 	4938 	0.045160
42.17 	0.040464 	4918 	0.040344
42.19 	0.045232 	4908 	0.044755
42.21 	0.040604 	4901 	0.040245
42.23 	0.040065 	4892 	0.039826
42.25 	0.038249 	4889 	0.038129
42.27 	0.038367 	4874 	0.037766
42.29 	0.041744 	4863 	0.041141
42.31 	0.040783 	4855 	0.040059
42.33 	0.044477 	4834 	0.043750
42.35 	0.048987 	4838 	0.048624
42.37 	0.039130 	4830 	0.039009
42.39 	0.038301 	4804 	0.038058
42.41 	0.041840 	4804 	0.041109
42.43 	0.040693 	4792 	0.040326
42.45 	0.036642 	4776 	0.036519
42.47 	0.039244 	4765 	0.038876
42.49 	0.043652 	4765 	0.043283
42.51 	0.039216 	4743 	0.038722
42.53 	0.039975 	4728 	0.039479
42.55 	0.036321 	4708 	0.035823
42.57 	0.039958 	4730 	0.039710
42.59 	0.040178 	4729 	0.039434
42.61 	0.040144 	4708 	0.039771
42.63 	0.044171 	4709 	0.042927
42.65 	0.042689 	4685 	0.042439
42.67 	0.040991 	4684 	0.040115
42.69 	0.043646 	4674 	0.043019
42.71 	0.040103 	4663 	0.039852
42.73 	0.039655 	4640 	0.038898
42.75 	0.042235 	4617 	0.041601
42.77 	0.040652 	4600 	0.040143
42.79 	0.040157 	4582 	0.039518
42.81 	0.039676 	4562 	0.039547
42.83 	0.045855 	4536 	0.045339
42.85 	0.043065 	4528 	0.042030
42.87 	0.046677 	4499 	0.046026
42.89 	0.046652 	4480 	0.046129
42.91 	0.037029 	4456 	0.036897
42.93 	0.042285 	4446 	0.041626
42.95 	0.037138 	4416 	0.037005
42.97 	0.041809 	4401 	0.041143
42.99 	0.043558 	4385 	0.043023
43.01 	0.040568 	4363 	0.040434
43.03 	0.039465 	4333 	0.038789
43.05 	0.045087 	4325 	0.044274
43.07 	0.037709 	4296 	0.037437
43.09 	0.048564 	4283 	0.047858
43.11 	0.041128 	4255 	0.040853
43.13 	0.042247 	4237 	0.041694
43.15 	0.042558 	4206 	0.041862
43.17 	0.037090 	4179 	0.036950
43.19 	0.041488 	4194 	0.040929
43.21 	0.040508 	4172 	0.039947
43.23 	0.039239 	4154 	0.038675
43.25 	0.038210 	4135 	0.037337
43.27 	0.043362 	4105 	0.043076
43.29 	0.042195 	4100 	0.041766
43.31 	0.035303 	4079 	0.035159
43.33 	0.040731 	4051 	0.040441
43.35 	0.036954 	4032 	0.036519
43.37 	0.038107 	4015 	0.037669
43.39 	0.043978 	4002 	0.043222
43.41 	0.041289 	3972 	0.040847
43.43 	0.036111 	3960 	0.035815
43.45 	0.047268 	3935 	0.046970
43.47 	0.046927 	3921 	0.045881
43.49 	0.037721 	3897 	0.037120
43.51 	0.038948 	3877 	0.038494
43.53 	0.039348 	3863 	0.038893
43.55 	0.038462 	2964 	0.037671
43.57 	0.042002 	2238 	0.041740
43.59 	0.045246 	1746 	0.044911
43.61 	0.042191 	1351 	0.040890
43.63 	0.046953 	1001 	0.046368
43.65 	0.046579 	687 	0.043169
43.67 	0.029880 	502 	0.029880
43.69 	0.021798 	367 	0.020202
43.71 	0.050209 	239 	0.050209
43.73 	0.033333 	120 	0.033333
43.75 	0.062500 	16 	0.062500