File: Example_Data/25SC_s1_0030.004.dat
#F C:\frames\spec\25SC_s1_0030.004
#C title =s:30 frm:4 25SC_s1
#C wavelength =0.15406

#S 1  fr_average C:\frames\spec\25SC_s1_0030.004 C:\win32app\speccom\mask.axs chi 0 180 0 360 0.02
#C 2 theta =0.000000 to 180 deg
#C   q   =0.000000 to 81.568 nm^-1
#C  chi  =0.000000 to 360 deg
#C collumns:
#C  1 position (2theta or chi in degrees)
#C  2 average intensity (sum of all counts in the region divided with number of pixels)
#C  3 Number of pixels in region)
#C  4 error (sum of sqrt(intensity) for all pixels divided by number)
#N 4
#L TTh  Int  N_pix  Err
32.99 	0.081967 	61 	0.072364
33.01 	0.063001 	873 	0.063001
33.03 	0.055356 	1391 	0.055356
33.05 	0.062038 	1757 	0.061371
33.07 	0.055610 	2050 	0.054753
33.09 	0.053686 	2347 	0.053436
33.11 	0.054672 	2579 	0.053310
33.13 	0.059792 	2793 	0.058953
33.15 	0.068023 	2999 	0.066655
33.17 	0.065292 	3201 	0.063279
33.19 	0.064931 	3342 	0.063704
33.21 	0.059953 	3436 	0.058391
33.23 	0.057621 	3523 	0.056596
33.25 	0.062569 	3612 	0.061272
33.27 	0.056474 	3630 	0.055344
33.29 	0.055099 	3648 	0.054135
33.31 	0.058197 	3660 	0.057877
33.33 	0.061042 	3686 	0.058976
33.35 	0.064429 	3694 	0.063160
33.37 	0.061928 	3714 	0.060325
33.39 	0.058193 	3729 	0.057721
33.41 	0.063369 	3740 	0.061803
33.43 	0.059559 	3761 	0.058313
33.45 	0.057249 	3773 	0.056628
33.47 	0.058452 	3798 	0.057681
33.49 	0.057233 	3809 	0.056003
33.51 	0.064744 	3815 	0.063363
33.53 	0.061963 	3841 	0.060285
33.55 	0.061931 	3843 	0.061016
33.57 	0.071189 	3877 	0.069980
33.59 	0.056443 	3880 	0.055990
33.61 	0.059350 	3909 	0.058277
33.63 	0.055882 	3919 	0.055134
33.65 	0.059781 	3931 	0.058738
33.67 	0.058928 	3954 	0.058335
33.69 	0.051353 	3953 	0.050464
33.71 	0.059623 	3975 	0.058444
33.73 	0.064186 	4004 	0.062552
33.75 	0.058515 	3999 	0.057172
33.77 	0.060373 	4025 	0.059063
33.79 	0.067558 	4041 	0.066398
33.81 	0.058692 	4038 	0.057677
33.83 	0.065185 	4050 	0.063160
33.85 	0.059039 	4099 	0.058181
33.87 	0.059110 	4111 	0.058255
33.89 	0.060180 	4121 	0.058758
33.91 	0.057845 	4149 	0.056575
33.93 	0.065526 	4151 	0.064821
33.95 	0.057163 	4181 	0.056883
33.97 	0.059189 	4190 	0.057930
33.99 	0.055714 	4200 	0.054599
34.01 	0.059103 	4213 	0.057990
34.03 	0.054194 	4244 	0.053228
34.05 	0.061383 	4252 	0.060419
34.07 	0.059747 	4268 	0.058512
34.09 	0.062762 	4286 	0.061396
34.11 	0.057880 	4302 	0.056632
34.13 	0.058960 	4308 	0.057464
34.15 	0.064188 	4331 	0.062408
34.17 	0.062759 	4350 	0.061412
34.19 	0.060752 	4362 	0.059409
34.21 	0.064059 	4371 	0.063388
34.23 	0.058957 	4393 	0.057869
34.25 	0.060854 	4404 	0.059657
34.27 	0.063772 	4422 	0.062447
34.29 	0.052988 	4435 	0.052723
34.31 	0.054957 	4458 	0.054038
34.33 	0.060613 	4471 	0.059565
34.35 	0.061329 	4484 	0.060284
34.37 	0.061679 	4491 	0.060244
34.39 	0.067303 	4502 	0.066393
34.41 	0.057667 	4526 	0.056610
34.43 	0.058603 	4539 	0.057571
34.45 	0.055568 	4535 	0.054922
34.47 	0.055967 	4592 	0.054691
34.49 	0.060692 	4597 	0.059290
34.51 	0.053626 	4606 	0.052735
34.53 	0.052768 	4643 	0.052263
34.55 	0.049537 	4643 	0.048906
34.57 	0.058369 	4660 	0.057741
34.59 	0.050909 	4675 	0.049656
34.61 	0.057909 	4697 	0.057036
34.63 	0.057113 	4710 	0.055973
34.65 	0.055709 	4721 	0.054840
34.67 	0.061169 	4741 	0.060057
34.69 	0.060160 	4754 	0.059421
34.71 	0.057700 	4766 	0.056348
34.73 	0.055149 	4787 	0.054538
34.75 	0.064892 	4808 	0.063288
34.77 	0.061229 	4818 	0.060134
34.79 	0.057836 	4824 	0.056864
34.81 	0.057585 	4845 	0.056336
34.83 	0.057589 	4862 	0.056264
34.85 	0.057917 	4869 	0.056594
34.87 	0.057313 	4868 	0.056832
34.89 	0.051823 	4882 	0.050983
34.91 	0.060631 	4882 	0.059671
34.93 	0.055930 	4899 	0.055073
34.95 	0.057669 	4890 	0.056710
34.97 	0.055692 	4902 	0.054596
34.99 	0.060649 	4897 	0.059294
35.01 	0.063173 	4923 	0.061864
35.03 	0.057050 	4943 	0.056102
35.05 	0.055185 	4947 	0.054474
35.07 	0.064372 	4940 	0.062950
35.09 	0.058550 	4953 	0.057249
35.11 	0.052557 	4947 	0.051847
35.13 	0.057886 	4958 	0.057059
35.15 	0.059955 	4937 	0.059006
35.17 	0.059442 	4946 	0.057784
35.19 	0.051194 	4942 	0.050108
35.21 	0.053589 	4945 	0.052622
35.23 	0.060465 	4945 	0.059399
35.25 	0.054218 	4943 	0.053033
35.27 	0.056791 	4948 	0.055449
35.29 	0.062083 	4945 	0.061135
35.31 	0.064261 	4933 	0.062955
35.33 	0.060692 	4943 	0.059033
35.35 	0.055645 	4942 	0.054460
35.37 	0.057299 	4939 	0.056113
35.39 	0.063094 	4945 	0.061909
35.41 	0.054202 	4926 	0.053370
35.43 	0.050476 	4933 	0.049883
35.45 	0.055499 	4937 	0.054669
35.47 	0.058000 	4931 	0.057050
35.49 	0.063340 	4910 	0.062008
35.51 	0.054811 	4926 	0.054217
35.53 	0.058396 	4949 	0.057212
35.55 	0.061072 	4945 	0.059631
35.57 	0.051895 	4933 	0.051302
35.59 	0.051972 	4945 	0.050649
35.61 	0.045123 	4942 	0.044531
35.63 	0.055432 	4943 	0.054128
35.65 	0.062083 	4945 	0.061135
35.67 	0.058478 	4942 	0.057649
35.69 	0.058229 	4946 	0.057281
35.71 	0.054892 	4937 	0.053942
35.73 	0.057334 	4936 	0.056978
35.75 	0.056784 	4931 	0.055814
35.77 	0.054736 	4951 	0.053553
35.79 	0.055961 	4932 	0.054892
35.81 	0.053517 	4933 	0.052686
35.83 	0.059846 	4946 	0.059017
35.85 	0.057345 	4935 	0.056277
35.87 	0.052813 	4923 	0.051742
35.89 	0.057154 	4934 	0.056442
35.91 	0.061904 	4927 	0.060814
35.93 	0.066166 	4927 	0.065096
35.95 	0.057555 	4917 	0.057079
35.97 	0.056189 	4912 	0.055116
35.99 	0.059121 	4939 	0.058054
36.01 	0.064097 	4930 	0.063266
36.03 	0.059478 	4943 	0.058530
36.05 	0.054196 	4945 	0.053604
36.07 	0.054869 	4939 	0.053802
36.09 	0.061943 	4940 	0.061094
36.11 	0.052140 	4929 	0.051308
36.13 	0.058478 	4942 	0.056819
36.15 	0.053857 	4939 	0.053027
36.17 	0.054619 	4925 	0.053549
36.19 	0.058502 	4940 	0.057415
36.21 	0.058227 	4929 	0.056920
36.23 	0.053090 	4935 	0.051903
36.25 	0.058085 	4941 	0.056663
36.27 	0.060305 	4925 	0.059591
36.29 	0.059217 	4931 	0.058623
36.31 	0.057224 	4928 	0.056749
36.33 	0.056355 	4933 	0.055643
36.35 	0.053155 	4929 	0.052442
36.37 	0.054235 	4923 	0.053521
36.39 	0.059338 	4921 	0.058247
36.41 	0.059641 	4896 	0.058305
36.43 	0.053774 	4928 	0.052823
36.45 	0.058215 	4930 	0.056670
36.47 	0.056726 	4936 	0.056014
36.49 	0.050789 	4942 	0.049959
36.51 	0.051085 	4933 	0.050253
36.53 	0.048958 	4943 	0.048366
36.55 	0.054800 	4927 	0.053730
36.57 	0.053304 	4934 	0.052216
36.59 	0.054667 	4939 	0.053580
36.61 	0.053944 	4931 	0.052875
36.63 	0.059014 	4931 	0.057094
36.65 	0.051500 	4932 	0.051025
36.67 	0.055781 	4930 	0.054712
36.69 	0.059444 	4929 	0.058256
36.71 	0.057305 	4921 	0.056472
36.73 	0.057259 	4925 	0.056545
36.75 	0.061286 	4944 	0.060063
36.77 	0.053873 	4919 	0.053396
36.79 	0.053851 	4921 	0.052422
36.81 	0.060008 	4916 	0.058936
36.83 	0.059003 	4915 	0.057811
36.85 	0.052675 	4898 	0.052077
36.87 	0.057241 	4944 	0.056056
36.89 	0.055533 	4916 	0.054461
36.91 	0.059097 	4941 	0.057912
36.93 	0.060649 	4930 	0.059699
36.95 	0.053314 	4933 	0.052127
36.97 	0.054925 	4934 	0.054450
36.99 	0.051672 	4935 	0.050603
37.01 	0.054531 	4933 	0.053581
37.03 	0.048538 	4924 	0.047824
37.05 	0.049523 	4927 	0.048691
37.07 	0.063222 	4935 	0.062154
37.09 	0.057427 	4928 	0.056714
37.11 	0.050456 	4935 	0.049862
37.13 	0.057474 	4924 	0.056760
37.15 	0.055408 	4909 	0.054812
37.17 	0.052696 	4934 	0.051627
37.19 	0.059898 	4925 	0.059304
37.21 	0.062436 	4917 	0.060769
37.23 	0.061000 	4918 	0.059928
37.25 	0.054775 	4911 	0.054059
37.27 	0.056191 	4894 	0.055832
37.29 	0.061460 	4930 	0.059777
37.31 	0.052888 	4935 	0.052294
37.33 	0.061295 	4927 	0.059868
37.35 	0.052855 	4938 	0.052025
37.37 	0.049929 	4927 	0.049572
37.39 	0.056986 	4931 	0.056392
37.41 	0.050497 	4931 	0.050022
37.43 	0.053528 	4932 	0.053053
37.45 	0.054630 	4924 	0.053798
37.47 	0.051329 	4929 	0.050497
37.49 	0.053423 	4923 	0.052471
37.51 	0.058990 	4933 	0.057922
37.53 	0.056312 	4919 	0.055717
37.55 	0.047262 	4930 	0.045955
37.57 	0.058680 	4925 	0.057967
37.59 	0.056968 	4915 	0.056253
37.61 	0.053840 	4922 	0.053483
37.63 	0.056516 	4919 	0.055206
37.65 	0.051850 	4918 	0.050897
37.67 	0.056077 	4904 	0.055002
37.69 	0.051245 	4898 	0.050169
37.71 	0.054372 	4929 	0.052808
37.73 	0.050314 	4929 	0.049601
37.75 	0.055870 	4940 	0.054922
37.77 	0.055691 	4920 	0.055096
37.79 	0.056998 	4930 	0.056166
37.81 	0.049868 	4933 	0.049136
37.83 	0.053659 	4920 	0.052944
37.85 	0.055059 	4922 	0.053988
37.87 	0.056894 	4939 	0.056182
37.89 	0.056853 	4925 	0.056139
37.91 	0.054970 	4930 	0.054138
37.93 	0.054279 	4919 	0.053684
37.95 	0.052225 	4921 	0.051273
37.97 	0.054778 	4929 	0.054065
37.99 	0.052728 	4912 	0.051893
38.01 	0.057630 	4928 	0.055966
38.03 	0.060705 	4909 	0.059373
38.05 	0.055431 	4925 	0.053766
38.07 	0.057038 	4909 	0.056203
38.09 	0.050841 	4878 	0.050360
38.11 	0.055319 	4935 	0.054370
38.13 	0.059550 	4937 	0.058720
38.15 	0.057137 	4918 	0.055946
38.17 	0.056998 	4930 	0.056404
38.19 	0.059026 	4930 	0.057819
38.21 	0.067642 	4923 	0.066571
38.23 	0.059336 	4938 	0.058031
38.25 	0.059182 	4917 	0.057872
38.27 	0.058621 	4930 	0.057551
38.29 	0.066816 	4924 	0.065507
38.31 	0.066166 	4927 	0.064977
38.33 	0.059098 	4924 	0.058028
38.35 	0.066761 	4928 	0.066167
38.37 	0.068237 	4924 	0.066810
38.39 	0.068649 	4909 	0.067217
38.41 	0.063782 	4923 	0.062711
38.43 	0.067128 	4916 	0.065936
38.45 	0.072997 	4918 	0.072282
38.47 	0.066843 	4907 	0.066127
38.49 	0.069100 	4877 	0.067379
38.51 	0.066504 	4932 	0.065673
38.53 	0.062690 	4929 	0.061145
38.55 	0.061183 	4936 	0.060471
38.57 	0.059923 	4923 	0.058614
38.59 	0.068034 	4924 	0.066844
38.61 	0.056118 	4936 	0.055525
38.63 	0.059708 	4924 	0.058875
38.65 	0.062220 	4918 	0.061268
38.67 	0.058943 	4937 	0.057262
38.69 	0.056684 	4922 	0.055494
38.71 	0.059504 	4924 	0.058315
38.73 	0.053477 	4918 	0.053001
38.75 	0.060483 	4927 	0.059532
38.77 	0.050782 	4923 	0.050068
38.79 	0.058573 	4934 	0.057980
38.81 	0.060057 	4912 	0.058726
38.83 	0.050213 	4919 	0.049261
38.85 	0.056596 	4912 	0.055523
38.87 	0.049888 	4911 	0.049033
38.89 	0.056157 	4897 	0.055439
38.91 	0.048950 	4903 	0.047755
38.93 	0.058526 	4938 	0.057577
38.95 	0.061814 	4918 	0.060504
38.97 	0.052119 	4931 	0.051288
38.99 	0.052664 	4937 	0.052426
39.01 	0.052664 	4918 	0.051949
39.03 	0.055938 	4934 	0.055107
39.05 	0.054822 	4925 	0.053514
39.07 	0.053615 	4924 	0.053258
39.09 	0.052813 	4923 	0.051961
39.11 	0.056175 	4931 	0.054868
39.13 	0.053829 	4923 	0.052877
39.15 	0.058596 	4915 	0.057404
39.17 	0.055094 	4937 	0.054501
39.19 	0.058166 	4917 	0.057093
39.21 	0.048065 	4910 	0.047588
39.23 	0.049543 	4925 	0.049067
39.25 	0.056278 	4922 	0.055326
39.27 	0.049287 	4910 	0.048313
39.29 	0.048153 	4901 	0.046839
39.31 	0.057944 	4884 	0.057465
39.33 	0.053133 	4931 	0.051332
39.35 	0.051874 	4935 	0.050549
39.37 	0.057415 	4929 	0.056346
39.39 	0.057618 	4929 	0.056549
39.41 	0.051916 	4931 	0.051322
39.43 	0.047436 	4933 	0.046604
39.45 	0.053807 	4925 	0.053093
39.47 	0.058907 	4923 	0.058193
39.49 	0.055544 	4933 	0.054713
39.51 	0.053615 	4924 	0.052901
39.53 	0.053626 	4923 	0.052555
39.55 	0.050417 	4919 	0.049821
39.57 	0.050476 	4933 	0.049764
39.59 	0.052524 	4912 	0.051213
39.61 	0.060329 	4923 	0.059258
39.63 	0.052011 	4922 	0.051773
39.65 	0.054202 	4926 	0.053132
39.67 	0.059027 	4913 	0.058431
39.69 	0.049430 	4916 	0.048835
39.71 	0.052911 	4895 	0.051714
39.73 	0.053790 	4908 	0.053074
39.75 	0.058847 	4928 	0.058015
39.77 	0.053495 	4935 	0.052546
39.79 	0.057044 	4926 	0.055717
39.81 	0.056830 	4927 	0.056354
39.83 	0.054520 	4934 	0.053926
39.85 	0.053582 	4927 	0.052750
39.87 	0.054822 	4925 	0.054109
39.89 	0.057560 	4934 	0.057441
39.91 	0.052621 	4922 	0.051907
39.93 	0.055702 	4937 	0.054515
39.95 	0.057172 	4915 	0.056099
39.97 	0.053571 	4928 	0.052858
39.99 	0.053528 	4932 	0.052558
40.01 	0.051037 	4918 	0.050303
40.03 	0.055195 	4928 	0.054076
40.05 	0.054505 	4917 	0.053194
40.07 	0.053626 	4923 	0.052674
40.09 	0.057364 	4916 	0.056391
40.11 	0.052482 	4916 	0.052005
40.13 	0.056985 	4896 	0.056507
40.15 	0.055363 	4913 	0.054529
40.17 	0.046469 	4928 	0.045875
40.19 	0.054778 	4929 	0.054184
40.21 	0.049848 	4935 	0.049373
40.23 	0.055556 	4932 	0.054724
40.25 	0.052846 	4920 	0.052250
40.27 	0.051853 	4937 	0.050647
40.29 	0.049320 	4927 	0.048131
40.31 	0.054869 	4939 	0.053802
40.33 	0.051095 	4932 	0.050263
40.35 	0.051230 	4919 	0.050634
40.37 	0.061270 	4929 	0.060438
40.39 	0.053539 	4931 	0.052707
40.41 	0.057868 	4925 	0.056798
40.43 	0.057294 	4922 	0.056104
40.45 	0.056963 	4933 	0.055538
40.47 	0.050020 	4918 	0.049425
40.49 	0.061307 	4926 	0.059504
40.51 	0.047745 	4922 	0.047269
40.53 	0.045566 	4916 	0.045446
40.55 	0.050937 	4908 	0.049982
40.57 	0.047239 	4890 	0.046760
40.59 	0.048207 	4937 	0.048089
40.61 	0.052888 	4935 	0.052650
40.63 	0.053550 	4930 	0.053174
40.65 	0.050638 	4937 	0.050045
40.67 	0.050689 	4932 	0.049739
40.69 	0.054284 	4937 	0.053335
40.71 	0.050284 	4932 	0.049690
40.73 	0.048924 	4926 	0.048448
40.75 	0.052728 	4931 	0.052134
40.77 	0.051630 	4939 	0.050681
40.79 	0.050772 	4924 	0.050177
40.81 	0.057478 	4941 	0.056530
40.83 	0.049716 	4928 	0.049478
40.85 	0.048741 	4924 	0.048146
40.87 	0.053166 	4928 	0.052215
40.89 	0.053133 	4931 	0.052896
40.91 	0.060126 	4923 	0.059174
40.93 	0.051480 	4934 	0.050292
40.95 	0.049868 	4913 	0.049272
40.97 	0.052193 	4924 	0.051103
40.99 	0.051178 	4924 	0.050821
41.01 	0.053746 	4912 	0.052553
41.03 	0.048930 	4905 	0.047716
41.05 	0.050041 	4936 	0.049309
41.07 	0.048073 	4930 	0.047598
41.09 	0.048998 	4939 	0.047693
41.11 	0.053698 	4935 	0.052867
41.13 	0.048622 	4936 	0.048029
41.15 	0.052216 	4941 	0.051268
41.17 	0.048439 	4934 	0.047846
41.19 	0.051318 	4930 	0.050348
41.21 	0.049625 	4937 	0.048182
41.23 	0.056287 	4939 	0.055219
41.25 	0.050476 	4933 	0.050001
41.27 	0.054147 	4931 	0.053434
41.29 	0.051136 	4928 	0.050661
41.31 	0.049666 	4933 	0.049072
41.33 	0.049220 	4937 	0.048746
41.35 	0.050020 	4938 	0.049664
41.37 	0.041633 	4924 	0.041038
41.39 	0.050071 	4933 	0.049358
41.41 	0.046691 	4926 	0.045978
41.43 	0.051735 	4929 	0.051259
41.45 	0.054945 	4914 	0.054111
41.47 	0.047909 	4926 	0.047552
41.49 	0.048038 	4892 	0.047199
41.51 	0.047571 	4940 	0.046978
41.53 	0.042678 	4944 	0.042086
41.55 	0.047822 	4935 	0.047327
41.57 	0.051811 	4941 	0.050981
41.59 	0.049868 	4933 	0.049393
41.61 	0.051888 	4953 	0.050823
41.63 	0.049210 	4938 	0.048854
41.65 	0.047271 	4929 	0.047152
41.67 	0.046154 	4940 	0.045798
41.69 	0.050738 	4947 	0.050146
41.71 	0.048237 	4934 	0.047999
41.73 	0.049230 	4936 	0.048162
41.75 	0.049503 	4929 	0.048077
41.77 	0.048978 	4941 	0.048622
41.79 	0.047128 	4944 	0.046654
41.81 	0.046191 	4936 	0.045361
41.83 	0.052151 	4928 	0.050705
41.85 	0.046568 	4939 	0.045975
41.87 	0.050861 	4935 	0.050030
41.89 	0.046422 	4933 	0.045828
41.91 	0.049230 	4936 	0.048617
41.93 	0.047242 	4932 	0.046767
41.95 	0.048063 	4931 	0.046994
41.97 	0.049654 	4914 	0.048919
41.99 	0.040367 	4905 	0.040009
42.01 	0.047754 	4942 	0.047398
42.03 	0.042924 	4939 	0.042093
42.05 	0.043013 	4952 	0.042421
42.07 	0.051448 	4937 	0.050855
42.09 	0.053153 	4948 	0.052442
42.11 	0.049141 	4945 	0.048193
42.13 	0.043478 	4945 	0.042886
42.15 	0.051843 	4938 	0.050756
42.17 	0.050020 	4918 	0.048591
42.19 	0.053382 	4908 	0.052308
42.21 	0.047745 	4901 	0.047028
42.23 	0.045993 	4892 	0.045514
42.25 	0.047044 	4889 	0.046565
42.27 	0.046163 	4874 	0.045923
42.29 	0.049352 	4863 	0.048750
42.31 	0.046550 	4855 	0.045947
42.33 	0.045925 	4834 	0.045198
42.35 	0.054981 	4838 	0.054255
42.37 	0.046791 	4830 	0.046043
42.39 	0.044130 	4804 	0.043764
42.41 	0.049334 	4804 	0.048602
42.43 	0.051544 	4792 	0.050811
42.45 	0.049414 	4776 	0.048923
42.47 	0.049108 	4765 	0.049108
42.49 	0.044701 	4765 	0.044086
42.51 	0.044065 	4743 	0.043200
42.53 	0.044628 	4728 	0.044380
42.55 	0.049915 	4708 	0.049168
42.57 	0.047357 	4730 	0.046986
42.59 	0.043561 	4729 	0.042818
42.61 	0.046092 	4708 	0.045698
42.63 	0.045233 	4709 	0.044859
42.65 	0.043543 	4685 	0.043168
42.67 	0.044406 	4684 	0.044156
42.69 	0.046427 	4674 	0.045550
42.71 	0.043320 	4663 	0.043194
42.73 	0.043966 	4640 	0.043461
42.75 	0.047217 	4617 	0.046963
42.77 	0.048913 	4600 	0.048276
42.79 	0.044740 	4582 	0.043696
42.81 	0.049759 	4562 	0.049245
42.83 	0.043210 	4536 	0.042822
42.85 	0.047041 	4528 	0.046135
42.87 	0.049567 	4499 	0.049306
42.89 	0.043527 	4480 	0.043396
42.91 	0.045557 	4456 	0.044899
42.93 	0.045659 	4446 	0.045132
42.95 	0.041214 	4416 	0.040418
42.97 	0.049761 	4401 	0.048963
42.99 	0.046522 	4385 	0.046121
43.01 	0.050424 	4363 	0.049350
43.03 	0.040388 	4333 	0.039982
43.05 	0.047861 	4325 	0.047455
43.07 	0.047719 	4296 	0.046764
43.09 	0.049265 	4283 	0.048581
43.11 	0.050999 	4255 	0.050310
43.13 	0.048147 	4237 	0.047295
43.15 	0.048027 	4206 	0.047609
43.17 	0.048098 	4179 	0.047537
43.19 	0.045541 	4194 	0.044703
43.21 	0.042186 	4172 	0.041905
43.23 	0.045980 	4154 	0.045557
43.25 	0.043531 	4135 	0.043106
43.27 	0.049695 	4105 	0.049125
43.29 	0.045122 	4100 	0.044527
43.31 	0.050748 	4079 	0.050317
43.33 	0.047149 	4051 	0.046570
43.35 	0.047371 	4032 	0.046790
43.37 	0.039851 	4015 	0.039121
43.39 	0.044728 	4002 	0.043264
43.41 	0.047331 	3972 	0.046741
43.43 	0.046212 	3960 	0.045768
43.45 	0.038119 	3935 	0.037971
43.47 	0.048457 	3921 	0.047561
43.49 	0.047986 	3897 	0.046933
43.51 	0.044364 	3877 	0.043911
43.53 	0.039865 	3863 	0.039107
43.55 	0.046559 	2964 	0.046163
43.57 	0.042449 	2238 	0.042187
43.59 	0.049255 	1746 	0.047913
43.61 	0.050333 	1351 	0.048961
43.63 	0.042957 	1001 	0.042957
43.65 	0.050946 	687 	0.049241
43.67 	0.031873 	502 	0.030706
43.69 	0.046322 	367 	0.046322
43.71 	0.066946 	239 	0.064495
43.73 	0.050000 	120 	0.050000
43.75 	0.000000 	16 	0.000000