File: Example_Data/25SC_s1_0007.000.dat
#F C:\frames\spec\25SC_s1_0007.000
#C title =s:7 frm:0 25SC_s1
#C wavelength =0.15406

#S 1  fr_average C:\frames\spec\25SC_s1_0007.000 C:\win32app\speccom\mask.axs chi 0 180 0 360 0.02
#C 2 theta =0.000000 to 180 deg
#C   q   =0.000000 to 81.568 nm^-1
#C  chi  =0.000000 to 360 deg
#C collumns:
#C  1 position (2theta or chi in degrees)
#C  2 average intensity (sum of all counts in the region divided with number of pixels)
#C  3 Number of pixels in region)
#C  4 error (sum of sqrt(intensity) for all pixels divided by number)
#N 4
#L TTh  Int  N_pix  Err
32.99 	0.081967 	61 	0.081967
33.01 	0.064147 	873 	0.062805
33.03 	0.061107 	1391 	0.059844
33.05 	0.071144 	1757 	0.069422
33.07 	0.052195 	2050 	0.051052
33.09 	0.052833 	2347 	0.051835
33.11 	0.068631 	2579 	0.067496
33.13 	0.058360 	2793 	0.056682
33.15 	0.066689 	2999 	0.065712
33.17 	0.061231 	3201 	0.060499
33.19 	0.061640 	3342 	0.060588
33.21 	0.059662 	3436 	0.058980
33.23 	0.058757 	3523 	0.057759
33.25 	0.061185 	3612 	0.060050
33.27 	0.061708 	3630 	0.060578
33.29 	0.061129 	3648 	0.060808
33.31 	0.050546 	3660 	0.049426
33.33 	0.053717 	3686 	0.052445
33.35 	0.055495 	3694 	0.054544
33.37 	0.058158 	3714 	0.056739
33.39 	0.064360 	3729 	0.063732
33.41 	0.059626 	3740 	0.058999
33.43 	0.059293 	3761 	0.057398
33.45 	0.059899 	3773 	0.059123
33.47 	0.057662 	3798 	0.057199
33.49 	0.064846 	3809 	0.064231
33.51 	0.054784 	3815 	0.053402
33.53 	0.053632 	3841 	0.053022
33.55 	0.060630 	3843 	0.060172
33.57 	0.056229 	3877 	0.055171
33.59 	0.052577 	3880 	0.051520
33.61 	0.069327 	3909 	0.068128
33.63 	0.060475 	3919 	0.058382
33.65 	0.063088 	3931 	0.061896
33.67 	0.061710 	3954 	0.060821
33.69 	0.066532 	3953 	0.065791
33.71 	0.063396 	3975 	0.062070
33.73 	0.057443 	4004 	0.057150
33.75 	0.064266 	3999 	0.063680
33.77 	0.059876 	4025 	0.058420
33.79 	0.061123 	4041 	0.060399
33.81 	0.064388 	4038 	0.063083
33.83 	0.055309 	4050 	0.054585
33.85 	0.062210 	4099 	0.060758
33.87 	0.068110 	4111 	0.067255
33.89 	0.060908 	4121 	0.059321
33.91 	0.063871 	4149 	0.063306
33.93 	0.066731 	4151 	0.065602
33.95 	0.060033 	4181 	0.059193
33.97 	0.056086 	4190 	0.055387
33.99 	0.058571 	4200 	0.057177
34.01 	0.056254 	4213 	0.054864
34.03 	0.053959 	4244 	0.053406
34.05 	0.055974 	4252 	0.054596
34.07 	0.058575 	4268 	0.057477
34.09 	0.059263 	4286 	0.057578
34.11 	0.056020 	4302 	0.054931
34.13 	0.053389 	4308 	0.052573
34.15 	0.053567 	4331 	0.053162
34.17 	0.062759 	4350 	0.061412
34.19 	0.052270 	4362 	0.051732
34.21 	0.061084 	4371 	0.060280
34.23 	0.051218 	4393 	0.050818
34.25 	0.055631 	4404 	0.054035
34.27 	0.060380 	4422 	0.059696
34.29 	0.056144 	4435 	0.055748
34.31 	0.061238 	4458 	0.060056
34.33 	0.062178 	4471 	0.061523
34.35 	0.060883 	4484 	0.059555
34.37 	0.058116 	4491 	0.057203
34.39 	0.058418 	4502 	0.057096
34.41 	0.057888 	4526 	0.057111
34.43 	0.055299 	4539 	0.054137
34.45 	0.054465 	4535 	0.053540
34.47 	0.053789 	4592 	0.052896
34.49 	0.056341 	4597 	0.055704
34.51 	0.054494 	4606 	0.054240
34.53 	0.057937 	4643 	0.057306
34.55 	0.058367 	4643 	0.056959
34.57 	0.057082 	4660 	0.055552
34.59 	0.059679 	4675 	0.058677
34.61 	0.056845 	4697 	0.055577
34.63 	0.057962 	4710 	0.056718
34.65 	0.060369 	4721 	0.059128
34.67 	0.061169 	4741 	0.059542
34.69 	0.056584 	4754 	0.054839
34.71 	0.054973 	4766 	0.054235
34.73 	0.063088 	4787 	0.062476
34.75 	0.064060 	4808 	0.063451
34.77 	0.056455 	4818 	0.055725
34.79 	0.054104 	4824 	0.053254
34.81 	0.059443 	4845 	0.058093
34.83 	0.054916 	4862 	0.054193
34.85 	0.055042 	4869 	0.054320
34.87 	0.060600 	4868 	0.059858
34.89 	0.054486 	4882 	0.054006
34.91 	0.057149 	4882 	0.056549
34.93 	0.057767 	4899 	0.057049
34.95 	0.057873 	4890 	0.056795
34.97 	0.063239 	4902 	0.061806
34.99 	0.063508 	4897 	0.062551
35.01 	0.059313 	4923 	0.058718
35.03 	0.056848 	4943 	0.055900
35.05 	0.055387 	4947 	0.054795
35.07 	0.062955 	4940 	0.062007
35.09 	0.063194 	4953 	0.062721
35.11 	0.057409 	4947 	0.056935
35.13 	0.056474 	4958 	0.055057
35.15 	0.060563 	4937 	0.059851
35.17 	0.055803 	4946 	0.054618
35.19 	0.058883 	4942 	0.057441
35.21 	0.059454 	4945 	0.058743
35.23 	0.055005 	4945 	0.053820
35.25 	0.053611 	4943 	0.052782
35.27 	0.062045 	4948 	0.061217
35.29 	0.062083 	4945 	0.060879
35.31 	0.065275 	4933 	0.064206
35.33 	0.055230 	4943 	0.054519
35.35 	0.061514 	4942 	0.060328
35.37 	0.063778 	4939 	0.062473
35.39 	0.059050 	4945 	0.058576
35.41 	0.059886 	4926 	0.058816
35.43 	0.061018 	4933 	0.060305
35.45 	0.053879 	4937 	0.053167
35.47 	0.053944 	4931 	0.053232
35.49 	0.058248 	4910 	0.056817
35.51 	0.062728 	4926 	0.062015
35.53 	0.052738 	4949 	0.052264
35.55 	0.062285 	4945 	0.061337
35.57 	0.057774 	4933 	0.056686
35.59 	0.055005 	4945 	0.054413
35.61 	0.061109 	4942 	0.060279
35.63 	0.054218 	4943 	0.053033
35.65 	0.060263 	4945 	0.059197
35.67 	0.061109 	4942 	0.060398
35.69 	0.060857 	4946 	0.060028
35.71 	0.056917 	4937 	0.056087
35.73 	0.057334 	4936 	0.056740
35.75 	0.060434 	4931 	0.059602
35.77 	0.057766 	4951 	0.056800
35.79 	0.060219 	4932 	0.058912
35.81 	0.062234 	4933 	0.061165
35.83 	0.055398 	4946 	0.054214
35.85 	0.057345 	4935 	0.056633
35.87 	0.057282 	4923 	0.056330
35.89 	0.058168 	4934 	0.057099
35.91 	0.059671 	4927 	0.058601
35.93 	0.057439 	4927 	0.056131
35.95 	0.061420 	4917 	0.060109
35.97 	0.057207 	4912 	0.055895
35.99 	0.059931 	4939 	0.059338
36.01 	0.058824 	4930 	0.057992
36.03 	0.056646 	4943 	0.055342
36.05 	0.059454 	4945 	0.058388
36.07 	0.059324 	4939 	0.058494
36.09 	0.059109 	4940 	0.058042
36.11 	0.059444 	4929 	0.058731
36.13 	0.060502 	4942 	0.059909
36.15 	0.064183 	4939 	0.063077
36.17 	0.060305 	4925 	0.059234
36.19 	0.062955 	4940 	0.062244
36.21 	0.056198 	4929 	0.055010
36.23 	0.058359 	4935 	0.057152
36.25 	0.059705 	4941 	0.058993
36.27 	0.059695 	4925 	0.058268
36.29 	0.058812 	4931 	0.057980
36.31 	0.064529 	4928 	0.063578
36.33 	0.057977 	4933 	0.057502
36.35 	0.059850 	4929 	0.059256
36.37 	0.066423 	4923 	0.065233
36.39 	0.064418 	4921 	0.063327
36.41 	0.069036 	4896 	0.067341
36.43 	0.055195 	4928 	0.054600
36.45 	0.057809 	4930 	0.057453
36.47 	0.059968 	4936 	0.059018
36.49 	0.062930 	4942 	0.061982
36.51 	0.062437 	4933 	0.061249
36.53 	0.059478 	4943 	0.058056
36.55 	0.062513 	4927 	0.061086
36.57 	0.070531 	4934 	0.069225
36.59 	0.056692 	4939 	0.055387
36.61 	0.062868 	4931 	0.062036
36.63 	0.065301 	4931 	0.064113
36.65 	0.060624 	4932 	0.060031
36.67 	0.063083 	4930 	0.061638
36.69 	0.064313 	4929 	0.062768
36.71 	0.066450 	4921 	0.065617
36.73 	0.063350 	4925 	0.061903
36.75 	0.062702 	4944 	0.061754
36.77 	0.066884 	4919 	0.065296
36.79 	0.066450 	4921 	0.065121
36.81 	0.060618 	4916 	0.059308
36.83 	0.066938 	4915 	0.065746
36.85 	0.056145 	4898 	0.055069
36.87 	0.065332 	4944 	0.064009
36.89 	0.062449 	4916 	0.061715
36.91 	0.061728 	4941 	0.060306
36.93 	0.063286 	4930 	0.061603
36.95 	0.057369 	4933 	0.056043
36.97 	0.062221 	4934 	0.061252
36.99 	0.061398 	4935 	0.060330
37.01 	0.057369 	4933 	0.056063
37.03 	0.059708 	4924 	0.057904
37.05 	0.067384 	4927 	0.066413
37.07 	0.060588 	4935 	0.059401
37.09 	0.060674 	4928 	0.058772
37.11 	0.057143 	4935 	0.056787
37.13 	0.062145 	4924 	0.061193
37.15 	0.060501 	4909 	0.058950
37.17 	0.062221 	4934 	0.061034
37.19 	0.061320 	4925 	0.060487
37.21 	0.063047 	4917 	0.061617
37.23 	0.065270 	4918 	0.064675
37.25 	0.058033 	4911 	0.057556
37.27 	0.058848 	4894 	0.057631
37.29 	0.057809 	4930 	0.057096
37.31 	0.054509 	4935 	0.053796
37.33 	0.064948 	4927 	0.063264
37.35 	0.062576 	4938 	0.061627
37.37 	0.061701 	4927 	0.060869
37.39 	0.053133 	4931 	0.052658
37.41 	0.072602 	4931 	0.071295
37.43 	0.058800 	4932 	0.058562
37.45 	0.064379 	4924 	0.063665
37.47 	0.055995 	4929 	0.055163
37.49 	0.058907 	4923 	0.057717
37.51 	0.062842 	4933 	0.061536
37.53 	0.057125 	4919 	0.056768
37.55 	0.064097 	4930 	0.062790
37.57 	0.056447 	4925 	0.055614
37.59 	0.056562 	4915 	0.055727
37.61 	0.058919 	4922 	0.058086
37.63 	0.055092 	4919 	0.054378
37.65 	0.062220 	4918 	0.061268
37.67 	0.058116 	4904 	0.057160
37.69 	0.061658 	4898 	0.060701
37.71 	0.059647 	4929 	0.058696
37.73 	0.060256 	4929 	0.059661
37.75 	0.053036 	4940 	0.052444
37.77 	0.054268 	4920 	0.053316
37.79 	0.056389 	4930 	0.055677
37.81 	0.052909 	4933 	0.052078
37.83 	0.054878 	4920 	0.054263
37.85 	0.059529 	4922 	0.058815
37.87 	0.057704 	4939 	0.057111
37.89 	0.053198 	4925 	0.052603
37.91 	0.061055 	4930 	0.060104
37.93 	0.055296 	4919 	0.054204
37.95 	0.053648 	4921 	0.052576
37.97 	0.057010 	4929 	0.056178
37.99 	0.051710 	4912 	0.051472
38.01 	0.054789 	4928 	0.054313
38.03 	0.053371 	4909 	0.052417
38.05 	0.050964 	4925 	0.050132
38.07 	0.053371 	4909 	0.052894
38.09 	0.055761 	4878 	0.055040
38.11 	0.058967 	4935 	0.057879
38.13 	0.052866 	4937 	0.052510
38.15 	0.058357 	4918 	0.057047
38.17 	0.061055 	4930 	0.059985
38.19 	0.060649 	4930 	0.059204
38.21 	0.056267 	4923 	0.054482
38.23 	0.056703 	4938 	0.055873
38.25 	0.066911 	4917 	0.065958
38.27 	0.060041 	4930 	0.059209
38.29 	0.057067 	4924 	0.056235
38.31 	0.059468 	4927 	0.058993
38.33 	0.062348 	4924 	0.061515
38.35 	0.057833 	4928 	0.056387
38.37 	0.056864 	4924 	0.055913
38.39 	0.059686 	4909 	0.058970
38.41 	0.063985 	4923 	0.062914
38.43 	0.073637 	4916 	0.072326
38.45 	0.071167 	4918 	0.069361
38.47 	0.075606 	4907 	0.073896
38.49 	0.076892 	4877 	0.074710
38.51 	0.070762 	4932 	0.069575
38.53 	0.079935 	4929 	0.077539
38.55 	0.079417 	4936 	0.077755
38.57 	0.079829 	4923 	0.078401
38.59 	0.086515 	4924 	0.084493
38.61 	0.074352 	4936 	0.073027
38.63 	0.084281 	4924 	0.082497
38.65 	0.087027 	4918 	0.085241
38.67 	0.085274 	4937 	0.083851
38.69 	0.081877 	4922 	0.080449
38.71 	0.080829 	4924 	0.078568
38.73 	0.081334 	4918 	0.079905
38.75 	0.079765 	4927 	0.078100
38.77 	0.070282 	4923 	0.068735
38.79 	0.075395 	4934 	0.073971
38.81 	0.073901 	4912 	0.072708
38.83 	0.070136 	4919 	0.067953
38.85 	0.064943 	4912 	0.063989
38.87 	0.067196 	4911 	0.065884
38.89 	0.064938 	4897 	0.064340
38.91 	0.062411 	4903 	0.061813
38.93 	0.055691 	4938 	0.054979
38.95 	0.057747 	4918 	0.056080
38.97 	0.052525 	4931 	0.052168
38.99 	0.055094 	4937 	0.054026
39.01 	0.046767 	4918 	0.046271
39.03 	0.052290 	4934 	0.051578
39.05 	0.049340 	4925 	0.048745
39.07 	0.050366 	4924 	0.049870
39.09 	0.048751 	4923 	0.048156
39.11 	0.047252 	4931 	0.047014
39.13 	0.050579 	4923 	0.049984
39.15 	0.051272 	4915 	0.050318
39.17 	0.049018 	4937 	0.048543
39.19 	0.049217 	4917 	0.048383
39.21 	0.049084 	4910 	0.048726
39.23 	0.048325 	4925 	0.046898
39.25 	0.046526 	4922 	0.045812
39.27 	0.049898 	4910 	0.049421
39.29 	0.046929 	4901 	0.046571
39.31 	0.048116 	4884 	0.047517
39.33 	0.049483 	4931 	0.048889
39.35 	0.048835 	4935 	0.047410
39.37 	0.046865 	4929 	0.046152
39.39 	0.047880 	4929 	0.047523
39.41 	0.046644 	4931 	0.046406
39.43 	0.048652 	4933 	0.047939
39.45 	0.049746 	4925 	0.049508
39.47 	0.048141 	4923 	0.047665
39.49 	0.052504 	4933 	0.051672
39.51 	0.046710 	4924 	0.045739
39.53 	0.048548 	4923 	0.048191
39.55 	0.047571 	4919 	0.046737
39.57 	0.043787 	4933 	0.043193
39.59 	0.041938 	4912 	0.041700
39.61 	0.048548 	4923 	0.047715
39.63 	0.046119 	4922 	0.045267
39.65 	0.044661 	4926 	0.043947
39.67 	0.051089 	4913 	0.050493
39.69 	0.044345 	4916 	0.043630
39.71 	0.045965 	4895 	0.045128
39.73 	0.052160 	4908 	0.050966
39.75 	0.046469 	4928 	0.045399
39.77 	0.043364 	4935 	0.042889
39.79 	0.046488 	4926 	0.045537
39.81 	0.040593 	4927 	0.039998
39.83 	0.040940 	4934 	0.040703
39.85 	0.040999 	4927 	0.040523
39.87 	0.048325 	4925 	0.047968
39.89 	0.049655 	4934 	0.048824
39.91 	0.048151 	4922 	0.047437
39.93 	0.044156 	4937 	0.043682
39.95 	0.045982 	4915 	0.045863
39.97 	0.045252 	4928 	0.044301
39.99 	0.044404 	4932 	0.044048
40.01 	0.049207 	4918 	0.048373
40.03 	0.048701 	4928 	0.048107
40.05 	0.047590 	4917 	0.046994
40.07 	0.042454 	4923 	0.041859
40.09 	0.049024 	4916 	0.048547
40.11 	0.040683 	4916 	0.040326
40.13 	0.042688 	4896 	0.042568
40.15 	0.044983 	4913 	0.044744
40.17 	0.041802 	4928 	0.041564
40.19 	0.047068 	4929 	0.046355
40.21 	0.042553 	4935 	0.041960
40.23 	0.045215 	4932 	0.044859
40.25 	0.043089 	4920 	0.042613
40.27 	0.041321 	4937 	0.040471
40.29 	0.046479 	4927 	0.045765
40.31 	0.042924 	4939 	0.042331
40.33 	0.041971 	4932 	0.041021
40.35 	0.043505 	4919 	0.043028
40.37 	0.046663 	4929 	0.045950
40.39 	0.043399 	4931 	0.042449
40.41 	0.044061 	4925 	0.043823
40.43 	0.042666 	4922 	0.041951
40.45 	0.041962 	4933 	0.041131
40.47 	0.043514 	4918 	0.042918
40.49 	0.044052 	4926 	0.043101
40.51 	0.041650 	4922 	0.040916
40.53 	0.045566 	4916 	0.045089
40.55 	0.045844 	4908 	0.045366
40.57 	0.042740 	4890 	0.042381
40.59 	0.042536 	4937 	0.041468
40.61 	0.045593 	4935 	0.044762
40.63 	0.038134 	4930 	0.037896
40.65 	0.044764 	4937 	0.044052
40.67 	0.045012 	4932 	0.044418
40.69 	0.044561 	4937 	0.043612
40.71 	0.040349 	4932 	0.039992
40.73 	0.042428 	4926 	0.042309
40.75 	0.044616 	4931 	0.044141
40.77 	0.043734 	4939 	0.043141
40.79 	0.048538 	4924 	0.047705
40.81 	0.040275 	4941 	0.039920
40.83 	0.043425 	4928 	0.043069
40.85 	0.045288 	4924 	0.044931
40.87 	0.045049 	4928 	0.044573
40.89 	0.042588 	4931 	0.041994
40.91 	0.042657 	4923 	0.042062
40.93 	0.042562 	4934 	0.041968
40.95 	0.039894 	4913 	0.039656
40.97 	0.042851 	4924 	0.042138
40.99 	0.039602 	4924 	0.039126
41.01 	0.045806 	4912 	0.044852
41.03 	0.044852 	4905 	0.044374
41.05 	0.041126 	4936 	0.040889
41.07 	0.041785 	4930 	0.041072
41.09 	0.041911 	4939 	0.041437
41.11 	0.039919 	4935 	0.039444
41.13 	0.041734 	4936 	0.041141
41.15 	0.045942 	4941 	0.045468
41.17 	0.042359 	4934 	0.041884
41.19 	0.050507 	4930 	0.049794
41.21 	0.038282 	4937 	0.038282
41.23 	0.039077 	4939 	0.038484
41.25 	0.039327 	4933 	0.038733
41.27 	0.039343 	4931 	0.038630
41.29 	0.039976 	4928 	0.039381
41.31 	0.046219 	4933 	0.045982
41.33 	0.038485 	4937 	0.038010
41.35 	0.040907 	4938 	0.040077
41.37 	0.041836 	4924 	0.040884
41.39 	0.038516 	4933 	0.037665
41.41 	0.044458 	4926 	0.043863
41.43 	0.040982 	4929 	0.040388
41.45 	0.045177 	4914 	0.044343
41.47 	0.042022 	4926 	0.041546
41.49 	0.042518 	4892 	0.042279
41.51 	0.045749 	4940 	0.044919
41.53 	0.042678 	4944 	0.041967
41.55 	0.036879 	4935 	0.036286
41.57 	0.039263 	4941 	0.039145
41.59 	0.041557 	4933 	0.041438
41.61 	0.047446 	4953 	0.046855
41.63 	0.041110 	4938 	0.040754
41.65 	0.037533 	4929 	0.036939
41.67 	0.045142 	4940 	0.044430
41.69 	0.045482 	4947 	0.045107
41.71 	0.043575 	4934 	0.042863
41.73 	0.039911 	4936 	0.039436
41.75 	0.042199 	4929 	0.041486
41.77 	0.039466 	4941 	0.039347
41.79 	0.036003 	4944 	0.035885
41.81 	0.038290 	4936 	0.037578
41.83 	0.042005 	4928 	0.041886
41.85 	0.040494 	4939 	0.040020
41.87 	0.044985 	4935 	0.044273
41.89 	0.036084 	4933 	0.035609
41.91 	0.043963 	4936 	0.043369
41.93 	0.037713 	4932 	0.037238
41.95 	0.038937 	4931 	0.038700
41.97 	0.039072 	4914 	0.038695
41.99 	0.040775 	4905 	0.040058
42.01 	0.039660 	4942 	0.039067
42.03 	0.038267 	4939 	0.037911
42.05 	0.041195 	4952 	0.040604
42.07 	0.045372 	4937 	0.044541
42.09 	0.040218 	4948 	0.039863
42.11 	0.039029 	4945 	0.038911
42.13 	0.046916 	4945 	0.046442
42.15 	0.044957 	4938 	0.044127
42.17 	0.040667 	4918 	0.040667
42.19 	0.044417 	4908 	0.044179
42.21 	0.037135 	4901 	0.036657
42.23 	0.040883 	4892 	0.040045
42.25 	0.040090 	4889 	0.039611
42.27 	0.034263 	4874 	0.033903
42.29 	0.039482 	4863 	0.039000
42.31 	0.044490 	4855 	0.043766
42.33 	0.039926 	4834 	0.039320
42.35 	0.035965 	4838 	0.035844
42.37 	0.042029 	4830 	0.041908
42.39 	0.038301 	4804 	0.037448
42.41 	0.041840 	4804 	0.041840
42.43 	0.041110 	4792 	0.040866
42.45 	0.037898 	4776 	0.037530
42.47 	0.037985 	4765 	0.037494
42.49 	0.038195 	4765 	0.037826
42.51 	0.040902 	4743 	0.040655
42.53 	0.048012 	4728 	0.047021
42.55 	0.036746 	4708 	0.036373
42.57 	0.036998 	4730 	0.036379
42.59 	0.035948 	4729 	0.035577
42.61 	0.040994 	4708 	0.040103
42.63 	0.041198 	4709 	0.040576
42.65 	0.035859 	4685 	0.035609
42.67 	0.043553 	4684 	0.043427
42.69 	0.036585 	4674 	0.036460
42.71 	0.043105 	4663 	0.042603
42.73 	0.039871 	4640 	0.039618
42.75 	0.042885 	4617 	0.042758
42.77 	0.041087 	4600 	0.040705
42.79 	0.040157 	4582 	0.039774
42.81 	0.035511 	4562 	0.035126
42.83 	0.040785 	4536 	0.040527
42.85 	0.039753 	4528 	0.039365
42.87 	0.037564 	4499 	0.037173
42.89 	0.035714 	4480 	0.035191
42.91 	0.034336 	4456 	0.034204
42.93 	0.035313 	4446 	0.034917
42.95 	0.036685 	4416 	0.036154
42.97 	0.036583 	4401 	0.036449
42.99 	0.041733 	4385 	0.041600
43.01 	0.038964 	4363 	0.038695
43.03 	0.037849 	4333 	0.037579
43.05 	0.040462 	4325 	0.040056
43.07 	0.040503 	4296 	0.039685
43.09 	0.038758 	4283 	0.037937
43.11 	0.035253 	4255 	0.034564
43.13 	0.038471 	4237 	0.037895
43.15 	0.041607 	4206 	0.041189
43.17 	0.038047 	4179 	0.037487
43.19 	0.041726 	4194 	0.041168
43.21 	0.034516 	4172 	0.033814
43.23 	0.038758 	4154 	0.038335
43.25 	0.037243 	4135 	0.036960
43.27 	0.037272 	4105 	0.036986
43.29 	0.043171 	4100 	0.042456
43.31 	0.039470 	4079 	0.039183
43.33 	0.043199 	4051 	0.042765
43.35 	0.038690 	4032 	0.038255
43.37 	0.047323 	4015 	0.046885
43.39 	0.033733 	4002 	0.033294
43.41 	0.039778 	3972 	0.038599
43.43 	0.043939 	3960 	0.043471
43.45 	0.038119 	3935 	0.037971
43.47 	0.040041 	3921 	0.039593
43.49 	0.042853 	3897 	0.042102
43.51 	0.032241 	3877 	0.032090
43.53 	0.036500 	3863 	0.036197
43.55 	0.041161 	2964 	0.040172
43.57 	0.046917 	2238 	0.045870
43.59 	0.044101 	1746 	0.042759
43.61 	0.035529 	1351 	0.035096
43.63 	0.030969 	1001 	0.030969
43.65 	0.037846 	687 	0.036993
43.67 	0.019920 	502 	0.019920
43.69 	0.027248 	367 	0.027248
43.71 	0.037657 	239 	0.035206
43.73 	0.016667 	120 	0.016667
43.75 	0.000000 	16 	0.000000