File: Example_Data/25SC_s1_0016.003.dat
#F C:\frames\spec\25SC_s1_0016.003
#C title =s:16 frm:3 25SC_s1
#C wavelength =0.15406

#S 1  fr_average C:\frames\spec\25SC_s1_0016.003 C:\win32app\speccom\mask.axs chi 0 180 0 360 0.02
#C 2 theta =0.000000 to 180 deg
#C   q   =0.000000 to 81.568 nm^-1
#C  chi  =0.000000 to 360 deg
#C collumns:
#C  1 position (2theta or chi in degrees)
#C  2 average intensity (sum of all counts in the region divided with number of pixels)
#C  3 Number of pixels in region)
#C  4 error (sum of sqrt(intensity) for all pixels divided by number)
#N 4
#L TTh  Int  N_pix  Err
32.99 	0.049180 	61 	0.049180
33.01 	0.061856 	873 	0.060514
33.03 	0.043853 	1391 	0.043011
33.05 	0.056915 	1757 	0.055915
33.07 	0.060488 	2050 	0.059059
33.09 	0.063059 	2347 	0.061562
33.11 	0.061264 	2579 	0.060810
33.13 	0.065521 	2793 	0.064053
33.15 	0.058353 	2999 	0.057571
33.17 	0.060294 	3201 	0.059562
33.19 	0.059246 	3342 	0.058370
33.21 	0.058498 	3436 	0.056793
33.23 	0.057621 	3523 	0.056596
33.25 	0.062016 	3612 	0.060718
33.27 	0.056198 	3630 	0.055230
33.29 	0.058662 	3648 	0.057538
33.31 	0.058470 	3660 	0.057670
33.33 	0.062398 	3686 	0.061286
33.35 	0.063617 	3694 	0.062824
33.37 	0.065967 	3714 	0.064705
33.39 	0.061142 	3729 	0.059414
33.41 	0.058289 	3740 	0.056697
33.43 	0.057166 	3761 	0.055764
33.45 	0.057249 	3773 	0.056783
33.47 	0.056082 	3798 	0.055003
33.49 	0.063271 	3809 	0.061887
33.51 	0.060550 	3815 	0.059015
33.53 	0.063785 	3841 	0.062260
33.55 	0.061150 	3843 	0.060083
33.57 	0.055971 	3877 	0.055518
33.59 	0.061856 	3880 	0.060497
33.61 	0.060629 	3909 	0.059131
33.63 	0.065068 	3919 	0.064320
33.65 	0.060290 	3931 	0.059843
33.67 	0.062974 	3954 	0.062085
33.69 	0.058184 	3953 	0.057146
33.71 	0.059623 	3975 	0.058296
33.73 	0.062937 	4004 	0.062498
33.75 	0.057014 	3999 	0.055696
33.77 	0.062609 	4025 	0.060838
33.79 	0.058401 	4041 	0.057387
33.81 	0.061417 	4038 	0.059821
33.83 	0.068889 	4050 	0.067732
33.85 	0.054647 	4099 	0.053504
33.87 	0.058137 	4111 	0.057709
33.89 	0.060908 	4121 	0.059913
33.91 	0.055194 	4149 	0.054324
33.93 	0.066249 	4151 	0.064556
33.95 	0.063860 	4181 	0.063020
33.97 	0.057518 	4190 	0.055840
33.99 	0.058571 	4200 	0.057456
34.01 	0.062901 	4213 	0.061232
34.03 	0.062441 	4244 	0.060785
34.05 	0.062559 	4252 	0.061594
34.07 	0.062324 	4268 	0.061089
34.09 	0.056696 	4286 	0.055740
34.11 	0.062529 	4302 	0.061440
34.13 	0.064995 	4308 	0.063613
34.15 	0.061187 	4331 	0.059834
34.17 	0.056782 	4350 	0.056108
34.19 	0.060981 	4362 	0.059885
34.21 	0.061771 	4371 	0.060699
34.23 	0.061006 	4393 	0.059806
34.25 	0.061081 	4404 	0.060283
34.27 	0.067164 	4422 	0.065707
34.29 	0.062683 	4435 	0.061627
34.31 	0.051593 	4458 	0.050804
34.33 	0.060613 	4471 	0.059434
34.35 	0.065343 	4484 	0.064037
34.37 	0.062347 	4491 	0.061434
34.39 	0.064194 	4502 	0.063153
34.41 	0.060760 	4526 	0.059983
34.43 	0.062128 	4539 	0.061483
34.45 	0.063506 	4535 	0.062214
34.47 	0.059669 	4592 	0.058648
34.49 	0.051555 	4597 	0.050791
34.51 	0.059053 	4606 	0.057782
34.53 	0.061598 	4643 	0.060463
34.55 	0.059444 	4643 	0.058687
34.57 	0.061803 	4660 	0.061300
34.59 	0.059679 	4675 	0.058551
34.61 	0.062593 	4697 	0.061595
34.63 	0.056051 	4710 	0.054807
34.65 	0.060580 	4721 	0.059464
34.67 	0.061169 	4741 	0.060551
34.69 	0.064788 	4754 	0.063925
34.71 	0.061897 	4766 	0.061036
34.73 	0.058283 	4787 	0.057284
34.75 	0.060524 	4808 	0.059915
34.77 	0.057908 	4818 	0.057057
34.79 	0.057629 	4824 	0.056293
34.81 	0.055315 	4845 	0.054468
34.83 	0.060263 	4862 	0.059179
34.85 	0.055453 	4869 	0.054490
34.87 	0.058751 	4868 	0.057788
34.89 	0.061041 	4882 	0.059721
34.91 	0.058378 	4882 	0.057538
34.93 	0.060216 	4899 	0.059619
34.95 	0.066053 	4890 	0.064596
34.97 	0.055284 	4902 	0.054089
34.99 	0.066776 	4897 	0.065221
35.01 	0.057688 	4923 	0.056736
35.03 	0.056646 	4943 	0.055579
35.05 	0.059026 	4947 	0.058315
35.07 	0.060324 	4940 	0.059612
35.09 	0.061377 	4953 	0.060194
35.11 	0.056398 	4947 	0.055569
35.13 	0.059903 	4958 	0.059076
35.15 	0.060361 	4937 	0.058917
35.17 	0.059038 	4946 	0.057597
35.19 	0.056050 	4942 	0.055695
35.21 	0.059858 	4945 	0.058674
35.23 	0.056421 	4945 	0.055947
35.25 	0.060287 	4943 	0.059458
35.27 	0.061035 	4948 	0.060206
35.29 	0.061072 	4945 	0.059887
35.31 	0.063653 	4933 	0.062446
35.33 	0.065143 	4943 	0.064076
35.35 	0.060704 	4942 	0.059993
35.37 	0.063576 	4939 	0.062034
35.39 	0.059656 	4945 	0.058472
35.41 	0.055217 	4926 	0.054504
35.43 	0.063856 	4933 	0.062787
35.45 	0.062184 	4937 	0.061333
35.47 	0.065707 	4931 	0.064638
35.49 	0.059470 	4910 	0.058397
35.51 	0.059886 	4926 	0.058935
35.53 	0.064660 	4949 	0.063594
35.55 	0.057230 	4945 	0.056993
35.57 	0.056355 	4933 	0.055761
35.59 	0.058443 	4945 	0.058087
35.61 	0.060502 	4942 	0.060028
35.63 	0.057860 	4943 	0.057149
35.65 	0.063094 	4945 	0.061791
35.67 	0.066775 	4942 	0.065589
35.69 	0.056814 	4946 	0.055392
35.71 	0.060563 	4937 	0.059851
35.73 	0.061386 	4936 	0.060436
35.75 	0.065910 	4931 	0.063613
35.77 	0.058372 	4951 	0.057426
35.79 	0.059813 	4932 	0.058725
35.81 	0.059396 	4933 	0.058545
35.83 	0.063081 	4946 	0.062015
35.85 	0.055319 	4935 	0.054370
35.87 	0.055860 	4923 	0.054908
35.89 	0.056546 	4934 	0.055715
35.91 	0.058250 	4927 	0.056586
35.93 	0.056424 	4927 	0.055710
35.95 	0.055318 	4917 	0.054127
35.97 	0.054357 	4912 	0.053283
35.99 	0.054869 	4939 	0.053782
36.01 	0.061866 	4930 	0.060440
36.03 	0.061097 	4943 	0.060030
36.05 	0.060263 	4945 	0.058841
36.07 	0.054262 	4939 	0.053550
36.09 	0.060324 	4940 	0.059020
36.11 	0.055792 	4929 	0.055079
36.13 	0.059490 	4942 	0.057792
36.15 	0.061956 	4939 	0.060276
36.17 	0.058071 	4925 	0.057120
36.19 	0.057287 	4940 	0.056220
36.21 	0.058227 	4929 	0.056801
36.23 	0.058561 	4935 	0.057968
36.25 	0.055050 	4941 	0.054812
36.27 	0.065178 	4925 	0.063731
36.29 	0.060231 	4931 	0.059875
36.31 	0.065138 	4928 	0.064306
36.33 	0.064058 	4933 	0.062752
36.35 	0.062690 	4929 	0.062096
36.37 	0.060938 	4923 	0.060581
36.39 	0.056493 	4921 	0.055302
36.41 	0.056373 	4896 	0.055535
36.43 	0.055195 	4928 	0.054600
36.45 	0.058215 	4930 	0.057502
36.47 	0.059157 	4936 	0.058188
36.49 	0.054634 	4942 	0.053923
36.51 	0.060815 	4933 	0.060083
36.53 	0.055027 	4943 	0.054435
36.55 	0.060483 	4927 	0.059175
36.57 	0.055330 	4934 	0.054499
36.59 	0.055882 	4939 	0.055170
36.61 	0.053944 	4931 	0.052875
36.63 	0.058812 	4931 	0.057624
36.65 	0.052920 	4932 	0.052326
36.67 	0.053955 	4930 	0.051916
36.69 	0.051329 	4929 	0.050497
36.71 	0.062589 	4921 	0.061399
36.73 	0.056041 	4925 	0.055327
36.75 	0.052387 	4944 	0.051794
36.77 	0.058752 	4919 	0.058156
36.79 	0.049787 	4921 	0.049172
36.81 	0.054923 	4916 	0.053969
36.83 	0.056562 	4915 	0.055608
36.85 	0.053695 	4898 	0.052739
36.87 	0.058050 	4944 	0.057102
36.89 	0.057974 	4916 	0.056663
36.91 	0.054442 	4941 	0.053850
36.93 	0.061663 	4930 	0.061069
36.95 	0.057571 	4933 	0.056978
36.97 	0.055736 	4934 	0.054667
36.99 	0.054914 	4935 	0.054083
37.01 	0.051287 	4933 	0.050575
37.03 	0.057880 	4924 	0.056214
37.05 	0.055612 	4927 	0.054661
37.07 	0.057953 	4935 	0.056153
37.09 	0.050528 	4928 	0.049458
37.11 	0.062006 	4935 	0.060463
37.13 	0.053209 	4924 	0.052614
37.15 	0.055001 	4909 	0.053808
37.17 	0.053101 	4934 	0.052032
37.19 	0.055431 	4925 	0.054480
37.21 	0.055522 	4917 	0.054807
37.23 	0.053680 	4918 	0.052489
37.25 	0.048870 	4911 	0.048035
37.27 	0.056191 	4894 	0.055593
37.29 	0.055781 	4930 	0.054949
37.31 	0.057345 	4935 	0.056633
37.33 	0.059468 	4927 	0.058636
37.35 	0.059133 	4938 	0.058303
37.37 	0.058250 	4927 	0.057775
37.39 	0.059420 	4931 	0.057757
37.41 	0.057392 	4931 	0.056798
37.43 	0.048256 	4932 	0.047425
37.45 	0.051990 	4924 	0.050920
37.47 	0.055184 	4929 	0.054213
37.49 	0.054845 	4923 	0.054131
37.51 	0.050679 	4933 	0.050085
37.53 	0.050417 	4919 	0.049940
37.55 	0.051927 	4930 	0.050858
37.57 	0.049137 	4925 	0.048542
37.59 	0.051475 	4915 	0.050998
37.61 	0.053027 	4922 	0.052194
37.63 	0.050417 	4919 	0.049464
37.65 	0.059984 	4918 	0.059150
37.67 	0.051794 	4904 	0.050600
37.69 	0.052062 	4898 	0.051464
37.71 	0.052343 	4929 	0.051987
37.73 	0.054778 	4929 	0.054065
37.75 	0.053644 	4940 	0.052932
37.77 	0.053659 	4920 	0.052825
37.79 	0.052535 	4930 	0.052179
37.81 	0.054125 	4933 	0.053769
37.83 	0.051220 	4920 	0.050148
37.85 	0.059122 	4922 	0.057813
37.87 	0.053250 	4939 	0.052419
37.89 	0.058477 	4925 	0.057764
37.91 	0.051116 	4930 	0.050284
37.93 	0.049197 	4919 	0.048602
37.95 	0.055273 	4921 	0.054916
37.97 	0.047474 	4929 	0.046999
37.99 	0.062296 	4912 	0.060965
38.01 	0.051542 	4928 	0.050948
38.03 	0.049705 	4909 	0.048153
38.05 	0.051777 	4925 	0.050706
38.07 	0.060909 	4909 	0.060312
38.09 	0.052891 	4878 	0.052530
38.11 	0.056940 	4935 	0.055872
38.13 	0.057120 	4937 	0.056052
38.15 	0.053680 	4918 	0.052251
38.17 	0.052130 	4930 	0.051298
38.19 	0.049493 	4930 	0.048780
38.21 	0.057282 	4923 	0.055934
38.23 	0.057716 	4938 	0.056629
38.25 	0.055522 	4917 	0.055403
38.27 	0.056187 	4930 	0.055236
38.29 	0.056661 	4924 	0.055472
38.31 	0.059468 	4927 	0.058517
38.33 	0.055037 	4924 	0.054680
38.35 	0.059862 	4928 	0.058317
38.37 	0.057677 	4924 	0.057082
38.39 	0.059483 	4909 	0.058767
38.41 	0.061954 	4923 	0.061240
38.43 	0.067535 	4916 	0.066939
38.45 	0.062424 	4918 	0.061114
38.47 	0.057061 	4907 	0.055987
38.49 	0.059873 	4877 	0.058672
38.51 	0.060827 	4932 	0.059758
38.53 	0.066545 	4929 	0.065594
38.55 	0.058752 	4936 	0.058515
38.57 	0.057079 	4923 	0.056227
38.59 	0.050366 	4924 	0.049295
38.61 	0.067058 	4936 	0.065615
38.63 	0.064988 	4924 	0.063560
38.65 	0.061610 	4918 	0.060757
38.67 	0.059348 	4937 	0.058043
38.69 	0.051402 	4922 	0.050688
38.71 	0.053818 	4924 	0.053461
38.73 	0.053680 	4918 	0.053085
38.75 	0.053176 	4927 	0.052701
38.77 	0.049563 	4923 	0.049325
38.79 	0.054317 	4934 	0.053130
38.81 	0.052117 	4912 	0.051759
38.83 	0.054889 	4919 	0.053698
38.85 	0.050896 	4912 	0.049584
38.87 	0.052739 	4911 	0.052262
38.89 	0.052890 	4897 	0.052052
38.91 	0.050581 	4903 	0.050223
38.93 	0.050425 	4938 	0.049595
38.95 	0.053070 	4918 	0.052356
38.97 	0.050902 	4931 	0.049714
38.99 	0.055297 	4937 	0.054110
39.01 	0.046970 	4918 	0.046375
39.03 	0.054925 	4934 	0.054094
39.05 	0.048325 	4925 	0.047849
39.07 	0.043461 	4924 	0.042390
39.09 	0.049563 	4923 	0.048730
39.11 	0.044413 	4931 	0.043938
39.13 	0.048345 	4923 	0.047631
39.15 	0.051679 	4915 	0.050825
39.17 	0.055499 	4937 	0.054431
39.19 	0.052471 	4917 	0.051637
39.21 	0.047658 	4910 	0.047061
39.23 	0.047716 	4925 	0.047240
39.25 	0.046729 	4922 	0.046253
39.27 	0.048473 	4910 	0.047995
39.29 	0.046113 	4901 	0.045635
39.31 	0.042793 	4884 	0.042193
39.33 	0.047860 	4931 	0.047266
39.35 	0.050051 	4935 	0.049813
39.37 	0.054778 	4929 	0.053946
39.39 	0.044228 	4929 	0.044109
39.41 	0.041574 	4931 	0.040980
39.43 	0.045814 	4933 	0.045220
39.45 	0.049137 	4925 	0.048166
39.47 	0.051595 	4923 	0.051476
39.49 	0.054531 	4933 	0.053106
39.51 	0.047929 	4924 	0.047096
39.53 	0.048751 	4923 	0.047799
39.55 	0.046148 	4919 	0.045195
39.57 	0.047841 	4933 	0.047366
39.59 	0.052117 	4912 	0.051282
39.61 	0.046516 	4923 	0.045921
39.63 	0.050589 	4922 	0.049756
39.65 	0.050548 	4926 	0.050191
39.67 	0.047425 	4913 	0.046591
39.69 	0.048007 	4916 	0.047530
39.71 	0.049847 	4895 	0.049607
39.73 	0.050122 	4908 	0.049645
39.75 	0.051136 	4928 	0.050780
39.77 	0.045795 	4935 	0.044608
39.79 	0.048924 	4926 	0.048329
39.81 	0.051147 	4927 	0.050433
39.83 	0.047629 	4934 	0.047253
39.85 	0.052567 	4927 	0.051973
39.87 	0.046701 	4925 	0.046225
39.89 	0.051885 	4934 	0.051054
39.91 	0.049370 	4922 	0.048418
39.93 	0.050841 	4937 	0.049891
39.95 	0.047813 	4915 	0.047217
39.97 	0.050325 	4928 	0.049493
39.99 	0.050892 	4932 	0.050061
40.01 	0.051037 	4918 	0.049846
40.03 	0.050325 	4928 	0.050087
40.05 	0.052878 	4917 	0.051905
40.07 	0.055454 	4923 	0.054145
40.09 	0.050854 	4916 	0.050139
40.11 	0.044752 	4916 	0.044275
40.13 	0.046160 	4896 	0.045682
40.15 	0.049054 	4913 	0.047861
40.17 	0.050122 	4928 	0.048795
40.19 	0.051329 	4929 	0.050378
40.21 	0.048632 	4935 	0.048276
40.23 	0.045418 	4932 	0.044705
40.25 	0.049187 	4920 	0.048354
40.27 	0.050435 	4937 	0.049961
40.29 	0.044246 	4927 	0.043889
40.31 	0.050820 	4939 	0.049990
40.33 	0.048459 	4932 	0.047865
40.35 	0.050010 	4919 	0.049057
40.37 	0.042199 	4929 	0.042080
40.39 	0.044818 	4931 	0.044581
40.41 	0.052183 	4925 	0.051945
40.43 	0.047135 	4922 	0.046659
40.45 	0.051895 	4933 	0.050945
40.47 	0.046564 	4918 	0.045849
40.49 	0.043646 	4926 	0.042932
40.51 	0.041853 	4922 	0.041496
40.53 	0.046379 	4916 	0.045903
40.55 	0.046659 	4908 	0.045942
40.57 	0.045194 	4890 	0.044356
40.59 	0.042131 	4937 	0.041775
40.61 	0.044174 	4935 	0.043818
40.63 	0.048073 	4930 	0.047360
40.65 	0.044764 	4937 	0.043933
40.67 	0.047445 	4932 	0.046970
40.69 	0.048207 	4937 	0.047258
40.71 	0.046837 	4932 	0.045768
40.73 	0.048924 	4926 	0.048092
40.75 	0.044210 	4931 	0.044210
40.77 	0.047783 	4939 	0.046834
40.79 	0.049959 	4924 	0.049583
40.81 	0.046347 	4941 	0.045398
40.83 	0.044643 	4928 	0.043930
40.85 	0.049553 	4924 	0.049196
40.87 	0.048904 	4928 	0.048191
40.89 	0.047658 	4931 	0.047301
40.91 	0.048548 	4923 	0.047953
40.93 	0.046413 	4934 	0.045819
40.95 	0.043151 	4913 	0.042316
40.97 	0.043258 	4924 	0.042663
40.99 	0.048944 	4924 	0.048587
41.01 	0.046824 	4912 	0.046466
41.03 	0.047910 	4905 	0.047552
41.05 	0.043963 	4936 	0.043350
41.07 	0.051927 	4930 	0.050976
41.09 	0.047176 	4939 	0.046938
41.11 	0.044174 	4935 	0.043818
41.13 	0.045381 	4936 	0.044787
41.15 	0.048371 	4941 	0.047778
41.17 	0.042156 	4934 	0.042038
41.19 	0.043408 	4930 	0.043170
41.21 	0.044967 	4937 	0.044373
41.23 	0.042721 	4939 	0.041772
41.25 	0.043787 	4933 	0.042956
41.27 	0.044616 	4931 	0.044141
41.29 	0.048498 	4928 	0.048380
41.31 	0.046625 	4933 	0.045794
41.33 	0.040105 	4937 	0.039631
41.35 	0.049615 	4938 	0.049259
41.37 	0.047319 	4924 	0.046486
41.39 	0.042165 	4933 	0.041690
41.41 	0.043646 	4926 	0.043051
41.43 	0.043822 	4929 	0.043466
41.45 	0.045177 	4914 	0.044581
41.47 	0.044661 	4926 	0.044423
41.49 	0.044767 	4892 	0.044288
41.51 	0.045142 	4940 	0.043936
41.53 	0.045307 	4944 	0.044478
41.55 	0.043566 	4935 	0.042973
41.57 	0.041894 	4941 	0.040827
41.59 	0.043787 	4933 	0.043549
41.61 	0.046235 	4953 	0.045643
41.63 	0.045970 	4938 	0.045377
41.65 	0.042199 	4929 	0.041367
41.67 	0.043117 	4940 	0.042643
41.69 	0.046291 	4947 	0.045935
41.71 	0.047629 	4934 	0.047154
41.73 	0.047204 	4936 	0.046373
41.75 	0.044025 	4929 	0.043074
41.77 	0.043311 	4941 	0.043193
41.79 	0.043083 	4944 	0.042490
41.81 	0.042950 	4936 	0.042456
41.83 	0.040787 	4928 	0.040550
41.85 	0.050618 	4939 	0.049906
41.87 	0.043566 	4935 	0.042617
41.89 	0.042773 	4933 	0.042417
41.91 	0.047204 	4936 	0.046967
41.93 	0.045620 	4932 	0.044908
41.95 	0.042993 	4931 	0.042281
41.97 	0.049044 	4914 	0.048448
41.99 	0.040571 	4905 	0.040093
42.01 	0.046540 	4942 	0.045710
42.03 	0.041101 	4939 	0.040508
42.05 	0.044023 	4952 	0.043431
42.07 	0.042131 	4937 	0.041419
42.09 	0.042037 	4948 	0.040972
42.11 	0.042063 	4945 	0.041589
42.13 	0.041860 	4945 	0.041624
42.15 	0.044552 	4938 	0.043959
42.17 	0.052054 	4918 	0.051577
42.19 	0.043399 	4908 	0.042682
42.21 	0.044277 	4901 	0.043918
42.23 	0.038839 	4892 	0.038480
42.25 	0.038454 	4889 	0.037974
42.27 	0.044522 	4874 	0.044161
42.29 	0.046062 	4863 	0.045219
42.31 	0.044078 	4855 	0.043354
42.33 	0.043235 	4834 	0.042508
42.35 	0.045473 	4838 	0.044868
42.37 	0.046998 	4830 	0.046513
42.39 	0.044338 	4804 	0.044216
42.41 	0.044963 	4804 	0.044597
42.43 	0.045701 	4792 	0.045457
42.45 	0.038526 	4776 	0.038158
42.47 	0.046800 	4765 	0.046308
42.49 	0.042392 	4765 	0.041901
42.51 	0.039005 	4743 	0.038387
42.53 	0.044416 	4728 	0.043797
42.55 	0.046941 	4708 	0.046319
42.57 	0.043340 	4730 	0.042969
42.59 	0.046521 	4729 	0.045530
42.61 	0.042268 	4708 	0.041895
42.63 	0.043958 	4709 	0.043585
42.65 	0.044824 	4685 	0.043949
42.67 	0.033305 	4684 	0.032930
42.69 	0.043860 	4674 	0.043609
42.71 	0.047609 	4663 	0.046855
42.73 	0.044397 	4640 	0.044018
42.75 	0.039636 	4617 	0.039129
42.77 	0.040652 	4600 	0.040143
42.79 	0.042340 	4582 	0.041700
42.81 	0.040991 	4562 	0.040477
42.83 	0.046076 	4536 	0.045430
42.85 	0.040636 	4528 	0.040507
42.87 	0.039342 	4499 	0.038821
42.89 	0.040625 	4480 	0.040494
42.91 	0.043986 	4456 	0.043065
42.93 	0.042285 	4446 	0.041626
42.95 	0.043705 	4416 	0.042998
42.97 	0.042945 	4401 	0.042545
42.99 	0.040365 	4385 	0.039697
43.01 	0.040798 	4363 	0.040261
43.03 	0.043619 	4333 	0.042808
43.05 	0.038150 	4325 	0.037473
43.07 	0.043994 	4296 	0.043449
43.09 	0.036423 	4283 	0.036423
43.11 	0.038778 	4255 	0.038227
43.13 	0.043191 	4237 	0.042638
43.15 	0.042796 	4206 	0.042100
43.17 	0.045226 	4179 	0.044525
43.19 	0.039580 	4194 	0.039161
43.21 	0.040508 	4172 	0.039806
43.23 	0.038036 	4154 	0.037754
43.25 	0.036759 	4135 	0.036334
43.27 	0.037272 	4105 	0.036986
43.29 	0.042683 	4100 	0.041969
43.31 	0.039961 	4079 	0.039386
43.33 	0.038015 	4051 	0.037581
43.35 	0.041667 	4032 	0.041667
43.37 	0.041345 	4015 	0.040615
43.39 	0.034983 	4002 	0.034690
43.41 	0.042548 	3972 	0.042105
43.43 	0.039394 	3960 	0.039246
43.45 	0.041423 	3935 	0.040679
43.47 	0.040296 	3921 	0.039997
43.49 	0.045933 	3897 	0.044881
43.51 	0.044364 	3877 	0.043911
43.53 	0.043231 	3863 	0.043079
43.55 	0.037112 	2964 	0.036321
43.57 	0.043342 	2238 	0.042819
43.59 	0.034364 	1746 	0.034364
43.61 	0.044412 	1351 	0.043978
43.63 	0.044955 	1001 	0.044955
43.65 	0.043668 	687 	0.043668
43.67 	0.031873 	502 	0.031873
43.69 	0.038147 	367 	0.036551
43.71 	0.050209 	239 	0.050209
43.73 	0.016667 	120 	0.016667
43.75 	0.000000 	16 	0.000000