File: Example_Data/25SC_s1_0040.002.dat
#F C:\frames\spec\25SC_s1_0040.002
#C title =s:40 frm:2 25SC_s1
#C wavelength =0.15406

#S 1  fr_average C:\frames\spec\25SC_s1_0040.002 C:\win32app\speccom\mask.axs chi 0 180 0 360 0.02
#C 2 theta =0.000000 to 180 deg
#C   q   =0.000000 to 81.568 nm^-1
#C  chi  =0.000000 to 360 deg
#C collumns:
#C  1 position (2theta or chi in degrees)
#C  2 average intensity (sum of all counts in the region divided with number of pixels)
#C  3 Number of pixels in region)
#C  4 error (sum of sqrt(intensity) for all pixels divided by number)
#N 4
#L TTh  Int  N_pix  Err
32.99 	0.081967 	61 	0.081967
33.01 	0.050401 	873 	0.049730
33.03 	0.047448 	1391 	0.047027
33.05 	0.051793 	1757 	0.050126
33.07 	0.060000 	2050 	0.059429
33.09 	0.051555 	2347 	0.050806
33.11 	0.055448 	2579 	0.055448
33.13 	0.059792 	2793 	0.058709
33.15 	0.062688 	2999 	0.062102
33.17 	0.062480 	3201 	0.061565
33.19 	0.065530 	3342 	0.063952
33.21 	0.060244 	3436 	0.059364
33.23 	0.053080 	3523 	0.051916
33.25 	0.060631 	3612 	0.059496
33.27 	0.060331 	3630 	0.059362
33.29 	0.059485 	3648 	0.057879
33.31 	0.049180 	3660 	0.049020
33.33 	0.056430 	3686 	0.055635
33.35 	0.061180 	3694 	0.060387
33.37 	0.056274 	3714 	0.055169
33.39 	0.061142 	3729 	0.059729
33.41 	0.058021 	3740 	0.057238
33.43 	0.060090 	3761 	0.059000
33.45 	0.057514 	3773 	0.057178
33.47 	0.054239 	3798 	0.053931
33.49 	0.053295 	3809 	0.052372
33.51 	0.059502 	3815 	0.058248
33.53 	0.059360 	3841 	0.058444
33.55 	0.053864 	3843 	0.052772
33.57 	0.063451 	3877 	0.061915
33.59 	0.054381 	3880 	0.053325
33.61 	0.059094 	3909 	0.058345
33.63 	0.052054 	3919 	0.050709
33.65 	0.050369 	3931 	0.049326
33.67 	0.062721 	3954 	0.061512
33.69 	0.054895 	3953 	0.054747
33.71 	0.052579 	3975 	0.051842
33.73 	0.053197 	4004 	0.052173
33.75 	0.054264 	3999 	0.052652
33.77 	0.062360 	4025 	0.061341
33.79 	0.058401 	4041 	0.057363
33.81 	0.052254 	4038 	0.051528
33.83 	0.056543 	4050 	0.055675
33.85 	0.059039 	4099 	0.057896
33.87 	0.061542 	4111 	0.060117
33.89 	0.061150 	4121 	0.060582
33.91 	0.054471 	4149 	0.053483
33.93 	0.055167 	4151 	0.054603
33.95 	0.061229 	4181 	0.058988
33.97 	0.060859 	4190 	0.060300
33.99 	0.057619 	4200 	0.056503
34.01 	0.060527 	4213 	0.060110
34.03 	0.051367 	4244 	0.050677
34.05 	0.060207 	4252 	0.059380
34.07 	0.055295 	4268 	0.054197
34.09 	0.055296 	4286 	0.054886
34.11 	0.057880 	4302 	0.057199
34.13 	0.055014 	4308 	0.054470
34.15 	0.055645 	4331 	0.054563
34.17 	0.059310 	4350 	0.058772
34.19 	0.057313 	4362 	0.056910
34.21 	0.062457 	4371 	0.061229
34.23 	0.061689 	4393 	0.061022
34.25 	0.056767 	4404 	0.055969
34.27 	0.060606 	4422 	0.059679
34.29 	0.052988 	4435 	0.052591
34.31 	0.056079 	4458 	0.055028
34.33 	0.053232 	4471 	0.052839
34.35 	0.058876 	4484 	0.057700
34.37 	0.059452 	4491 	0.058670
34.39 	0.056641 	4502 	0.055709
34.41 	0.053469 	4526 	0.052951
34.43 	0.055078 	4539 	0.053766
34.45 	0.053142 	4535 	0.052755
34.47 	0.053136 	4592 	0.052370
34.49 	0.056994 	4597 	0.055847
34.51 	0.061007 	4606 	0.060244
34.53 	0.048675 	4643 	0.048423
34.55 	0.055352 	4643 	0.054217
34.57 	0.057511 	4660 	0.056379
34.59 	0.057112 	4675 	0.055985
34.61 	0.048967 	4697 	0.048344
34.63 	0.052229 	4710 	0.050468
34.65 	0.059521 	4721 	0.058529
34.67 	0.046404 	4741 	0.045518
34.69 	0.057215 	4754 	0.056476
34.71 	0.053504 	4766 	0.053012
34.73 	0.059327 	4787 	0.057614
34.75 	0.055740 	4808 	0.055009
34.77 	0.053964 	4818 	0.053113
34.79 	0.057007 	4824 	0.056035
34.81 	0.049948 	4845 	0.049586
34.83 	0.059235 	4862 	0.058151
34.85 	0.057301 	4869 	0.055858
34.87 	0.058546 	4868 	0.057342
34.89 	0.051618 	4882 	0.050639
34.91 	0.054486 	4882 	0.053646
34.93 	0.059400 	4899 	0.058324
34.95 	0.058691 	4890 	0.057373
34.97 	0.055692 	4902 	0.054736
34.99 	0.051664 	4897 	0.050707
35.01 	0.052204 	4923 	0.051232
35.03 	0.060894 	4943 	0.060065
35.05 	0.060845 	4947 	0.059424
35.07 	0.057490 	4940 	0.055948
35.09 	0.063598 	4953 	0.062770
35.11 	0.055185 	4947 	0.054474
35.13 	0.058088 	4958 	0.056769
35.15 	0.054689 	4937 	0.053621
35.17 	0.056814 	4946 	0.055629
35.19 	0.051194 	4942 	0.050127
35.21 	0.057027 	4945 	0.055843
35.23 	0.057027 	4945 	0.056435
35.25 	0.058062 	4943 	0.057351
35.27 	0.063864 	4948 	0.062325
35.29 	0.055005 	4945 	0.054057
35.31 	0.056558 	4933 	0.055608
35.33 	0.055837 	4943 	0.055363
35.35 	0.050384 	4942 	0.048962
35.37 	0.055882 	4939 	0.054558
35.39 	0.056218 	4945 	0.055251
35.41 	0.053796 	4926 	0.052845
35.43 	0.053517 	4933 	0.052805
35.45 	0.055702 	4937 	0.054990
35.47 	0.056378 	4931 	0.055071
35.49 	0.057230 	4910 	0.056256
35.51 	0.051360 	4926 	0.050766
35.53 	0.051526 	4949 	0.050815
35.55 	0.057027 	4945 	0.056435
35.57 	0.059801 	4933 	0.058594
35.59 	0.057634 	4945 	0.056568
35.61 	0.054431 	4942 	0.053246
35.63 	0.053409 	4943 	0.052441
35.65 	0.055005 	4945 	0.054156
35.67 	0.052813 	4942 	0.052220
35.69 	0.051961 	4946 	0.050895
35.71 	0.056512 	4937 	0.055919
35.73 	0.058752 	4936 	0.057684
35.75 	0.059420 	4931 	0.058588
35.77 	0.055746 	4951 	0.054800
35.79 	0.053933 	4932 	0.053102
35.81 	0.052301 	4933 	0.051470
35.83 	0.056409 	4946 	0.055462
35.85 	0.057345 	4935 	0.056752
35.87 	0.049766 	4923 	0.048795
35.89 	0.052493 	4934 	0.051899
35.91 	0.051959 	4927 	0.050889
35.93 	0.055206 	4927 	0.054730
35.95 	0.056742 	4917 	0.055431
35.97 	0.056596 	4912 	0.055761
35.99 	0.056287 	4939 	0.055437
36.01 	0.050710 	4930 	0.050472
36.03 	0.055837 	4943 	0.054119
36.05 	0.052983 	4945 	0.052154
36.07 	0.058716 	4939 	0.057886
36.09 	0.055870 	4940 	0.055159
36.11 	0.053561 	4929 	0.052966
36.13 	0.055645 	4942 	0.055171
36.15 	0.057906 	4939 	0.056958
36.17 	0.055025 	4925 	0.054431
36.19 	0.053036 	4940 	0.052088
36.21 	0.055792 	4929 	0.055060
36.23 	0.057345 	4935 	0.056633
36.25 	0.047966 	4941 	0.047373
36.27 	0.063350 	4925 	0.062874
36.29 	0.055364 	4931 	0.054651
36.31 	0.054586 	4928 	0.054111
36.33 	0.056355 	4933 	0.055880
36.35 	0.054372 	4929 	0.053302
36.37 	0.058501 	4923 	0.057073
36.39 	0.054664 	4921 	0.053949
36.41 	0.055556 	4896 	0.054818
36.43 	0.056615 	4928 	0.055545
36.45 	0.057809 	4930 	0.056364
36.47 	0.055511 	4936 	0.054917
36.49 	0.061918 	4942 	0.061444
36.51 	0.049868 	4933 	0.049512
36.53 	0.059478 	4943 	0.058530
36.55 	0.050335 	4927 	0.049740
36.57 	0.051277 	4934 	0.050802
36.59 	0.050213 	4939 	0.049501
36.61 	0.053742 	4931 	0.053504
36.63 	0.058203 	4931 	0.056778
36.65 	0.057178 	4932 	0.056327
36.67 	0.055375 	4930 	0.054544
36.69 	0.048083 	4929 	0.047489
36.71 	0.048771 	4921 	0.047342
36.73 	0.051574 	4925 	0.050741
36.75 	0.050769 	4944 	0.050413
36.77 	0.053873 	4919 	0.053396
36.79 	0.051819 	4921 	0.050747
36.81 	0.052075 	4916 	0.051717
36.83 	0.045371 	4915 	0.044656
36.85 	0.050633 	4898 	0.049437
36.87 	0.052791 	4944 	0.051449
36.89 	0.054516 	4916 	0.053424
36.91 	0.049787 	4941 	0.048958
36.93 	0.051927 	4930 	0.050976
36.95 	0.054733 	4933 	0.053783
36.97 	0.053912 	4934 	0.053318
36.99 	0.056940 	4935 	0.055872
37.01 	0.054328 	4933 	0.053497
37.03 	0.053412 	4924 	0.052103
37.05 	0.049523 	4927 	0.049047
37.07 	0.054509 	4935 	0.053559
37.09 	0.047890 	4928 	0.047176
37.11 	0.053901 	4935 	0.053288
37.13 	0.061332 	4924 	0.059786
37.15 	0.049094 	4909 	0.048974
37.17 	0.051277 	4934 	0.049951
37.19 	0.054213 	4925 	0.053361
37.21 	0.052471 	4917 	0.051161
37.23 	0.049207 	4918 	0.048969
37.25 	0.054164 	4911 	0.053071
37.27 	0.051696 	4894 	0.050619
37.29 	0.047667 	4930 	0.047311
37.31 	0.049443 	4935 	0.048493
37.33 	0.047696 	4927 	0.046726
37.35 	0.055488 	4938 	0.054420
37.37 	0.047290 	4927 	0.046577
37.39 	0.054147 	4931 	0.052959
37.41 	0.056581 	4931 	0.056106
37.43 	0.051095 	4932 	0.050382
37.45 	0.049350 	4924 	0.048498
37.47 	0.045242 	4929 	0.044767
37.49 	0.048345 	4923 	0.047988
37.51 	0.051490 	4933 	0.051134
37.53 	0.056922 	4919 	0.056208
37.55 	0.054767 	4930 	0.054291
37.57 	0.054213 	4925 	0.053856
37.59 	0.053510 	4915 	0.052914
37.61 	0.052418 	4922 	0.051704
37.63 	0.048587 	4919 	0.048091
37.65 	0.058357 	4918 	0.057166
37.67 	0.050775 	4904 	0.049700
37.69 	0.054920 	4898 	0.053724
37.71 	0.049909 	4929 	0.048483
37.73 	0.052952 	4929 	0.051763
37.75 	0.049393 	4940 	0.048918
37.77 	0.051220 	4920 	0.050486
37.79 	0.059635 	4930 	0.058922
37.81 	0.053720 	4933 	0.053007
37.83 	0.050000 	4920 	0.049048
37.85 	0.053637 	4922 	0.052923
37.87 	0.053452 	4939 	0.052147
37.89 	0.049340 	4925 	0.048607
37.91 	0.051318 	4930 	0.050724
37.93 	0.051027 	4919 	0.050550
37.95 	0.053648 	4921 	0.053052
37.97 	0.047068 	4929 	0.046474
37.99 	0.051710 	4912 	0.051352
38.01 	0.053369 	4928 	0.052655
38.03 	0.048686 	4909 	0.047731
38.05 	0.054213 	4925 	0.052786
38.07 	0.058260 	4909 	0.057067
38.09 	0.051046 	4878 	0.049725
38.11 	0.048227 	4935 	0.047277
38.13 	0.048815 	4937 	0.048103
38.15 	0.054900 	4918 	0.054067
38.17 	0.051724 	4930 	0.051130
38.19 	0.055984 	4930 	0.055033
38.21 	0.052204 	4923 	0.051609
38.23 	0.056096 	4938 	0.055028
38.25 	0.056335 	4917 	0.055620
38.27 	0.055375 	4930 	0.054662
38.29 	0.056255 	4924 	0.055065
38.31 	0.058656 	4927 	0.057586
38.33 	0.056864 	4924 	0.055913
38.35 	0.058442 	4928 	0.056877
38.37 	0.056052 	4924 	0.055081
38.39 	0.061520 	4909 	0.060207
38.41 	0.062563 	4923 	0.061612
38.43 	0.060212 	4916 	0.059258
38.45 	0.062830 	4918 	0.061262
38.47 	0.066436 	4907 	0.065600
38.49 	0.063974 	4877 	0.062052
38.51 	0.058394 	4932 	0.057800
38.53 	0.066139 	4929 	0.064119
38.55 	0.065438 	4936 	0.064963
38.57 	0.057079 	4923 	0.056008
38.59 	0.059301 	4924 	0.057874
38.61 	0.062804 	4936 	0.061242
38.63 	0.057067 	4924 	0.056354
38.65 	0.051850 	4918 	0.051136
38.67 	0.053879 	4937 	0.053029
38.69 	0.053840 	4922 	0.053364
38.71 	0.055443 	4924 	0.054967
38.73 	0.053884 	4918 	0.052454
38.75 	0.048914 	4927 	0.048201
38.77 	0.053016 	4923 	0.051946
38.79 	0.049047 	4934 	0.048197
38.81 	0.048249 	4912 	0.047514
38.83 	0.051840 	4919 	0.050768
38.85 	0.051303 	4912 	0.050587
38.87 	0.046630 	4911 	0.045437
38.89 	0.044109 	4897 	0.043271
38.91 	0.047114 	4903 	0.046517
38.93 	0.044350 	4938 	0.043638
38.95 	0.052257 	4918 	0.051542
38.97 	0.048063 	4931 	0.047350
38.99 	0.043549 	4937 	0.043074
39.01 	0.041887 	4918 	0.040815
39.03 	0.043778 	4934 	0.043303
39.05 	0.047716 	4925 	0.046864
39.07 	0.046507 	4924 	0.046150
39.09 	0.043266 	4923 	0.042909
39.11 	0.047860 	4931 	0.047148
39.13 	0.044688 	4923 	0.044569
39.15 	0.042726 	4915 	0.042130
39.17 	0.049828 	4937 	0.049235
39.19 	0.043319 	4917 	0.042843
39.21 	0.041955 	4910 	0.041836
39.23 	0.047310 	4925 	0.046596
39.25 	0.048354 	4922 	0.047640
39.27 	0.050713 	4910 	0.049619
39.29 	0.044277 	4901 	0.043799
39.31 	0.044840 	4884 	0.044121
39.33 	0.044210 	4931 	0.043735
39.35 	0.047214 	4935 	0.046502
39.37 	0.044025 	4929 	0.043550
39.39 	0.045040 	4929 	0.044564
39.41 	0.045021 	4931 	0.044309
39.43 	0.046422 	4933 	0.045571
39.45 	0.040203 	4925 	0.039727
39.47 	0.046719 	4923 	0.045887
39.49 	0.048044 	4933 	0.047450
39.51 	0.049350 	4924 	0.048636
39.53 	0.041641 	4923 	0.041046
39.55 	0.041065 	4919 	0.040589
39.57 	0.043179 	4933 	0.042585
39.59 	0.044585 	4912 	0.043988
39.61 	0.045704 	4923 	0.045109
39.63 	0.043681 	4922 	0.043443
39.65 	0.044052 	4926 	0.043695
39.67 	0.047018 	4913 	0.046422
39.69 	0.044345 	4916 	0.043849
39.71 	0.043309 	4895 	0.042711
39.73 	0.048696 	4908 	0.047741
39.75 	0.048498 	4928 	0.048023
39.77 	0.047214 	4935 	0.046620
39.79 	0.044661 	4926 	0.044185
39.81 	0.042825 	4927 	0.042350
39.83 	0.043575 	4934 	0.043100
39.85 	0.050741 	4927 	0.049671
39.87 	0.049949 	4925 	0.049236
39.89 	0.043575 	4934 	0.043338
39.91 	0.050792 	4922 	0.050197
39.93 	0.042333 	4937 	0.041977
39.95 	0.040285 	4915 	0.040046
39.97 	0.043425 	4928 	0.042950
39.99 	0.038929 	4932 	0.038098
40.01 	0.042904 	4918 	0.042189
40.03 	0.045860 	4928 	0.045623
40.05 	0.042709 	4917 	0.042352
40.07 	0.043876 	4923 	0.043519
40.09 	0.044142 	4916 	0.043427
40.11 	0.044142 	4916 	0.044022
40.13 	0.044118 	4896 	0.043759
40.15 	0.047832 	4913 	0.047475
40.17 	0.045455 	4928 	0.045098
40.19 	0.045851 	4929 	0.045613
40.21 	0.044377 	4935 	0.043902
40.23 	0.041363 	4932 	0.040868
40.25 	0.042480 	4920 	0.041884
40.27 	0.043549 	4937 	0.043193
40.29 	0.040593 	4927 	0.040474
40.31 	0.041304 	4939 	0.040829
40.33 	0.039132 	4932 	0.038895
40.35 	0.046961 	4919 	0.046365
40.37 	0.046257 	4929 	0.046019
40.39 	0.042182 	4931 	0.041707
40.41 	0.046904 	4925 	0.046071
40.43 	0.046932 	4922 	0.045742
40.45 	0.038922 	4933 	0.038090
40.47 	0.036397 	4918 	0.035920
40.49 	0.040601 	4926 	0.040363
40.51 	0.043478 	4922 	0.042864
40.53 	0.045362 	4916 	0.044885
40.55 	0.041769 	4908 	0.040933
40.57 	0.043354 	4890 	0.042994
40.59 	0.042333 	4937 	0.041266
40.61 	0.037285 	4935 	0.036691
40.63 	0.035497 	4930 	0.035259
40.65 	0.038687 	4937 	0.038450
40.67 	0.043998 	4932 	0.043761
40.69 	0.039700 	4937 	0.038988
40.71 	0.040146 	4932 	0.040027
40.73 	0.041007 	4926 	0.040293
40.75 	0.046441 	4931 	0.046084
40.77 	0.038672 	4939 	0.038197
40.79 	0.044882 	4924 	0.044406
40.81 	0.042097 	4941 	0.041385
40.83 	0.045049 	4928 	0.044573
40.85 	0.038993 	4924 	0.038517
40.87 	0.042817 	4928 	0.042341
40.89 	0.045832 	4931 	0.045239
40.91 	0.037172 	4923 	0.036459
40.93 	0.041143 	4934 	0.040668
40.95 	0.040098 	4913 	0.039382
40.97 	0.043461 	4924 	0.043104
40.99 	0.044273 	4924 	0.043916
41.01 	0.043363 	4912 	0.042290
41.03 	0.046687 	4905 	0.045612
41.05 	0.040721 	4936 	0.040603
41.07 	0.045030 	4930 	0.044318
41.09 	0.037862 	4939 	0.037506
41.11 	0.043972 	4935 	0.043259
41.13 	0.043355 	4936 	0.043118
41.15 	0.042906 	4941 	0.042551
41.17 	0.041346 	4934 	0.041227
41.19 	0.040568 	4930 	0.040330
41.21 	0.039498 	4937 	0.039023
41.23 	0.048390 	4939 	0.047659
41.25 	0.041760 	4933 	0.041166
41.27 	0.036301 	4931 	0.035687
41.29 	0.040990 	4928 	0.040515
41.31 	0.038111 	4933 	0.037873
41.33 	0.038080 	4937 	0.037467
41.35 	0.040907 	4938 	0.040195
41.37 	0.041836 	4924 	0.041241
41.39 	0.041760 	4933 	0.041166
41.41 	0.040601 	4926 	0.040125
41.43 	0.043619 	4929 	0.043382
41.45 	0.040293 	4914 	0.039935
41.47 	0.033293 	4926 	0.032698
41.49 	0.033729 	4892 	0.032721
41.51 	0.044130 	4940 	0.043537
41.53 	0.038026 	4944 	0.037177
41.55 	0.038906 	4935 	0.038431
41.57 	0.043311 	4941 	0.042363
41.59 	0.035881 	4933 	0.035525
41.61 	0.038159 	4953 	0.037804
41.63 	0.040300 	4938 	0.040062
41.65 	0.038750 	4929 	0.037681
41.67 	0.040486 	4940 	0.040012
41.69 	0.042046 	4947 	0.040980
41.71 	0.036076 	4934 	0.035720
41.73 	0.041734 	4936 	0.041378
41.75 	0.043822 	4929 	0.042990
41.77 	0.042299 	4941 	0.041943
41.79 	0.034790 	4944 	0.034671
41.81 	0.036467 	4936 	0.035755
41.83 	0.034700 	4928 	0.034343
41.85 	0.040696 	4939 	0.040341
41.87 	0.040932 	4935 	0.040813
41.89 	0.037705 	4933 	0.037349
41.91 	0.040924 	4936 	0.040212
41.93 	0.035888 	4932 	0.035057
41.95 	0.041777 	4931 	0.041539
41.97 	0.038462 	4914 	0.038342
41.99 	0.040163 	4905 	0.040044
42.01 	0.037839 	4942 	0.037602
42.03 	0.037255 	4939 	0.036661
42.05 	0.042811 	4952 	0.042101
42.07 	0.037877 	4937 	0.037284
42.09 	0.039208 	4948 	0.038971
42.11 	0.043074 	4945 	0.042245
42.13 	0.041456 	4945 	0.041101
42.15 	0.037465 	4938 	0.036871
42.17 	0.041887 	4918 	0.041530
42.19 	0.037286 	4908 	0.037167
42.21 	0.030810 	4901 	0.030691
42.23 	0.038226 	4892 	0.037866
42.25 	0.041113 	4889 	0.040514
42.27 	0.038777 	4874 	0.038417
42.29 	0.037014 	4863 	0.036653
42.31 	0.035015 	4855 	0.034533
42.33 	0.039305 	4834 	0.039305
42.35 	0.038446 	4838 	0.038203
42.37 	0.034369 	4830 	0.034126
42.39 	0.042256 	4804 	0.041403
42.41 	0.035179 	4804 	0.034935
42.43 	0.032554 	4792 	0.032432
42.45 	0.039782 	4776 	0.039414
42.47 	0.043652 	4765 	0.043160
42.49 	0.038195 	4765 	0.037580
42.51 	0.040692 	4743 	0.040198
42.53 	0.037014 	4728 	0.036518
42.55 	0.031436 	4708 	0.031063
42.57 	0.039323 	4730 	0.039200
42.59 	0.037006 	4729 	0.036634
42.61 	0.034197 	4708 	0.033824
42.63 	0.036101 	4709 	0.035479
42.65 	0.033725 	4685 	0.033600
42.67 	0.037148 	4684 	0.036898
42.69 	0.035516 	4674 	0.035390
42.71 	0.039888 	4663 	0.039260
42.73 	0.044397 	4640 	0.044144
42.75 	0.038120 	4617 	0.037486
42.77 	0.041304 	4600 	0.040413
42.79 	0.039939 	4582 	0.039172
42.81 	0.037703 	4562 	0.037318
42.83 	0.036817 	4536 	0.036429
42.85 	0.039090 	4528 	0.038443
42.87 	0.038453 	4499 	0.037672
42.89 	0.031696 	4480 	0.031173
42.91 	0.037478 	4456 	0.037346
42.93 	0.034413 	4446 	0.033622
42.95 	0.036232 	4416 	0.035701
42.97 	0.033629 	4401 	0.033096
42.99 	0.035120 	4385 	0.034853
43.01 	0.041027 	4363 	0.040468
43.03 	0.036003 	4333 	0.036003
43.05 	0.037457 	4325 	0.037050
43.07 	0.038175 	4296 	0.038039
43.09 	0.032687 	4283 	0.032414
43.11 	0.044183 	4255 	0.043357
43.13 	0.038707 	4237 	0.038292
43.15 	0.037565 	4206 	0.037148
43.17 	0.039005 	4179 	0.038584
43.19 	0.036481 	4194 	0.035922
43.21 	0.038351 	4172 	0.038070
43.23 	0.040202 	4154 	0.039779
43.25 	0.039178 	4135 	0.038894
43.27 	0.044580 	4105 	0.043866
43.29 	0.037317 	4100 	0.036603
43.31 	0.039961 	4079 	0.039674
43.33 	0.036040 	4051 	0.035607
43.35 	0.042659 	4032 	0.041327
43.37 	0.032628 	4015 	0.032044
43.39 	0.033733 	4002 	0.033148
43.41 	0.036757 	3972 	0.036020
43.43 	0.035606 	3960 	0.035458
43.45 	0.035832 	3935 	0.035535
43.47 	0.036215 	3921 	0.036215
43.49 	0.042340 	3897 	0.042190
43.51 	0.030436 	3877 	0.030285
43.53 	0.037018 	3863 	0.036866
43.55 	0.034750 	2964 	0.034157
43.57 	0.032618 	2238 	0.031833
43.59 	0.049255 	1746 	0.048920
43.61 	0.033309 	1351 	0.032875
43.63 	0.037962 	1001 	0.036792
43.65 	0.053857 	687 	0.053005
43.67 	0.041833 	502 	0.041833
43.69 	0.035422 	367 	0.035422
43.71 	0.025105 	239 	0.025105
43.73 	0.058333 	120 	0.058333
43.75 	0.062500 	16 	0.062500