File: Example_Data/25SC_s1_0003.001.dat
#F C:\frames\spec\25SC_s1_0003.001
#C title =s:3 frm:1 25SC_s1
#C wavelength =0.15406

#S 1  fr_average C:\frames\spec\25SC_s1_0003.001 C:\win32app\speccom\mask.axs chi 0 180 0 360 0.02
#C 2 theta =0.000000 to 180 deg
#C   q   =0.000000 to 81.568 nm^-1
#C  chi  =0.000000 to 360 deg
#C collumns:
#C  1 position (2theta or chi in degrees)
#C  2 average intensity (sum of all counts in the region divided with number of pixels)
#C  3 Number of pixels in region)
#C  4 error (sum of sqrt(intensity) for all pixels divided by number)
#N 4
#L TTh  Int  N_pix  Err
32.99 	0.032787 	61 	0.032787
33.01 	0.064147 	873 	0.063476
33.03 	0.058231 	1391 	0.057389
33.05 	0.058623 	1757 	0.056622
33.07 	0.059024 	2050 	0.057310
33.09 	0.060077 	2347 	0.058579
33.11 	0.060876 	2579 	0.059968
33.13 	0.060150 	2793 	0.059311
33.15 	0.058019 	2999 	0.057433
33.17 	0.060606 	3201 	0.059508
33.19 	0.059545 	3342 	0.058669
33.21 	0.060827 	3436 	0.059974
33.23 	0.053647 	3523 	0.052982
33.25 	0.058693 	3612 	0.057071
33.27 	0.057025 	3630 	0.056379
33.29 	0.057292 	3648 	0.056810
33.31 	0.056284 	3660 	0.055804
33.33 	0.062398 	3686 	0.060809
33.35 	0.054954 	3694 	0.054161
33.37 	0.053043 	3714 	0.052096
33.39 	0.057388 	3729 	0.056288
33.41 	0.062834 	3740 	0.062208
33.43 	0.059293 	3761 	0.057735
33.45 	0.055659 	3773 	0.054572
33.47 	0.056872 	3798 	0.056409
33.49 	0.057495 	3809 	0.056880
33.51 	0.058453 	3815 	0.057353
33.53 	0.060141 	3841 	0.059683
33.55 	0.068176 	3843 	0.066652
33.57 	0.055971 	3877 	0.055216
33.59 	0.056443 	3880 	0.056292
33.61 	0.055769 	3909 	0.054870
33.63 	0.055882 	3919 	0.055284
33.65 	0.055457 	3931 	0.054712
33.67 	0.063480 	3954 	0.062591
33.69 	0.057678 	3953 	0.057085
33.71 	0.059371 	3975 	0.058634
33.73 	0.061688 	4004 	0.061542
33.75 	0.053013 	3999 	0.052867
33.77 	0.061863 	4025 	0.061136
33.79 	0.061866 	4041 	0.061431
33.81 	0.059931 	4038 	0.058915
33.83 	0.066173 	4050 	0.064148
33.85 	0.056111 	4099 	0.054944
33.87 	0.057893 	4111 	0.057039
33.89 	0.053385 	4121 	0.052367
33.91 	0.064112 	4149 	0.063124
33.93 	0.058781 	4151 	0.056946
33.95 	0.055489 	4181 	0.054345
33.97 	0.059427 	4190 	0.058169
33.99 	0.058571 	4200 	0.058153
34.01 	0.053406 	4213 	0.052711
34.03 	0.059849 	4244 	0.058331
34.05 	0.059972 	4252 	0.059283
34.07 	0.062324 	4268 	0.061501
34.09 	0.064862 	4286 	0.063632
34.11 	0.055091 	4302 	0.053570
34.13 	0.059424 	4308 	0.057929
34.15 	0.055645 	4331 	0.054834
34.17 	0.055402 	4350 	0.054729
34.19 	0.053416 	4362 	0.052476
34.21 	0.059941 	4371 	0.058734
34.23 	0.055771 	4393 	0.054704
34.25 	0.060173 	4404 	0.059774
34.27 	0.056988 	4422 	0.055796
34.29 	0.064262 	4435 	0.063073
34.31 	0.051144 	4458 	0.050356
34.33 	0.051890 	4471 	0.051104
34.35 	0.055754 	4484 	0.054709
34.37 	0.059452 	4491 	0.058017
34.39 	0.058196 	4502 	0.057155
34.41 	0.055899 	4526 	0.054605
34.43 	0.055519 	4539 	0.054615
34.45 	0.049394 	4535 	0.048360
34.47 	0.052700 	4592 	0.051680
34.49 	0.058299 	4597 	0.057152
34.51 	0.055145 	4606 	0.053874
34.53 	0.058152 	4643 	0.057269
34.55 	0.054275 	4643 	0.054149
34.57 	0.060730 	4660 	0.060101
34.59 	0.056471 	4675 	0.055468
34.61 	0.054716 	4697 	0.053593
34.63 	0.058599 	4710 	0.057853
34.65 	0.061004 	4721 	0.059887
34.67 	0.059481 	4741 	0.058369
34.69 	0.053429 	4754 	0.052566
34.71 	0.064834 	4766 	0.063114
34.73 	0.058701 	4787 	0.057722
34.75 	0.055948 	4808 	0.055461
34.77 	0.058115 	4818 	0.057143
34.79 	0.059287 	4824 	0.057810
34.81 	0.056347 	4845 	0.055380
34.83 	0.058412 	4862 	0.057328
34.85 	0.053399 	4869 	0.052056
34.87 	0.064297 	4868 	0.063094
34.89 	0.058787 	4882 	0.057947
34.91 	0.060221 	4882 	0.059141
34.93 	0.061645 	4899 	0.060091
34.95 	0.057260 	4890 	0.056301
34.97 	0.052836 	4902 	0.051999
34.99 	0.063508 	4897 	0.062671
35.01 	0.059110 	4923 	0.058396
35.03 	0.057050 	4943 	0.055865
35.05 	0.060845 	4947 	0.059661
35.07 	0.054858 	4940 	0.053317
35.09 	0.055320 	4953 	0.054610
35.11 	0.060845 	4947 	0.060253
35.13 	0.057483 	4958 	0.056164
35.15 	0.064817 	4937 	0.063274
35.17 	0.061059 	4946 	0.060230
35.19 	0.057669 	4942 	0.057195
35.21 	0.062083 	4945 	0.061491
35.23 	0.063498 	4945 	0.062413
35.25 	0.054016 	4943 	0.053186
35.27 	0.061237 	4948 	0.060645
35.29 	0.062892 	4945 	0.061589
35.31 	0.064058 	4933 	0.063108
35.33 	0.059073 	4943 	0.057513
35.35 	0.059692 	4942 	0.058033
35.37 	0.062766 	4939 	0.061560
35.39 	0.055005 	4945 	0.054176
35.41 	0.056232 	4926 	0.055400
35.43 	0.058382 	4933 	0.057076
35.45 	0.059753 	4937 	0.058547
35.47 	0.058406 	4931 	0.057812
35.49 	0.056415 	4910 	0.055342
35.51 	0.059074 	4926 	0.058004
35.53 	0.057587 	4949 	0.056503
35.55 	0.061881 	4945 	0.060696
35.57 	0.058180 	4933 	0.057586
35.59 	0.056218 	4945 	0.055271
35.61 	0.058681 	4942 	0.058444
35.63 	0.060894 	4943 	0.058998
35.65 	0.061072 	4945 	0.060006
35.67 	0.056657 	4942 	0.055472
35.69 	0.061464 	4946 	0.060023
35.71 	0.054487 	4937 	0.054012
35.73 	0.058752 	4936 	0.057565
35.75 	0.061854 	4931 	0.061240
35.77 	0.060594 	4951 	0.060121
35.79 	0.062247 	4932 	0.061059
35.81 	0.061626 	4933 	0.060063
35.83 	0.057622 	4946 	0.056438
35.85 	0.056130 	4935 	0.055061
35.87 	0.068048 	4923 	0.066620
35.89 	0.063640 	4934 	0.062097
35.91 	0.058656 	4927 	0.057349
35.93 	0.059468 	4927 	0.058042
35.95 	0.062436 	4917 	0.061126
35.97 	0.062907 	4912 	0.062192
35.99 	0.057906 	4939 	0.056820
36.01 	0.063489 	4930 	0.061776
36.03 	0.055230 	4943 	0.054045
36.05 	0.065723 	4945 	0.064282
36.07 	0.061551 	4939 	0.060721
36.09 	0.058704 	4940 	0.057993
36.11 	0.062690 	4929 	0.061245
36.13 	0.065965 	4942 	0.065116
36.15 	0.063778 	4939 	0.062473
36.17 	0.057259 	4925 	0.056307
36.19 	0.057895 	4940 	0.056452
36.21 	0.058024 	4929 	0.056954
36.23 	0.065653 	4935 	0.063992
36.25 	0.063752 	4941 	0.063159
36.27 	0.056853 	4925 	0.055901
36.29 	0.061245 	4931 	0.060295
36.31 	0.062703 	4928 	0.061276
36.33 	0.058180 	4933 	0.056992
36.35 	0.057618 	4929 	0.056905
36.37 	0.059110 	4923 	0.057801
36.39 	0.071733 	4921 	0.069809
36.41 	0.062296 	4896 	0.061219
36.43 	0.058239 	4928 	0.057407
36.45 	0.057404 	4930 	0.056215
36.47 	0.064222 	4936 	0.063629
36.49 	0.064953 	4942 	0.064005
36.51 	0.061626 	4933 	0.059963
36.53 	0.059680 	4943 	0.058476
36.55 	0.058859 	4927 	0.057552
36.57 	0.057965 	4934 	0.056184
36.59 	0.055882 	4939 	0.054696
36.61 	0.057595 	4931 	0.056882
36.63 	0.050497 	4931 	0.049071
36.65 	0.061233 	4932 	0.059214
36.67 	0.058824 	4930 	0.058111
36.69 	0.058024 	4929 	0.057430
36.71 	0.062182 	4921 	0.061092
36.73 	0.064975 	4925 	0.063785
36.75 	0.065736 	4944 	0.064314
36.77 	0.058955 	4919 	0.057864
36.79 	0.061979 	4921 	0.060551
36.81 	0.059194 	4916 	0.058599
36.83 	0.062869 	4915 	0.061796
36.85 	0.055941 	4898 	0.054984
36.87 	0.061691 	4944 	0.060388
36.89 	0.056347 	4916 	0.055513
36.91 	0.063550 	4941 	0.062226
36.93 	0.065517 	4930 	0.063102
36.95 	0.058382 	4933 	0.057670
36.97 	0.052290 	4934 	0.051459
36.99 	0.051469 	4935 	0.051232
37.01 	0.060409 	4933 	0.059460
37.03 	0.064785 	4924 	0.063576
37.05 	0.063122 	4927 	0.061556
37.07 	0.058764 	4935 	0.057696
37.09 	0.057833 	4928 	0.057001
37.11 	0.064032 	4935 	0.062845
37.13 	0.059911 	4924 	0.059078
37.15 	0.059483 	4909 	0.057693
37.17 	0.056749 	4934 	0.055799
37.19 	0.060305 	4925 	0.059472
37.21 	0.061216 	4917 	0.060382
37.23 	0.058967 	4918 	0.057776
37.25 	0.060273 	4911 	0.059438
37.27 	0.055374 	4894 	0.055015
37.29 	0.059026 	4930 	0.058908
37.31 	0.058156 	4935 	0.057444
37.33 	0.052770 	4927 	0.051819
37.35 	0.058323 	4938 	0.056969
37.37 	0.055815 	4927 	0.054983
37.39 	0.061245 	4931 	0.060414
37.41 	0.058812 	4931 	0.057723
37.43 	0.059205 	4932 	0.058136
37.45 	0.060114 	4924 	0.059400
37.47 	0.059850 	4929 	0.058642
37.49 	0.056267 	4923 	0.055791
37.51 	0.056558 	4933 	0.055727
37.53 	0.055906 	4919 	0.055310
37.55 	0.053955 	4930 	0.053480
37.57 	0.064162 	4925 	0.063449
37.59 	0.060224 	4915 	0.059390
37.61 	0.061357 	4922 	0.060762
37.63 	0.055092 	4919 	0.054259
37.65 	0.055714 	4918 	0.054523
37.67 	0.057504 	4904 	0.056529
37.69 	0.052266 	4898 	0.051549
37.71 	0.053966 	4929 	0.053115
37.73 	0.054169 	4929 	0.053199
37.75 	0.055668 	4940 	0.054364
37.77 	0.054878 	4920 	0.053806
37.79 	0.059229 	4930 	0.058635
37.81 	0.053517 	4933 	0.053042
37.83 	0.049187 	4920 	0.048473
37.85 	0.054856 	4922 	0.054023
37.87 	0.058716 	4939 	0.057649
37.89 	0.057259 	4925 	0.056069
37.91 	0.055172 	4930 	0.053727
37.93 	0.055499 	4919 	0.054665
37.95 	0.051616 	4921 	0.051139
37.97 	0.054372 	4929 	0.052946
37.99 	0.057818 	4912 	0.056744
38.01 	0.061080 	4928 	0.059653
38.03 	0.060094 	4909 	0.058542
38.05 	0.055228 	4925 	0.053682
38.07 	0.056223 	4909 	0.055488
38.09 	0.058016 	4878 	0.056935
38.11 	0.058764 	4935 	0.057933
38.13 	0.053271 	4937 	0.052559
38.15 	0.059984 	4918 	0.058535
38.17 	0.057606 	4930 	0.056656
38.19 	0.060243 	4930 	0.059412
38.21 	0.062563 	4923 	0.061969
38.23 	0.062778 	4938 	0.062067
38.25 	0.051251 	4917 	0.050040
38.27 	0.062677 	4930 	0.061489
38.29 	0.066816 	4924 	0.065745
38.31 	0.066775 	4927 	0.065348
38.33 	0.064785 	4924 	0.063219
38.35 	0.067979 	4928 	0.066434
38.37 	0.071487 	4924 	0.070039
38.39 	0.075168 	4909 	0.073120
38.41 	0.073126 	4923 	0.072036
38.43 	0.072213 	4916 	0.070783
38.45 	0.084994 	4918 	0.082850
38.47 	0.088445 	4907 	0.086893
38.49 	0.086734 	4877 	0.084211
38.51 	0.080495 	4932 	0.078357
38.53 	0.078921 	4929 	0.076781
38.55 	0.079619 	4936 	0.077107
38.57 	0.075361 	4923 	0.074528
38.59 	0.071487 	4924 	0.070277
38.61 	0.069895 	4936 	0.068115
38.63 	0.073721 	4924 	0.071798
38.65 	0.070760 	4918 	0.068935
38.67 	0.064006 	4937 	0.063295
38.69 	0.072328 	4922 	0.071000
38.71 	0.063160 	4924 	0.061613
38.73 	0.054494 	4918 	0.053303
38.75 	0.060889 	4927 	0.060057
38.77 	0.061345 	4923 	0.060155
38.79 	0.063437 	4934 	0.062468
38.81 	0.052321 	4912 	0.051486
38.83 	0.056922 	4919 	0.056089
38.85 	0.057614 	4912 	0.056302
38.87 	0.054775 	4911 	0.054179
38.89 	0.053502 	4897 	0.052665
38.91 	0.052417 	4903 	0.052058
38.93 	0.048805 	4938 	0.047975
38.95 	0.051850 	4918 	0.050421
38.97 	0.053742 	4931 	0.052653
38.99 	0.047397 	4937 	0.046784
39.01 	0.052257 	4918 	0.051304
39.03 	0.049858 	4934 	0.049383
39.05 	0.048934 	4925 	0.048220
39.07 	0.048944 	4924 	0.048944
39.09 	0.050985 	4923 	0.050628
39.11 	0.048874 	4931 	0.048399
39.13 	0.053220 	4923 	0.052625
39.15 	0.046999 	4915 	0.046522
39.17 	0.046384 	4937 	0.045791
39.19 	0.044539 	4917 	0.044539
39.21 	0.045214 	4910 	0.044856
39.23 	0.049137 	4925 	0.048542
39.25 	0.047542 	4922 	0.046947
39.27 	0.047251 	4910 	0.046415
39.29 	0.045297 	4901 	0.044699
39.31 	0.043407 	4884 	0.042807
39.33 	0.043196 	4931 	0.042721
39.35 	0.047619 	4935 	0.046907
39.37 	0.049097 	4929 	0.048741
39.39 	0.046054 	4929 	0.045579
39.41 	0.043399 	4931 	0.042924
39.43 	0.049057 	4933 	0.048464
39.45 	0.046497 	4925 	0.045903
39.47 	0.046313 	4923 	0.045837
39.49 	0.044395 	4933 	0.044039
39.51 	0.045491 	4924 	0.045016
39.53 	0.044688 	4923 	0.043855
39.55 	0.045538 	4919 	0.044823
39.57 	0.048247 	4933 	0.047297
39.59 	0.051507 	4912 	0.050195
39.61 	0.046110 	4923 	0.045634
39.63 	0.049573 	4922 	0.049097
39.65 	0.041007 	4926 	0.040531
39.67 	0.051292 	4913 	0.050458
39.69 	0.050651 	4916 	0.050174
39.71 	0.041879 	4895 	0.041520
39.73 	0.044214 	4908 	0.043736
39.75 	0.047484 	4928 	0.046889
39.77 	0.047011 	4935 	0.046062
39.79 	0.048721 	4926 	0.047889
39.81 	0.043231 	4927 	0.042756
39.83 	0.048034 	4934 	0.047440
39.85 	0.043840 	4927 	0.043483
39.87 	0.047310 	4925 	0.046596
39.89 	0.047223 	4934 	0.046630
39.91 	0.050386 	4922 	0.049652
39.93 	0.042536 	4937 	0.041468
39.95 	0.046796 	4915 	0.046080
39.97 	0.047484 	4928 	0.047008
39.99 	0.047445 	4932 	0.046851
40.01 	0.046767 	4918 	0.045814
40.03 	0.040179 	4928 	0.039822
40.05 	0.040065 	4917 	0.039469
40.07 	0.043673 	4923 	0.043078
40.09 	0.044548 	4916 	0.044310
40.11 	0.045362 	4916 	0.044885
40.13 	0.047181 	4896 	0.046224
40.15 	0.040912 	4913 	0.040554
40.17 	0.041599 	4928 	0.041005
40.19 	0.042199 	4929 	0.041605
40.21 	0.046606 	4935 	0.046131
40.23 	0.047040 	4932 	0.046208
40.25 	0.042683 	4920 	0.042088
40.27 	0.041118 	4937 	0.040169
40.29 	0.049320 	4927 	0.048468
40.31 	0.046366 	4939 	0.045891
40.33 	0.043187 	4932 	0.042593
40.35 	0.043911 	4919 	0.042959
40.37 	0.044634 	4929 	0.044277
40.39 	0.041574 	4931 	0.041336
40.41 	0.042234 	4925 	0.041877
40.43 	0.046932 	4922 	0.046337
40.45 	0.041760 	4933 	0.041403
40.47 	0.042294 	4918 	0.041579
40.49 	0.045676 	4926 	0.044844
40.51 	0.044088 	4922 	0.043731
40.53 	0.038242 	4916 	0.037528
40.55 	0.046659 	4908 	0.045704
40.57 	0.043763 	4890 	0.043643
40.59 	0.039498 	4937 	0.039142
40.61 	0.042958 	4935 	0.042246
40.63 	0.045639 	4930 	0.045045
40.65 	0.040713 	4937 	0.040001
40.67 	0.043796 	4932 	0.043083
40.69 	0.042536 	4937 	0.042061
40.71 	0.042782 	4932 	0.042426
40.73 	0.045270 	4926 	0.044556
40.75 	0.038735 	4931 	0.038259
40.77 	0.051630 	4939 	0.050562
40.79 	0.044882 	4924 	0.044168
40.81 	0.036227 	4941 	0.035990
40.83 	0.041802 	4928 	0.040613
40.85 	0.045898 	4924 	0.045422
40.87 	0.042005 	4928 	0.041886
40.89 	0.047049 	4931 	0.046218
40.91 	0.044891 	4923 	0.044534
40.93 	0.047223 	4934 	0.046491
40.95 	0.046204 	4913 	0.045727
40.97 	0.044070 	4924 	0.043832
40.99 	0.048132 	4924 	0.047061
41.01 	0.045195 	4912 	0.044222
41.03 	0.042406 	4905 	0.042167
41.05 	0.046191 	4936 	0.045123
41.07 	0.044422 	4930 	0.043709
41.09 	0.040089 	4939 	0.039615
41.11 	0.041743 	4935 	0.040793
41.13 	0.043355 	4936 	0.042505
41.15 	0.042906 	4941 	0.042551
41.17 	0.040332 	4934 	0.039482
41.19 	0.044828 	4930 	0.044590
41.21 	0.041523 	4937 	0.041167
41.23 	0.043936 	4939 	0.043343
41.25 	0.046827 	4933 	0.046352
41.27 	0.046035 	4931 	0.045441
41.29 	0.037946 	4928 	0.037946
41.31 	0.047030 	4933 	0.046555
41.33 	0.042536 	4937 	0.041567
41.35 	0.043135 	4938 	0.042898
41.37 	0.043867 	4924 	0.043153
41.39 	0.045003 	4933 	0.044766
41.41 	0.047097 	4926 	0.046384
41.43 	0.038953 	4929 	0.038715
41.45 	0.041311 	4914 	0.040238
41.47 	0.043443 	4926 	0.042848
41.49 	0.040065 	4892 	0.039946
41.51 	0.046154 	4940 	0.045680
41.53 	0.039037 	4944 	0.038563
41.55 	0.043566 	4935 	0.042973
41.57 	0.042299 	4941 	0.041825
41.59 	0.047436 	4933 	0.046842
41.61 	0.039168 	4953 	0.038577
41.63 	0.044147 	4938 	0.043535
41.65 	0.040576 	4929 	0.039606
41.67 	0.042510 	4940 	0.041917
41.69 	0.039418 	4947 	0.039181
41.71 	0.045602 	4934 	0.045008
41.73 	0.038898 	4936 	0.038542
41.75 	0.044634 	4929 	0.044158
41.77 	0.041287 	4941 	0.040932
41.79 	0.040251 	4944 	0.040014
41.81 	0.045989 	4936 	0.045751
41.83 	0.038149 	4928 	0.037912
41.85 	0.034420 	4939 	0.034064
41.87 	0.039919 	4935 	0.039425
41.89 	0.041557 	4933 	0.040844
41.91 	0.038898 	4936 	0.038542
41.93 	0.040552 	4932 	0.039839
41.95 	0.044007 	4931 	0.043532
41.97 	0.044974 	4914 	0.044258
41.99 	0.037920 	4905 	0.037801
42.01 	0.039862 	4942 	0.039270
42.03 	0.037862 	4939 	0.037506
42.05 	0.040590 	4952 	0.040235
42.07 	0.039498 	4937 	0.038648
42.09 	0.043654 	4948 	0.042944
42.11 	0.041860 	4945 	0.041624
42.13 	0.038625 	4945 	0.038033
42.15 	0.041717 	4938 	0.041124
42.17 	0.034160 	4918 	0.033803
42.19 	0.035249 	4908 	0.035010
42.21 	0.041420 	4901 	0.040823
42.23 	0.039043 	4892 	0.039043
42.25 	0.043976 	4889 	0.043018
42.27 	0.040213 	4874 	0.039372
42.29 	0.039071 	4863 	0.038830
42.31 	0.042430 	4855 	0.041465
42.33 	0.042201 	4834 	0.042080
42.35 	0.040719 	4838 	0.040356
42.37 	0.042236 	4830 	0.042115
42.39 	0.039134 	4804 	0.038768
42.41 	0.041424 	4804 	0.040936
42.43 	0.040693 	4792 	0.040693
42.45 	0.033710 	4776 	0.033220
42.47 	0.044911 	4765 	0.044542
42.49 	0.043022 	4765 	0.042284
42.51 	0.039216 	4743 	0.038969
42.53 	0.042513 	4728 	0.042141
42.55 	0.038870 	4708 	0.038621
42.57 	0.037421 	4730 	0.037421
42.59 	0.037640 	4729 	0.037516
42.61 	0.037171 	4708 	0.036673
42.63 	0.037163 	4709 	0.036790
42.65 	0.036073 	4685 	0.035697
42.67 	0.036934 	4684 	0.036434
42.69 	0.035944 	4674 	0.035568
42.71 	0.035814 	4663 	0.035437
42.73 	0.040948 	4640 	0.040696
42.75 	0.041369 	4617 	0.040734
42.77 	0.042391 	4600 	0.042116
42.79 	0.038193 	4582 	0.037682
42.81 	0.039676 	4562 	0.038905
42.83 	0.040123 	4536 	0.039219
42.85 	0.038207 	4528 	0.037560
42.87 	0.044010 	4499 	0.043489
42.89 	0.036161 	4480 	0.035507
42.91 	0.042415 	4456 	0.042152
42.93 	0.036887 	4446 	0.036755
42.95 	0.039855 	4416 	0.039457
42.97 	0.040218 	4401 	0.039686
42.99 	0.040821 	4385 	0.039886
43.01 	0.040568 	4363 	0.040434
43.03 	0.037849 	4333 	0.037308
43.05 	0.036763 	4325 	0.036628
43.07 	0.038175 	4296 	0.037334
43.09 	0.040626 	4283 	0.040352
43.11 	0.044418 	4255 	0.043868
43.13 	0.035402 	4237 	0.035264
43.15 	0.036852 	4206 	0.036434
43.17 	0.035176 	4179 	0.034475
43.19 	0.034335 	4194 	0.033497
43.21 	0.042426 	4172 	0.042145
43.23 	0.034665 	4154 	0.034383
43.25 	0.037969 	4135 	0.037827
43.27 	0.038733 	4105 	0.038305
43.29 	0.036098 	4100 	0.035812
43.31 	0.037754 	4079 	0.037754
43.33 	0.043693 	4051 	0.043115
43.35 	0.034226 	4032 	0.034081
43.37 	0.034122 	4015 	0.033223
43.39 	0.040980 	4002 	0.040540
43.41 	0.042548 	3972 	0.042253
43.43 	0.039394 	3960 	0.038802
43.45 	0.036595 	3935 	0.036297
43.47 	0.036980 	3921 	0.036383
43.49 	0.037721 	3897 	0.037571
43.51 	0.037658 	3877 	0.036903
43.53 	0.037794 	3863 	0.037491
43.55 	0.034413 	2964 	0.033820
43.57 	0.036640 	2238 	0.036378
43.59 	0.033792 	1746 	0.033456
43.61 	0.039970 	1351 	0.039970
43.63 	0.030969 	1001 	0.030969
43.65 	0.040757 	687 	0.040757
43.67 	0.031873 	502 	0.031873
43.69 	0.038147 	367 	0.036551
43.71 	0.016736 	239 	0.016736
43.73 	0.008333 	120 	0.008333
43.75 	0.062500 	16 	0.062500