File: Example_Data/25SC_s1_0005.001.dat
#F C:\frames\spec\25SC_s1_0005.001
#C title =s:5 frm:1 25SC_s1
#C wavelength =0.15406

#S 1  fr_average C:\frames\spec\25SC_s1_0005.001 C:\win32app\speccom\mask.axs chi 0 180 0 360 0.02
#C 2 theta =0.000000 to 180 deg
#C   q   =0.000000 to 81.568 nm^-1
#C  chi  =0.000000 to 360 deg
#C collumns:
#C  1 position (2theta or chi in degrees)
#C  2 average intensity (sum of all counts in the region divided with number of pixels)
#C  3 Number of pixels in region)
#C  4 error (sum of sqrt(intensity) for all pixels divided by number)
#N 4
#L TTh  Int  N_pix  Err
32.99 	0.000000 	61 	0.000000
33.01 	0.087056 	873 	0.082920
33.03 	0.066139 	1391 	0.065718
33.05 	0.067160 	1757 	0.066827
33.07 	0.057561 	2050 	0.056704
33.09 	0.057946 	2347 	0.057447
33.11 	0.064366 	2579 	0.062095
33.13 	0.060866 	2793 	0.060447
33.15 	0.065355 	2999 	0.064574
33.17 	0.060294 	3201 	0.059349
33.19 	0.059246 	3342 	0.058194
33.21 	0.055006 	3436 	0.053812
33.23 	0.058757 	3523 	0.057925
33.25 	0.058970 	3612 	0.057646
33.27 	0.053994 	3630 	0.052865
33.29 	0.057018 	3648 	0.055894
33.31 	0.054372 	3660 	0.054212
33.33 	0.058058 	3686 	0.056468
33.35 	0.057390 	3694 	0.056122
33.37 	0.054120 	3714 	0.053646
33.39 	0.056047 	3729 	0.055576
33.41 	0.053476 	3740 	0.052380
33.43 	0.052911 	3761 	0.052600
33.45 	0.061755 	3773 	0.060047
33.47 	0.059505 	3798 	0.058708
33.49 	0.050144 	3809 	0.049837
33.51 	0.060026 	3815 	0.058798
33.53 	0.062223 	3841 	0.061308
33.55 	0.056466 	3843 	0.055704
33.57 	0.053908 	3877 	0.053908
33.59 	0.058763 	3880 	0.058461
33.61 	0.062420 	3909 	0.060322
33.63 	0.058178 	3919 	0.057580
33.65 	0.068939 	3931 	0.067598
33.67 	0.066262 	3954 	0.064484
33.69 	0.062737 	3953 	0.061996
33.71 	0.055094 	3975 	0.054358
33.73 	0.055944 	4004 	0.054920
33.75 	0.058265 	3999 	0.056653
33.77 	0.061863 	4025 	0.060262
33.79 	0.054937 	4041 	0.054212
33.81 	0.043834 	4038 	0.043543
33.83 	0.052346 	4050 	0.051622
33.85 	0.060503 	4099 	0.059788
33.87 	0.054488 	4111 	0.054060
33.89 	0.052172 	4121 	0.051296
33.91 	0.056640 	4149 	0.055934
33.93 	0.056372 	4151 	0.055666
33.95 	0.057642 	4181 	0.057198
33.97 	0.061098 	4190 	0.059118
33.99 	0.054286 	4200 	0.053728
34.01 	0.058865 	4213 	0.057753
34.03 	0.052780 	4244 	0.051239
34.05 	0.061383 	4252 	0.060281
34.07 	0.058810 	4268 	0.057300
34.09 	0.054830 	4286 	0.054283
34.11 	0.062297 	4302 	0.060776
34.13 	0.056175 	4308 	0.055223
34.15 	0.056800 	4331 	0.055988
34.17 	0.049425 	4350 	0.048752
34.19 	0.052270 	4362 	0.052001
34.21 	0.056509 	4371 	0.056241
34.23 	0.060323 	4393 	0.058723
34.25 	0.063124 	4404 	0.061794
34.27 	0.060832 	4422 	0.060302
34.29 	0.061330 	4435 	0.059877
34.31 	0.063257 	4458 	0.061659
34.33 	0.057929 	4471 	0.057012
34.35 	0.057538 	4484 	0.056885
34.37 	0.058562 	4491 	0.057909
34.39 	0.055087 	4502 	0.054046
34.41 	0.058109 	4526 	0.057203
34.43 	0.053756 	4539 	0.052724
34.45 	0.048953 	4535 	0.048307
34.47 	0.056838 	4592 	0.055414
34.49 	0.058734 	4597 	0.058097
34.51 	0.056665 	4606 	0.055393
34.53 	0.062890 	4643 	0.062239
34.55 	0.052768 	4643 	0.051738
34.57 	0.053863 	4660 	0.053234
34.59 	0.054973 	4675 	0.053971
34.61 	0.054290 	4697 	0.053417
34.63 	0.058386 	4710 	0.057495
34.65 	0.054226 	4721 	0.053481
34.67 	0.055895 	4741 	0.055525
34.69 	0.056163 	4754 	0.055547
34.71 	0.053714 	4766 	0.053099
34.73 	0.054105 	4787 	0.053004
34.75 	0.055324 	4808 	0.054817
34.77 	0.053964 	4818 	0.053113
34.79 	0.053483 	4824 	0.052754
34.81 	0.056140 	4845 	0.055536
34.83 	0.056561 	4862 	0.055838
34.85 	0.059971 	4869 	0.058407
34.87 	0.054848 	4868 	0.054487
34.89 	0.059197 	4882 	0.058357
34.91 	0.056944 	4882 	0.056464
34.93 	0.054297 	4899 	0.053819
34.95 	0.056033 	4890 	0.055434
34.97 	0.054468 	4902 	0.053512
34.99 	0.061875 	4897 	0.061037
35.01 	0.055860 	4923 	0.054908
35.03 	0.062108 	4943 	0.061634
35.05 	0.059026 	4947 	0.057368
35.07 	0.058704 	4940 	0.057499
35.09 	0.056531 	4953 	0.055585
35.11 	0.051546 	4947 	0.050362
35.13 	0.059298 	4958 	0.058353
35.15 	0.063196 	4937 	0.062128
35.17 	0.059240 	4946 	0.058292
35.19 	0.059895 	4942 	0.059302
35.21 	0.052578 	4945 	0.052105
35.23 	0.050152 	4945 	0.049678
35.25 	0.060894 	4943 	0.060183
35.27 	0.057195 	4948 	0.056484
35.29 	0.060465 	4945 	0.059399
35.31 	0.060815 	4933 	0.059509
35.33 	0.056241 	4943 	0.056123
35.35 	0.060502 	4942 	0.058487
35.37 	0.056287 	4939 	0.055456
35.39 	0.060061 	4945 	0.059468
35.41 	0.059683 	4926 	0.058851
35.43 	0.054733 	4933 	0.054496
35.45 	0.053879 	4937 	0.053167
35.47 	0.063273 	4931 	0.061729
35.49 	0.052342 	4910 	0.051865
35.51 	0.061104 	4926 	0.059440
35.53 	0.058598 	4949 	0.057888
35.55 	0.058847 	4945 	0.057426
35.57 	0.058382 	4933 	0.057650
35.59 	0.057027 	4945 	0.055961
35.61 	0.057062 	4942 	0.055877
35.63 	0.054420 	4943 	0.053235
35.65 	0.055410 	4945 	0.054699
35.67 	0.059692 	4942 	0.058507
35.69 	0.055600 	4946 	0.054890
35.71 	0.054689 	4937 	0.054452
35.73 	0.059157 	4936 	0.058445
35.75 	0.054756 	4931 	0.053805
35.77 	0.053727 	4951 	0.052780
35.79 	0.056569 	4932 	0.055857
35.81 	0.059396 	4933 	0.058327
35.83 	0.061262 	4946 	0.060196
35.85 	0.057143 	4935 	0.055956
35.87 	0.061548 	4923 	0.060834
35.89 	0.054114 	4934 	0.052927
35.91 	0.058250 	4927 	0.057280
35.93 	0.060889 	4927 	0.059680
35.95 	0.056539 	4917 	0.055328
35.97 	0.063722 	4912 	0.062867
35.99 	0.060134 	4939 	0.058691
36.01 	0.057809 	4930 	0.057096
36.03 	0.061097 	4943 	0.059911
36.05 	0.062892 	4945 	0.061589
36.07 	0.060539 	4939 	0.060183
36.09 	0.058300 	4940 	0.057470
36.11 	0.059850 	4929 	0.058899
36.13 	0.063335 	4942 	0.062130
36.15 	0.059931 	4939 	0.059220
36.17 	0.061523 	4925 	0.060433
36.19 	0.057287 	4940 	0.057050
36.21 	0.057010 	4929 	0.056296
36.23 	0.060790 	4935 	0.060078
36.25 	0.061728 	4941 	0.060661
36.27 	0.059898 	4925 	0.058333
36.29 	0.055567 	4931 	0.054616
36.31 	0.062906 	4928 	0.061955
36.33 	0.062437 	4933 	0.061230
36.35 	0.061270 	4929 	0.060200
36.37 	0.068048 	4923 	0.066739
36.39 	0.058525 	4921 	0.057572
36.41 	0.060866 	4896 	0.059670
36.43 	0.058442 	4928 	0.057372
36.45 	0.059432 	4930 	0.058363
36.47 	0.059360 	4936 	0.058173
36.49 	0.057871 	4942 	0.056686
36.51 	0.061423 	4933 	0.060236
36.53 	0.060287 	4943 	0.059221
36.55 	0.064339 	4927 	0.063388
36.57 	0.053506 	4934 	0.052794
36.59 	0.056894 	4939 	0.055945
36.61 	0.057392 	4931 	0.056303
36.63 	0.056175 	4931 	0.055344
36.65 	0.057178 	4932 	0.055990
36.67 	0.055984 	4930 	0.055014
36.69 	0.060053 	4929 	0.059340
36.71 	0.061776 	4921 	0.061062
36.73 	0.062538 	4925 	0.061349
36.75 	0.055016 	4944 	0.054068
36.77 	0.058955 	4919 	0.057764
36.79 	0.063605 	4921 	0.062772
36.81 	0.060212 	4916 	0.059377
36.83 	0.059613 	4915 	0.058044
36.85 	0.060433 	4898 	0.059596
36.87 	0.056230 	4944 	0.055400
36.89 	0.062246 	4916 	0.061054
36.91 	0.057883 	4941 	0.056797
36.93 	0.067951 	4930 	0.066981
36.95 	0.056558 	4933 	0.055845
36.97 	0.058168 	4934 	0.057455
36.99 	0.060588 	4935 	0.059875
37.01 	0.061220 	4933 	0.059677
37.03 	0.065394 	4924 	0.064036
37.05 	0.059062 	4927 	0.058230
37.07 	0.060182 	4935 	0.058501
37.09 	0.057224 	4928 	0.056630
37.11 	0.061601 	4935 	0.060533
37.13 	0.062754 	4924 	0.060969
37.15 	0.061112 	4909 	0.060396
37.17 	0.057357 	4934 	0.055932
37.19 	0.058274 	4925 	0.057085
37.21 	0.059386 	4917 	0.058790
37.23 	0.055510 	4918 	0.054796
37.25 	0.061902 	4911 	0.061067
37.27 	0.060687 	4894 	0.059849
37.29 	0.060649 	4930 	0.059580
37.31 	0.060182 	4935 	0.059233
37.33 	0.054597 	4927 	0.053864
37.35 	0.063994 	4938 	0.062570
37.37 	0.056627 	4927 	0.055794
37.39 	0.054350 	4931 	0.053756
37.41 	0.058203 	4931 	0.057847
37.43 	0.060016 	4932 	0.058710
37.45 	0.051990 	4924 	0.050920
37.47 	0.059444 	4929 	0.058493
37.49 	0.062970 	4923 	0.061780
37.51 	0.054328 	4933 	0.053378
37.53 	0.061191 	4919 	0.060239
37.55 	0.054767 	4930 	0.053935
37.57 	0.064365 	4925 	0.063533
37.59 	0.048220 	4915 	0.047981
37.61 	0.052215 	4922 	0.050886
37.63 	0.049807 	4919 	0.049331
37.65 	0.052867 	4918 	0.051676
37.67 	0.054038 	4904 	0.052843
37.69 	0.052675 	4898 	0.051818
37.71 	0.054372 	4929 	0.053897
37.73 	0.056604 	4929 	0.056366
37.75 	0.052834 	4940 	0.052004
37.77 	0.054472 	4920 	0.053876
37.79 	0.055578 	4930 	0.055103
37.81 	0.056355 	4933 	0.055604
37.83 	0.056098 	4920 	0.055383
37.85 	0.053840 	4922 	0.053007
37.87 	0.056084 	4939 	0.055135
37.89 	0.057665 	4925 	0.056476
37.91 	0.057606 	4930 	0.057012
37.93 	0.053873 	4919 	0.052801
37.95 	0.051616 	4921 	0.051020
37.97 	0.056807 	4929 	0.056094
37.99 	0.055375 	4912 	0.054520
38.01 	0.058239 	4928 	0.057050
38.03 	0.048686 	4909 	0.047731
38.05 	0.051371 	4925 	0.051133
38.07 	0.053168 	4909 	0.052452
38.09 	0.056581 	4878 	0.055860
38.11 	0.053901 	4935 	0.052714
38.13 	0.053879 	4937 	0.053286
38.15 	0.054087 	4918 	0.053134
38.17 	0.056389 	4930 	0.055795
38.19 	0.050304 	4930 	0.049354
38.21 	0.057282 	4923 	0.056449
38.23 	0.057716 	4938 	0.057004
38.25 	0.061826 	4917 	0.060139
38.27 	0.056795 	4930 	0.054894
38.29 	0.055443 	4924 	0.054848
38.31 	0.063933 	4927 	0.062626
38.33 	0.062957 	4924 	0.061391
38.35 	0.063312 	4928 	0.062598
38.37 	0.062754 	4924 	0.062040
38.39 	0.068853 	4909 	0.067063
38.41 	0.064189 	4923 	0.063237
38.43 	0.066314 	4916 	0.065480
38.45 	0.075030 	4918 	0.073125
38.47 	0.067862 	4907 	0.065952
38.49 	0.073816 	4877 	0.072235
38.51 	0.075223 	4932 	0.073422
38.53 	0.081761 	4929 	0.080296
38.55 	0.077391 	4936 	0.075254
38.57 	0.074954 	4923 	0.073288
38.59 	0.080829 	4924 	0.079163
38.61 	0.075162 	4936 	0.072907
38.63 	0.070674 	4924 	0.069485
38.65 	0.078691 	4918 	0.076289
38.67 	0.071096 	4937 	0.069415
38.69 	0.073141 	4922 	0.070741
38.71 	0.072096 	4924 	0.070906
38.73 	0.065067 	4918 	0.063876
38.75 	0.059671 	4927 	0.058839
38.77 	0.061954 	4923 	0.060645
38.79 	0.064451 	4934 	0.063244
38.81 	0.063925 	4912 	0.062355
38.83 	0.055906 	4919 	0.055072
38.85 	0.057003 	4912 	0.055930
38.87 	0.057829 	4911 	0.057114
38.89 	0.045742 	4897 	0.045264
38.91 	0.049154 	4903 	0.048437
38.93 	0.051843 	4938 	0.050419
38.95 	0.051444 	4918 	0.051086
38.97 	0.052322 	4931 	0.051847
38.99 	0.051651 	4937 	0.050702
39.01 	0.052054 	4918 	0.051696
39.03 	0.047021 	4934 	0.046546
39.05 	0.046904 	4925 	0.046190
39.07 	0.053818 	4924 	0.052847
39.09 	0.046923 	4923 	0.046447
39.11 	0.042791 	4931 	0.041821
39.13 	0.050376 	4923 	0.049305
39.15 	0.048423 	4915 	0.047589
39.17 	0.046384 	4937 	0.045791
39.19 	0.044336 	4917 	0.043264
39.21 	0.051120 	4910 	0.050046
39.23 	0.046497 	4925 	0.045903
39.25 	0.046323 	4922 	0.045609
39.27 	0.047454 	4910 	0.047077
39.29 	0.046521 	4901 	0.045684
39.31 	0.048526 	4884 	0.047926
39.33 	0.050091 	4931 	0.049141
39.35 	0.044580 	4935 	0.044105
39.37 	0.043214 	4929 	0.042362
39.39 	0.044025 	4929 	0.043174
39.41 	0.050902 	4931 	0.050289
39.43 	0.046625 	4933 	0.045912
39.45 	0.043858 	4925 	0.043263
39.47 	0.046516 	4923 	0.045802
39.49 	0.052301 	4933 	0.051707
39.51 	0.049350 	4924 	0.048517
39.53 	0.047532 	4923 	0.047294
39.55 	0.043911 	4919 	0.043177
39.57 	0.042570 	4933 	0.042095
39.59 	0.044381 	4912 	0.044262
39.61 	0.047938 	4923 	0.047462
39.63 	0.046119 	4922 	0.045643
39.65 	0.047097 	4926 	0.046621
39.67 	0.043761 	4913 	0.043523
39.69 	0.048210 	4916 	0.047495
39.71 	0.042901 	4895 	0.042542
39.73 	0.041972 	4908 	0.041137
39.75 	0.041802 	4928 	0.041445
39.77 	0.045998 	4935 	0.045404
39.79 	0.042022 	4926 	0.041665
39.81 	0.043434 	4927 	0.042820
39.83 	0.049250 	4934 	0.048518
39.85 	0.045870 	4927 	0.045037
39.87 	0.044264 	4925 	0.043788
39.89 	0.047629 	4934 	0.046798
39.91 	0.044088 	4922 	0.043374
39.93 	0.044967 	4937 	0.044492
39.95 	0.040488 	4915 	0.040012
39.97 	0.051136 	4928 	0.050542
39.99 	0.042174 	4932 	0.041817
40.01 	0.045140 	4918 	0.045021
40.03 	0.043831 	4928 	0.043356
40.05 	0.040879 	4917 	0.040164
40.07 	0.043266 	4923 	0.042790
40.09 	0.043938 	4916 	0.043700
40.11 	0.042718 	4916 	0.042360
40.13 	0.045139 	4896 	0.044541
40.15 	0.042540 	4913 	0.042063
40.17 	0.042208 	4928 	0.042089
40.19 	0.043011 	4929 	0.042516
40.21 	0.044985 	4935 	0.044629
40.23 	0.041971 	4932 	0.040902
40.25 	0.044512 	4920 	0.044155
40.27 	0.045372 	4937 	0.044403
40.29 	0.040999 	4927 	0.040642
40.31 	0.037052 	4939 	0.036578
40.33 	0.049473 	4932 	0.048998
40.35 	0.038016 	4919 	0.037540
40.37 	0.038344 	4929 	0.037869
40.39 	0.045224 	4931 	0.044749
40.41 	0.041015 	4925 	0.040658
40.43 	0.046119 	4922 	0.045762
40.45 	0.043787 	4933 	0.043430
40.47 	0.044124 	4918 	0.043885
40.49 	0.041413 	4926 	0.041175
40.51 	0.042666 	4922 	0.041951
40.53 	0.039056 	4916 	0.038580
40.55 	0.037897 	4908 	0.037659
40.57 	0.044581 	4890 	0.044461
40.59 	0.043954 	4937 	0.043598
40.61 	0.043972 	4935 	0.042884
40.63 	0.038540 	4930 	0.038183
40.65 	0.044156 	4937 	0.043089
40.67 	0.045823 	4932 	0.045467
40.69 	0.044156 	4937 	0.044038
40.71 	0.043593 	4932 	0.042861
40.73 	0.045270 	4926 	0.044913
40.75 	0.041777 	4931 	0.041301
40.77 	0.038672 	4939 	0.038079
40.79 	0.045085 	4924 	0.044372
40.81 	0.047156 	4941 	0.046682
40.83 	0.042614 	4928 	0.041544
40.85 	0.043054 	4924 	0.042083
40.87 	0.039773 	4928 	0.039297
40.89 	0.044818 	4931 	0.044581
40.91 	0.040626 	4923 	0.039912
40.93 	0.037698 	4934 	0.036867
40.95 	0.047222 	4913 	0.046029
40.97 	0.038587 	4924 	0.038230
40.99 	0.041024 	4924 	0.040429
41.01 	0.041735 	4912 	0.041496
41.03 	0.040775 	4905 	0.040178
41.05 	0.043963 	4936 	0.043468
41.07 	0.045842 	4930 	0.045604
41.09 	0.042519 	4939 	0.042163
41.11 	0.042148 	4935 	0.041673
41.13 	0.043152 	4936 	0.042678
41.15 	0.036632 	4941 	0.036158
41.17 	0.043778 	4934 	0.043303
41.19 	0.044219 	4930 	0.043625
41.21 	0.038890 	4937 	0.038178
41.23 	0.040899 	4939 	0.040049
41.25 	0.036286 	4933 	0.036049
41.27 	0.043602 	4931 	0.043127
41.29 	0.037946 	4928 	0.037214
41.31 	0.043179 	4933 	0.042347
41.33 	0.043751 	4937 	0.043277
41.35 	0.038477 	4938 	0.038240
41.37 	0.041227 	4924 	0.040989
41.39 	0.040341 	4933 	0.039984
41.41 	0.047097 	4926 	0.046483
41.43 	0.044634 	4929 	0.043782
41.45 	0.044567 	4914 	0.044189
41.47 	0.048315 	4926 	0.047364
41.49 	0.043949 	4892 	0.043091
41.51 	0.039676 	4940 	0.038965
41.53 	0.041667 	4944 	0.041430
41.55 	0.047011 	4935 	0.046180
41.57 	0.046549 	4941 	0.045957
41.59 	0.040746 	4933 	0.040034
41.61 	0.040581 	4953 	0.040108
41.63 	0.041110 	4938 	0.040161
41.65 	0.041591 	4929 	0.041234
41.67 	0.040891 	4940 	0.040772
41.69 	0.037801 	4947 	0.037682
41.71 	0.039724 	4934 	0.039487
41.73 	0.043963 	4936 	0.043488
41.75 	0.041793 	4929 	0.041080
41.77 	0.039668 	4941 	0.038957
41.79 	0.035599 	4944 	0.035243
41.81 	0.040519 	4936 	0.039807
41.83 	0.043628 	4928 	0.043391
41.85 	0.046973 	4939 	0.046261
41.87 	0.040324 	4935 	0.039968
41.89 	0.037503 	4933 	0.037028
41.91 	0.040519 	4936 	0.040519
41.93 	0.040146 	4932 	0.039908
41.95 	0.045427 	4931 	0.044952
41.97 	0.035613 	4914 	0.035016
41.99 	0.046279 	4905 	0.045563
42.01 	0.039660 	4942 	0.038949
42.03 	0.038874 	4939 	0.038400
42.05 	0.038368 	4952 	0.037895
42.07 	0.048613 	4937 	0.047782
42.09 	0.040218 	4948 	0.039626
42.11 	0.037209 	4945 	0.036854
42.13 	0.039232 	4945 	0.038995
42.15 	0.035642 	4938 	0.035523
42.17 	0.044937 	4918 	0.043964
42.19 	0.038305 	4908 	0.037708
42.21 	0.044073 	4901 	0.043595
42.23 	0.042314 	4892 	0.041596
42.25 	0.044590 	4889 	0.044230
42.27 	0.036725 	4874 	0.036485
42.29 	0.034958 	4863 	0.034476
42.31 	0.037693 	4855 	0.037210
42.33 	0.039926 	4834 	0.039804
42.35 	0.050227 	4838 	0.049259
42.37 	0.034161 	4830 	0.033919
42.39 	0.037677 	4804 	0.037555
42.41 	0.038301 	4804 	0.038058
42.43 	0.037145 	4792 	0.036534
42.45 	0.040829 	4776 	0.040584
42.47 	0.039664 	4765 	0.039172
42.49 	0.043861 	4765 	0.043247
42.51 	0.040481 	4743 	0.040357
42.53 	0.040398 	4728 	0.040026
42.55 	0.037808 	4708 	0.037310
42.57 	0.042918 	4730 	0.042051
42.59 	0.038909 	4729 	0.038413
42.61 	0.035896 	4708 	0.035399
42.63 	0.038437 	4709 	0.038064
42.65 	0.038847 	4685 	0.038597
42.67 	0.036294 	4684 	0.035919
42.69 	0.037655 	4674 	0.037028
42.71 	0.037101 	4663 	0.036598
42.73 	0.039871 	4640 	0.038987
42.75 	0.034438 	4617 	0.034438
42.77 	0.041957 	4600 	0.041447
42.79 	0.039502 	4582 	0.038991
42.81 	0.037703 	4562 	0.037574
42.83 	0.041226 	4536 	0.040838
42.85 	0.034231 	4528 	0.033973
42.87 	0.036230 	4499 	0.036100
42.89 	0.035714 	4480 	0.035453
42.91 	0.039048 	4456 	0.038523
42.93 	0.034188 	4446 	0.033925
42.95 	0.038270 	4416 	0.037872
42.97 	0.040673 	4401 	0.040007
42.99 	0.038540 	4385 	0.038407
43.01 	0.041027 	4363 	0.040199
43.03 	0.038541 	4333 	0.038001
43.05 	0.034220 	4325 	0.034084
43.07 	0.038408 	4296 	0.037590
43.09 	0.035256 	4283 	0.034709
43.11 	0.045828 	4255 	0.045553
43.13 	0.040595 	4237 	0.040042
43.15 	0.034475 	4206 	0.034057
43.17 	0.045465 	4179 	0.044905
43.19 	0.041726 	4194 	0.040749
43.21 	0.035954 	4172 	0.035533
43.23 	0.038517 	4154 	0.038094
43.25 	0.036518 	4135 	0.036093
43.27 	0.035323 	4105 	0.034609
43.29 	0.041220 	4100 	0.040791
43.31 	0.038245 	4079 	0.037670
43.33 	0.036534 	4051 	0.036534
43.35 	0.038938 	4032 	0.038648
43.37 	0.042590 	4015 	0.041569
43.39 	0.034483 	4002 	0.034336
43.41 	0.035247 	3972 	0.035099
43.43 	0.044444 	3960 	0.043853
43.45 	0.040915 	3935 	0.040295
43.47 	0.043866 	3921 	0.042970
43.49 	0.037208 	3897 	0.037058
43.51 	0.036368 	3877 	0.036368
43.53 	0.039607 	3863 	0.038697
43.55 	0.033063 	2964 	0.033063
43.57 	0.038427 	2238 	0.038165
43.59 	0.042383 	1746 	0.042047
43.61 	0.042931 	1351 	0.041993
43.63 	0.033966 	1001 	0.032796
43.65 	0.023290 	687 	0.023290
43.67 	0.037849 	502 	0.036682
43.69 	0.035422 	367 	0.033826
43.71 	0.033473 	239 	0.033473
43.73 	0.075000 	120 	0.075000
43.75 	0.000000 	16 	0.000000