File: Example_Data/25SC_s1_0042.002.dat
#F C:\frames\spec\25SC_s1_0042.002
#C title =s:42 frm:2 25SC_s1
#C wavelength =0.15406

#S 1  fr_average C:\frames\spec\25SC_s1_0042.002 C:\win32app\speccom\mask.axs chi 0 180 0 360 0.02
#C 2 theta =0.000000 to 180 deg
#C   q   =0.000000 to 81.568 nm^-1
#C  chi  =0.000000 to 360 deg
#C collumns:
#C  1 position (2theta or chi in degrees)
#C  2 average intensity (sum of all counts in the region divided with number of pixels)
#C  3 Number of pixels in region)
#C  4 error (sum of sqrt(intensity) for all pixels divided by number)
#N 4
#L TTh  Int  N_pix  Err
32.99 	0.049180 	61 	0.049180
33.01 	0.060710 	873 	0.058697
33.03 	0.063264 	1391 	0.062000
33.05 	0.056915 	1757 	0.055582
33.07 	0.065366 	2050 	0.064223
33.09 	0.061781 	2347 	0.060533
33.11 	0.056223 	2579 	0.055769
33.13 	0.058718 	2793 	0.057040
33.15 	0.052351 	2999 	0.051374
33.17 	0.059669 	3201 	0.058358
33.19 	0.061041 	3342 	0.059990
33.21 	0.054715 	3436 	0.053521
33.23 	0.063298 	3523 	0.061636
33.25 	0.060908 	3612 	0.060097
33.27 	0.056198 	3630 	0.055230
33.29 	0.055921 	3648 	0.054249
33.31 	0.056011 	3660 	0.054731
33.33 	0.057786 	3686 	0.056197
33.35 	0.058744 	3694 	0.057475
33.37 	0.056274 	3714 	0.055485
33.39 	0.067578 	3729 	0.066165
33.41 	0.058556 	3740 	0.057147
33.43 	0.060888 	3761 	0.059331
33.45 	0.060959 	3773 	0.060494
33.47 	0.061875 	3798 	0.060178
33.49 	0.055920 	3809 	0.054844
33.51 	0.054784 	3815 	0.054323
33.53 	0.057277 	3841 	0.056209
33.55 	0.058548 	3843 	0.058243
33.57 	0.058292 	3877 	0.056908
33.59 	0.057216 	3880 	0.056915
33.61 	0.059606 	3909 	0.058857
33.63 	0.065323 	3919 	0.064276
33.65 	0.053930 	3931 	0.053161
33.67 	0.060445 	3954 	0.059704
33.69 	0.069314 	3953 	0.068277
33.71 	0.059371 	3975 	0.058782
33.73 	0.056943 	4004 	0.056065
33.75 	0.067767 	3999 	0.065546
33.77 	0.062112 	4025 	0.061384
33.79 	0.055927 	4041 	0.054743
33.81 	0.058692 	4038 	0.057387
33.83 	0.063951 	4050 	0.062504
33.85 	0.051232 	4099 	0.050946
33.87 	0.053515 	4111 	0.052518
33.89 	0.050473 	4121 	0.050189
33.91 	0.060979 	4149 	0.060131
33.93 	0.052758 	4151 	0.051771
33.95 	0.058359 	4181 	0.057238
33.97 	0.059905 	4190 	0.058506
33.99 	0.055000 	4200 	0.054303
34.01 	0.065512 	4213 	0.063820
34.03 	0.050895 	4244 	0.050067
34.05 	0.049859 	4252 	0.049446
34.07 	0.061387 	4268 	0.059832
34.09 	0.056930 	4286 	0.056109
34.11 	0.059042 	4302 	0.058225
34.13 	0.058264 	4308 	0.057289
34.15 	0.055645 	4331 	0.054834
34.17 	0.055862 	4350 	0.054919
34.19 	0.054104 	4362 	0.053298
34.21 	0.058568 	4371 	0.057496
34.23 	0.060096 	4393 	0.058762
34.25 	0.052225 	4404 	0.051560
34.27 	0.052691 	4422 	0.051499
34.29 	0.057723 	4435 	0.056116
34.31 	0.054957 	4458 	0.053906
34.33 	0.062849 	4471 	0.062194
34.35 	0.060437 	4484 	0.059784
34.37 	0.059452 	4491 	0.058409
34.39 	0.053754 	4502 	0.053494
34.41 	0.059655 	4526 	0.058232
34.43 	0.057722 	4539 	0.056819
34.45 	0.055127 	4535 	0.054739
34.47 	0.057709 	4592 	0.057199
34.49 	0.052208 	4597 	0.051443
34.51 	0.059053 	4606 	0.058290
34.53 	0.057937 	4643 	0.056927
34.55 	0.060737 	4643 	0.059601
34.57 	0.062232 	4660 	0.061226
34.59 	0.058824 	4675 	0.057425
34.61 	0.053225 	4697 	0.052976
34.63 	0.054989 	4710 	0.054243
34.65 	0.056344 	4721 	0.055475
34.67 	0.052731 	4741 	0.051990
34.69 	0.057425 	4754 	0.056173
34.71 	0.056022 	4766 	0.055530
34.73 	0.052851 	4787 	0.052607
34.75 	0.059484 	4808 	0.059119
34.77 	0.060606 	4818 	0.059877
34.79 	0.055763 	4824 	0.055399
34.81 	0.057379 	4845 	0.056412
34.83 	0.055533 	4862 	0.054930
34.85 	0.054426 	4869 	0.053945
34.87 	0.056902 	4868 	0.055579
34.89 	0.055920 	4882 	0.055320
34.91 	0.058378 	4882 	0.057658
34.93 	0.052256 	4899 	0.051897
34.95 	0.057669 	4890 	0.056710
34.97 	0.055080 	4902 	0.054482
34.99 	0.059016 	4897 	0.057939
35.01 	0.054235 	4923 	0.053640
35.03 	0.055027 	4943 	0.054672
35.05 	0.054376 	4947 	0.053666
35.07 	0.058704 	4940 	0.057993
35.09 	0.059964 	4953 	0.058880
35.11 	0.057004 	4947 	0.055564
35.13 	0.061920 	4958 	0.060857
35.15 	0.055499 	4937 	0.054906
35.17 	0.060049 	4946 	0.058627
35.19 	0.061716 	4942 	0.060768
35.21 	0.050758 	4945 	0.050285
35.23 	0.053185 	4945 	0.052356
35.25 	0.064131 	4943 	0.063420
35.27 	0.057599 	4948 	0.056652
35.29 	0.057230 	4945 	0.055690
35.31 	0.056355 	4933 	0.055643
35.33 	0.060085 	4943 	0.059137
35.35 	0.058883 	4942 	0.057797
35.37 	0.056894 	4939 	0.056182
35.39 	0.052983 	4945 	0.052272
35.41 	0.061510 	4926 	0.060678
35.43 	0.056558 	4933 	0.056083
35.45 	0.061171 	4937 	0.060459
35.47 	0.062868 	4931 	0.062155
35.49 	0.051527 	4910 	0.050454
35.51 	0.058059 	4926 	0.057207
35.53 	0.056173 	4949 	0.055108
35.55 	0.052174 	4945 	0.051582
35.57 	0.054531 	4933 	0.053699
35.59 	0.059656 	4945 	0.058808
35.61 	0.051801 	4942 	0.050734
35.63 	0.050577 	4943 	0.049984
35.65 	0.055410 	4945 	0.054205
35.67 	0.053217 	4942 	0.052625
35.69 	0.061868 	4946 	0.060921
35.71 	0.048005 	4937 	0.047293
35.73 	0.056321 	4936 	0.054897
35.75 	0.062259 	4931 	0.061665
35.77 	0.052919 	4951 	0.051854
35.79 	0.057786 	4932 	0.057311
35.81 	0.053923 	4933 	0.053210
35.83 	0.054387 	4946 	0.054151
35.85 	0.062006 	4935 	0.061056
35.87 	0.054641 	4923 	0.053928
35.89 	0.057154 	4934 	0.056304
35.91 	0.061701 	4927 	0.060869
35.93 	0.058047 	4927 	0.056482
35.95 	0.060809 	4917 	0.059737
35.97 	0.057207 	4912 	0.056611
35.99 	0.056287 	4939 	0.055456
36.01 	0.059635 	4930 	0.058803
36.03 	0.058062 	4943 	0.057331
36.05 	0.055612 	4945 	0.054309
36.07 	0.053250 	4939 	0.052657
36.09 	0.058704 	4940 	0.057044
36.11 	0.053763 	4929 	0.052793
36.13 	0.056657 	4942 	0.055709
36.15 	0.058311 	4939 	0.057718
36.17 	0.057868 	4925 	0.057016
36.19 	0.055061 	4940 	0.054349
36.21 	0.054372 	4929 	0.053302
36.23 	0.057953 	4935 	0.057479
36.25 	0.054442 	4941 	0.053731
36.27 	0.051777 	4925 	0.050944
36.29 	0.058203 	4931 	0.057609
36.31 	0.052963 	4928 	0.052249
36.33 	0.058382 	4933 	0.057789
36.35 	0.058227 	4929 	0.057514
36.37 	0.060532 	4923 	0.059204
36.39 	0.059134 	4921 	0.058301
36.41 	0.054126 	4896 	0.053528
36.43 	0.059456 	4928 	0.058743
36.45 	0.057606 	4930 	0.056775
36.47 	0.052472 	4936 	0.052116
36.49 	0.055443 	4942 	0.055088
36.51 	0.051895 	4933 	0.051064
36.53 	0.059478 	4943 	0.058886
36.55 	0.061498 	4927 	0.060527
36.57 	0.052088 	4934 	0.051375
36.59 	0.048188 	4939 	0.047476
36.61 	0.051308 	4931 	0.050001
36.63 	0.060231 	4931 	0.059043
36.65 	0.053933 	4932 	0.052489
36.67 	0.050913 	4930 	0.050319
36.69 	0.058227 	4929 	0.057514
36.71 	0.053241 	4921 	0.052269
36.73 	0.053807 	4925 	0.052360
36.75 	0.048544 	4944 	0.047714
36.77 	0.055092 	4919 	0.054378
36.79 	0.052835 	4921 	0.052220
36.81 	0.059805 	4916 	0.058017
36.83 	0.051475 	4915 	0.050879
36.85 	0.054512 	4898 	0.053436
36.87 	0.056230 	4944 	0.055400
36.89 	0.056347 	4916 	0.055751
36.91 	0.047966 	4941 	0.047610
36.93 	0.057606 	4930 	0.057131
36.95 	0.055747 	4933 	0.055272
36.97 	0.049655 	4934 	0.048706
36.99 	0.054711 	4935 	0.053762
37.01 	0.055342 	4933 	0.054323
37.03 	0.057474 	4924 	0.056740
37.05 	0.047899 	4927 	0.046829
37.07 	0.050861 	4935 	0.050149
37.09 	0.056209 	4928 	0.055258
37.11 	0.047619 	4935 	0.047144
37.13 	0.058083 	4924 	0.056616
37.15 	0.060705 	4909 	0.059392
37.17 	0.054114 	4934 	0.053283
37.19 	0.049949 	4925 	0.049592
37.21 	0.055115 	4917 	0.054043
37.23 	0.050427 	4918 	0.049712
37.25 	0.054979 	4911 	0.053786
37.27 	0.055783 	4894 	0.054945
37.29 	0.055375 	4930 	0.054306
37.31 	0.054103 	4935 	0.053035
37.33 	0.049929 	4927 	0.049216
37.35 	0.051640 	4938 	0.050553
37.37 	0.051350 	4927 	0.050280
37.39 	0.049686 	4931 	0.048735
37.41 	0.054147 	4931 	0.053197
37.43 	0.054542 	4932 	0.053235
37.45 	0.049756 	4924 	0.049043
37.47 	0.051329 	4929 	0.050477
37.49 	0.057079 	4923 	0.056008
37.51 	0.047638 	4933 	0.047045
37.53 	0.052856 	4919 	0.052023
37.55 	0.050101 	4930 	0.049270
37.57 	0.053401 	4925 	0.053044
37.59 	0.057375 	4915 	0.055926
37.61 	0.056278 	4922 	0.055921
37.63 	0.048994 	4919 	0.048398
37.65 	0.053070 	4918 	0.052356
37.67 	0.048328 	4904 	0.047492
37.69 	0.054920 	4898 	0.054083
37.71 	0.052546 	4929 	0.052190
37.73 	0.053966 	4929 	0.053491
37.75 	0.053441 	4940 	0.052848
37.77 	0.051423 	4920 	0.050947
37.79 	0.058012 	4930 	0.056943
37.81 	0.043787 	4933 	0.043312
37.83 	0.054065 	4920 	0.053470
37.85 	0.053434 	4922 	0.052481
37.87 	0.052237 	4939 	0.051526
37.89 	0.055838 	4925 	0.054886
37.91 	0.051521 	4930 	0.050571
37.93 	0.054279 	4919 	0.054041
37.95 	0.054054 	4921 	0.052983
37.97 	0.056604 	4929 	0.055277
37.99 	0.052932 	4912 	0.051978
38.01 	0.062094 	4928 	0.060787
38.03 	0.048279 	4909 	0.047324
38.05 	0.060914 	4925 	0.060200
38.07 	0.055408 	4909 	0.054573
38.09 	0.052276 	4878 	0.051195
38.11 	0.050051 	4935 	0.049576
38.13 	0.053474 	4937 	0.052762
38.15 	0.049207 	4918 	0.048611
38.17 	0.057404 	4930 	0.056691
38.19 	0.056187 	4930 	0.055593
38.21 	0.051595 	4923 	0.050405
38.23 	0.055488 	4938 	0.054420
38.25 	0.058572 	4917 	0.057738
38.27 	0.055375 	4930 	0.054544
38.29 	0.057880 	4924 	0.057166
38.31 	0.059062 	4927 	0.057715
38.33 	0.059504 	4924 	0.058553
38.35 	0.058442 	4928 	0.056777
38.37 	0.060723 	4924 	0.059038
38.39 	0.066612 	4909 	0.065658
38.41 	0.069470 	4923 	0.067209
38.43 	0.068145 	4916 	0.067192
38.45 	0.068524 	4918 	0.067214
38.47 	0.060526 	4907 	0.059810
38.49 	0.064794 	4877 	0.063713
38.51 	0.067924 	4932 	0.066004
38.53 	0.061270 	4929 	0.059844
38.55 	0.066653 	4936 	0.065466
38.57 	0.064392 	4923 	0.062845
38.59 	0.056255 	4924 	0.055422
38.61 	0.060170 	4936 	0.058746
38.63 	0.063972 	4924 	0.062783
38.65 	0.066287 	4918 	0.064977
38.67 	0.053474 	4937 	0.052643
38.69 	0.057497 	4922 	0.056168
38.71 	0.054021 	4924 	0.053069
38.73 	0.059374 	4918 	0.058421
38.75 	0.057642 	4927 	0.056096
38.77 	0.054032 	4923 	0.053675
38.79 	0.053709 	4934 	0.052740
38.81 	0.049267 	4912 	0.048909
38.83 	0.046554 	4919 	0.045601
38.85 	0.046010 	4912 	0.045294
38.87 	0.044390 	4911 	0.044271
38.89 	0.056361 	4897 	0.055763
38.91 	0.054456 	4903 	0.054098
38.93 	0.048198 	4938 	0.047605
38.95 	0.044327 	4918 	0.043851
38.97 	0.051511 	4931 	0.051154
38.99 	0.049625 	4937 	0.049032
39.01 	0.047784 	4918 	0.047426
39.03 	0.045399 	4934 	0.044687
39.05 	0.045482 	4925 	0.045125
39.07 	0.049553 	4924 	0.049196
39.09 	0.048751 	4923 	0.046827
39.11 	0.044210 	4931 	0.043597
39.13 	0.042657 	4923 	0.042062
39.15 	0.045371 	4915 	0.044656
39.17 	0.044359 	4937 	0.043766
39.19 	0.048810 	4917 	0.048195
39.21 	0.047454 	4910 	0.046380
39.23 	0.043655 	4925 	0.042941
39.25 	0.045307 	4922 	0.044712
39.27 	0.038697 	4910 	0.037742
39.29 	0.045093 	4901 	0.044376
39.31 	0.046069 	4884 	0.045469
39.33 	0.051308 	4931 	0.050239
39.35 	0.047416 	4935 	0.046467
39.37 	0.047677 	4929 	0.047202
39.39 	0.041591 	4929 	0.040996
39.41 	0.048266 	4931 	0.047672
39.43 	0.045611 	4933 	0.044899
39.45 	0.045076 	4925 	0.044481
39.47 	0.041235 	4923 	0.040402
39.49 	0.048247 	4933 	0.047297
39.51 	0.040211 	4924 	0.039378
39.53 	0.046516 	4923 	0.045921
39.55 	0.045334 	4919 	0.044739
39.57 	0.039935 	4933 	0.039341
39.59 	0.044992 	4912 	0.044515
39.61 	0.045907 	4923 	0.045193
39.63 	0.045510 	4922 	0.044796
39.65 	0.045067 	4926 	0.044472
39.67 	0.044779 	4913 	0.044302
39.69 	0.043735 	4916 	0.043258
39.71 	0.049030 	4895 	0.047713
39.73 	0.046047 	4908 	0.045689
39.75 	0.049107 	4928 	0.048275
39.77 	0.049240 	4935 	0.048647
39.79 	0.048315 	4926 	0.047720
39.81 	0.044043 	4927 	0.043686
39.83 	0.049047 	4934 	0.048216
39.85 	0.044246 	4927 	0.043652
39.87 	0.045076 	4925 	0.044244
39.89 	0.046413 	4934 	0.045938
39.91 	0.050792 	4922 	0.050078
39.93 	0.046992 	4937 	0.046399
39.95 	0.044964 	4915 	0.044607
39.97 	0.044440 	4928 	0.044083
39.99 	0.050081 	4932 	0.049368
40.01 	0.045750 	4918 	0.045512
40.03 	0.043019 	4928 	0.042544
40.05 	0.043929 	4917 	0.043691
40.07 	0.043469 	4923 	0.042874
40.09 	0.039666 	4916 	0.039190
40.11 	0.041904 	4916 	0.041308
40.13 	0.045547 	4896 	0.044710
40.15 	0.044779 	4913 	0.044183
40.17 	0.043425 	4928 	0.042474
40.19 	0.048083 	4929 	0.047370
40.21 	0.042958 	4935 	0.042246
40.23 	0.042782 	4932 	0.042307
40.25 	0.041667 	4920 	0.041429
40.27 	0.044156 	4937 	0.043919
40.29 	0.044652 	4927 	0.044295
40.31 	0.040899 	4939 	0.040306
40.33 	0.047242 	4932 	0.046649
40.35 	0.045131 	4919 	0.044059
40.37 	0.049503 	4929 	0.048433
40.39 	0.043399 	4931 	0.042924
40.41 	0.041827 	4925 	0.041451
40.43 	0.043681 	4922 	0.043324
40.45 	0.047030 	4933 	0.046080
40.47 	0.046564 	4918 	0.045948
40.49 	0.044255 	4926 	0.044017
40.51 	0.042462 	4922 	0.042105
40.53 	0.042107 	4916 	0.041273
40.55 	0.045844 	4908 	0.045127
40.57 	0.039468 	4890 	0.038251
40.59 	0.040308 	4937 	0.039833
40.61 	0.037082 	4935 	0.036845
40.63 	0.047870 	4930 	0.047514
40.65 	0.042131 	4937 	0.041656
40.67 	0.042985 	4932 	0.042628
40.69 	0.043144 	4937 	0.042669
40.71 	0.040754 	4932 	0.040279
40.73 	0.043240 	4926 	0.042883
40.75 	0.039951 	4931 	0.039476
40.77 	0.043734 	4939 	0.043378
40.79 	0.040820 	4924 	0.040107
40.81 	0.040478 	4941 	0.039411
40.83 	0.042411 	4928 	0.042054
40.85 	0.045695 	4924 	0.045100
40.87 	0.044643 	4928 	0.043930
40.89 	0.041168 	4931 	0.040693
40.91 	0.033922 	4923 	0.033803
40.93 	0.042359 	4934 	0.041627
40.95 	0.043151 	4913 	0.042793
40.97 	0.040414 	4924 	0.040295
40.99 	0.040008 	4924 	0.039651
41.01 	0.041124 	4912 	0.040766
41.03 	0.039551 	4905 	0.038596
41.05 	0.041532 	4936 	0.041176
41.07 	0.045233 	4930 	0.044877
41.09 	0.038469 	4939 	0.038114
41.11 	0.045390 	4935 	0.044678
41.13 	0.044773 	4936 	0.043942
41.15 	0.035418 	4941 	0.035181
41.17 	0.044994 	4934 	0.044519
41.19 	0.043205 	4930 	0.043086
41.21 	0.036864 	4937 	0.036627
41.23 	0.038267 	4939 	0.038267
41.25 	0.042368 	4933 	0.041893
41.27 	0.036909 	4931 	0.036553
41.29 	0.047281 	4928 	0.046687
41.31 	0.040746 	4933 	0.040152
41.33 	0.044359 	4937 	0.043647
41.35 	0.039287 	4938 	0.038457
41.37 	0.042648 	4924 	0.042529
41.39 	0.043989 	4933 	0.043158
41.41 	0.045676 	4926 	0.045319
41.43 	0.043214 	4929 	0.042857
41.45 	0.042939 	4914 	0.042343
41.47 	0.045067 	4926 	0.044591
41.49 	0.041087 	4892 	0.040968
41.51 	0.041498 	4940 	0.041261
41.53 	0.040858 	4944 	0.040621
41.55 	0.041135 	4935 	0.040660
41.57 	0.040478 	4941 	0.039628
41.59 	0.045408 	4933 	0.044696
41.61 	0.039572 	4953 	0.039454
41.63 	0.044350 	4938 	0.043757
41.65 	0.039765 	4929 	0.039646
41.67 	0.044332 	4940 	0.043383
41.69 	0.039014 	4947 	0.038777
41.71 	0.039927 	4934 	0.039571
41.73 	0.038493 	4936 	0.038018
41.75 	0.037533 	4929 	0.037533
41.77 	0.041085 	4941 	0.040611
41.79 	0.041060 	4944 	0.040230
41.81 	0.041937 	4936 	0.041581
41.83 	0.040787 	4928 	0.040193
41.85 	0.038874 	4939 	0.038518
41.87 	0.042148 	4935 	0.041297
41.89 	0.044192 	4933 	0.043717
41.91 	0.040316 	4936 	0.039723
41.93 	0.041363 	4932 	0.040412
41.95 	0.039140 	4931 	0.039021
41.97 	0.042735 	4914 	0.042497
41.99 	0.039144 	4905 	0.038785
42.01 	0.045326 	4942 	0.044378
42.03 	0.031383 	4939 	0.030671
42.05 	0.037763 	4952 	0.037289
42.07 	0.042333 	4937 	0.041621
42.09 	0.044260 	4948 	0.043787
42.11 	0.034580 	4945 	0.034462
42.13 	0.034783 	4945 	0.034427
42.15 	0.032199 	4938 	0.032199
42.17 	0.043107 	4918 	0.042750
42.19 	0.040750 	4908 	0.040272
42.21 	0.041216 	4901 	0.040858
42.23 	0.039657 	4892 	0.039297
42.25 	0.039272 	4889 	0.038793
42.27 	0.045753 	4874 	0.045392
42.29 	0.040099 	4863 	0.039376
42.31 	0.040989 	4855 	0.040023
42.33 	0.041994 	4834 	0.041267
42.35 	0.038032 	4838 	0.037911
42.37 	0.037060 	4830 	0.036696
42.39 	0.036636 	4804 	0.036148
42.41 	0.037885 	4804 	0.037519
42.43 	0.034432 	4792 	0.034188
42.45 	0.035804 	4776 	0.035436
42.47 	0.044071 	4765 	0.043457
42.49 	0.041133 	4765 	0.040273
42.51 	0.036475 	4743 	0.036351
42.53 	0.039975 	4728 	0.039479
42.55 	0.040994 	4708 	0.040745
42.57 	0.038901 	4730 	0.038653
42.59 	0.038909 	4729 	0.038413
42.61 	0.041206 	4708 	0.040709
42.63 	0.039499 	4709 	0.039250
42.65 	0.040768 	4685 	0.040768
42.67 	0.040564 	4684 	0.040314
42.69 	0.039581 	4674 	0.038829
42.71 	0.039031 	4663 	0.038151
42.73 	0.038578 	4640 	0.038199
42.75 	0.040502 	4617 	0.039995
42.77 	0.046304 	4600 	0.045413
42.79 	0.042558 	4582 	0.041791
42.81 	0.038799 	4562 	0.037900
42.83 	0.035935 	4536 	0.035676
42.85 	0.041740 	4528 	0.041352
42.87 	0.039342 	4499 	0.038821
42.89 	0.036607 	4480 	0.036215
42.91 	0.039048 	4456 	0.038523
42.93 	0.040261 	4446 	0.039866
42.95 	0.035326 	4416 	0.034795
42.97 	0.036810 	4401 	0.036544
42.99 	0.041277 	4385 	0.040743
43.01 	0.040339 	4363 	0.040071
43.03 	0.038772 	4333 	0.038231
43.05 	0.037919 	4325 	0.037377
43.07 	0.036080 	4296 	0.035807
43.09 	0.044361 	4283 	0.043814
43.11 	0.040893 	4255 	0.040618
43.13 	0.035166 	4237 	0.034752
43.15 	0.039467 	4206 	0.039328
43.17 	0.043312 	4179 	0.043031
43.19 	0.042442 	4194 	0.042023
43.21 	0.041707 	4172 	0.041145
43.23 	0.038758 	4154 	0.038476
43.25 	0.041354 	4135 	0.041071
43.27 	0.038733 	4105 	0.038448
43.29 	0.038049 	4100 	0.037906
43.31 	0.040206 	4079 	0.039919
43.33 	0.041224 	4051 	0.040935
43.35 	0.041171 	4032 	0.040590
43.37 	0.044085 	4015 	0.043355
43.39 	0.029485 	4002 	0.029193
43.41 	0.038771 	3972 	0.038034
43.43 	0.038889 	3960 	0.038445
43.45 	0.038374 	3935 	0.038076
43.47 	0.041316 	3921 	0.041017
43.49 	0.041314 	3897 	0.040863
43.51 	0.039464 	3877 	0.038708
43.53 	0.037794 	3863 	0.037036
43.55 	0.041835 	2964 	0.041242
43.57 	0.035746 	2238 	0.035223
43.59 	0.038946 	1746 	0.038946
43.61 	0.038490 	1351 	0.038490
43.63 	0.033966 	1001 	0.033381
43.65 	0.048035 	687 	0.048035
43.67 	0.043825 	502 	0.043825
43.69 	0.049046 	367 	0.045854
43.71 	0.025105 	239 	0.025105
43.73 	0.008333 	120 	0.008333
43.75 	0.000000 	16 	0.000000