File: Example_Data/25SC_s1_0052.008.dat
#F C:\frames\spec\25SC_s1_0052.008
#C title =s:52 frm:8 25SC_s1
#C wavelength =0.15406

#S 1  fr_average C:\frames\spec\25SC_s1_0052.008 C:\win32app\speccom\mask.axs chi 0 180 0 360 0.02
#C 2 theta =0.000000 to 180 deg
#C   q   =0.000000 to 81.568 nm^-1
#C  chi  =0.000000 to 360 deg
#C collumns:
#C  1 position (2theta or chi in degrees)
#C  2 average intensity (sum of all counts in the region divided with number of pixels)
#C  3 Number of pixels in region)
#C  4 error (sum of sqrt(intensity) for all pixels divided by number)
#N 4
#L TTh  Int  N_pix  Err
32.99 	0.049180 	61 	0.049180
33.01 	0.084765 	873 	0.083423
33.03 	0.076923 	1391 	0.076081
33.05 	0.079112 	1757 	0.078445
33.07 	0.072683 	2050 	0.071207
33.09 	0.064337 	2347 	0.063090
33.11 	0.074060 	2579 	0.072432
33.13 	0.074472 	2793 	0.072130
33.15 	0.077359 	2999 	0.075406
33.17 	0.074664 	3201 	0.071919
33.19 	0.066427 	3342 	0.065025
33.21 	0.073341 	3436 	0.070926
33.23 	0.070111 	3523 	0.068254
33.25 	0.072536 	3612 	0.070266
33.27 	0.069421 	3630 	0.067969
33.29 	0.070724 	3648 	0.070081
33.31 	0.070492 	3660 	0.069211
33.33 	0.074878 	3686 	0.072971
33.35 	0.072821 	3694 	0.071368
33.37 	0.061928 	3714 	0.060666
33.39 	0.070260 	3729 	0.068689
33.41 	0.076471 	3740 	0.074748
33.43 	0.061154 	3761 	0.060531
33.45 	0.077657 	3773 	0.076104
33.47 	0.069774 	3798 	0.068540
33.49 	0.081386 	3809 	0.079848
33.51 	0.071035 	3815 	0.069961
33.53 	0.078105 	3841 	0.076402
33.55 	0.076763 	3843 	0.074629
33.57 	0.072479 	3877 	0.070817
33.59 	0.067010 	3880 	0.065803
33.61 	0.078281 	3909 	0.076932
33.63 	0.073233 	3919 	0.072187
33.65 	0.067158 	3931 	0.065817
33.67 	0.063227 	3954 	0.062635
33.69 	0.070832 	3953 	0.069647
33.71 	0.071195 	3975 	0.069869
33.73 	0.067682 	4004 	0.066658
33.75 	0.072768 	3999 	0.071157
33.77 	0.069317 	4025 	0.068298
33.79 	0.071764 	4041 	0.070581
33.81 	0.070579 	4038 	0.068960
33.83 	0.066173 	4050 	0.064992
33.85 	0.071969 	4099 	0.071254
33.87 	0.067867 	4111 	0.066727
33.89 	0.062849 	4121 	0.061570
33.91 	0.066281 	4149 	0.065575
33.93 	0.067935 	4151 	0.067089
33.95 	0.066970 	4181 	0.065686
33.97 	0.065632 	4190 	0.064491
33.99 	0.070476 	4200 	0.068663
34.01 	0.072395 	4213 	0.070726
34.03 	0.068803 	4244 	0.066986
34.05 	0.071261 	4252 	0.069171
34.07 	0.066542 	4268 	0.065169
34.09 	0.063929 	4286 	0.062562
34.11 	0.068805 	4302 	0.067013
34.13 	0.071031 	4308 	0.068855
34.15 	0.060263 	4331 	0.059046
34.17 	0.070575 	4350 	0.069632
34.19 	0.073590 	4362 	0.072091
34.21 	0.068405 	4371 	0.067311
34.23 	0.066697 	4393 	0.065764
34.25 	0.071072 	4404 	0.069742
34.27 	0.069426 	4422 	0.068609
34.29 	0.067193 	4435 	0.065718
34.31 	0.073800 	4458 	0.071829
34.33 	0.067323 	4471 	0.065882
34.35 	0.072703 	4484 	0.071266
34.37 	0.067691 	4491 	0.066387
34.39 	0.064194 	4502 	0.063153
34.41 	0.067830 	4526 	0.066536
34.43 	0.077991 	4539 	0.076271
34.45 	0.075193 	4535 	0.073105
34.47 	0.065331 	4592 	0.063418
34.49 	0.075049 	4597 	0.073392
34.51 	0.071211 	4606 	0.069177
34.53 	0.066983 	4643 	0.065342
34.55 	0.079259 	4643 	0.077114
34.57 	0.068455 	4660 	0.067826
34.59 	0.066524 	4675 	0.065752
34.61 	0.073025 	4697 	0.071882
34.63 	0.068577 	4710 	0.067209
34.65 	0.065029 	4721 	0.063664
34.67 	0.070027 	4741 	0.068010
34.69 	0.075305 	4754 	0.073663
34.71 	0.079731 	4766 	0.078871
34.73 	0.070817 	4787 	0.069593
34.75 	0.070092 	4808 	0.068995
34.77 	0.064342 	4818 	0.063106
34.79 	0.068201 	4824 	0.066986
34.81 	0.068731 	4845 	0.067401
34.83 	0.068696 	4862 	0.067592
34.85 	0.074759 	4869 	0.073195
34.87 	0.072309 	4868 	0.070865
34.89 	0.065137 	4882 	0.063298
34.91 	0.068824 	4882 	0.067984
34.93 	0.072464 	4899 	0.070431
34.95 	0.074847 	4890 	0.072930
34.97 	0.068747 	4902 	0.067791
34.99 	0.069839 	4897 	0.068164
35.01 	0.068048 	4923 	0.066858
35.03 	0.067773 	4943 	0.066588
35.05 	0.074793 	4947 	0.073135
35.07 	0.077733 	4940 	0.076547
35.09 	0.071068 	4953 	0.069767
35.11 	0.066909 	4947 	0.066317
35.13 	0.075837 	4958 	0.074656
35.15 	0.070286 	4937 	0.069080
35.17 	0.079054 	4946 	0.076902
35.19 	0.076083 	4942 	0.074285
35.21 	0.076036 	4945 	0.074970
35.23 	0.068959 	4945 	0.067162
35.25 	0.063929 	4943 	0.062606
35.27 	0.068917 	4948 	0.068443
35.29 	0.071992 	4945 	0.070551
35.31 	0.073181 	4933 	0.071499
35.33 	0.067773 	4943 	0.066469
35.35 	0.070012 	4942 	0.069064
35.37 	0.074509 	4939 	0.072849
35.39 	0.069161 	4945 	0.067976
35.41 	0.072473 	4926 	0.070689
35.43 	0.071964 	4933 	0.070777
35.45 	0.071096 	4937 	0.069435
35.47 	0.066924 	4931 	0.065617
35.49 	0.069450 	4910 	0.068257
35.51 	0.063743 	4926 	0.062673
35.53 	0.066276 	4949 	0.064836
35.55 	0.064105 	4945 	0.062802
35.57 	0.060612 	4933 	0.060018
35.59 	0.064105 	4945 	0.062802
35.61 	0.067179 	4942 	0.066112
35.63 	0.071414 	4943 	0.070466
35.65 	0.065116 	4945 	0.064287
35.67 	0.068393 	4942 	0.066971
35.69 	0.069349 	4946 	0.067691
35.71 	0.068058 	4937 	0.066752
35.73 	0.068476 	4936 	0.066934
35.75 	0.075644 	4931 	0.073506
35.77 	0.066249 	4951 	0.065066
35.79 	0.064071 	4932 	0.063478
35.81 	0.064667 	4933 	0.063717
35.83 	0.065305 	4946 	0.063490
35.85 	0.061398 	4935 	0.060211
35.87 	0.069876 	4923 	0.068924
35.89 	0.065869 	4934 	0.064564
35.91 	0.068196 	4927 	0.066769
35.93 	0.068196 	4927 	0.066888
35.95 	0.065284 	4917 	0.063258
35.97 	0.071050 	4912 	0.069004
35.99 	0.067423 	4939 	0.065861
36.01 	0.069168 	4930 	0.068099
36.03 	0.063120 	4943 	0.062290
36.05 	0.069565 	4945 	0.068381
36.07 	0.062361 	4939 	0.061531
36.09 	0.075101 	4940 	0.073659
36.11 	0.058633 	4929 	0.057801
36.13 	0.065763 	4942 	0.064795
36.15 	0.073294 	4939 	0.071397
36.17 	0.067208 	4925 	0.066257
36.19 	0.070850 	4940 	0.069546
36.21 	0.065936 	4929 	0.064471
36.23 	0.070111 	4935 	0.068568
36.25 	0.068407 	4941 	0.067459
36.27 	0.075939 	4925 	0.074393
36.29 	0.074833 	4931 	0.072932
36.31 	0.064529 	4928 	0.063697
36.33 	0.068924 	4933 	0.067717
36.35 	0.063705 	4929 	0.062635
36.37 	0.066017 	4923 	0.065422
36.39 	0.070311 	4921 	0.069478
36.41 	0.063317 	4896 	0.062240
36.43 	0.065341 	4928 	0.064271
36.45 	0.072211 	4930 	0.070409
36.47 	0.061994 	4936 	0.061637
36.49 	0.067786 	4942 	0.066008
36.51 	0.069126 	4933 	0.067820
36.53 	0.065345 	4943 	0.064278
36.55 	0.069008 	4927 	0.067462
36.57 	0.064045 	4934 	0.063195
36.59 	0.065398 	4939 	0.063856
36.61 	0.066518 	4931 	0.065686
36.63 	0.061042 	4931 	0.059854
36.65 	0.075831 	4932 	0.074129
36.67 	0.070588 	4930 	0.069519
36.69 	0.066951 	4929 	0.065643
36.71 	0.069295 	4921 	0.067490
36.73 	0.067005 	4925 	0.066410
36.75 	0.066748 	4944 	0.065444
36.77 	0.065867 	4919 	0.064538
36.79 	0.073562 	4921 	0.071896
36.81 	0.074044 	4916 	0.072495
36.83 	0.067752 	4915 	0.066322
36.85 	0.066762 	4898 	0.065925
36.87 	0.067354 	4944 	0.066406
36.89 	0.065094 	4916 	0.063882
36.91 	0.074074 	4941 	0.072889
36.93 	0.062272 	4930 	0.061678
36.95 	0.062234 	4933 	0.061046
36.97 	0.067694 	4934 	0.066744
36.99 	0.063222 	4935 	0.061441
37.01 	0.071356 	4933 	0.069674
37.03 	0.063972 	4924 	0.062307
37.05 	0.064542 	4927 	0.062977
37.07 	0.069098 	4935 	0.067436
37.09 	0.072849 	4928 	0.071066
37.11 	0.063222 	4935 	0.062272
37.13 	0.065191 	4924 	0.063863
37.15 	0.070890 	4909 	0.068981
37.17 	0.061005 	4934 	0.060293
37.19 	0.060508 	4925 	0.059080
37.21 	0.063657 	4917 	0.061493
37.23 	0.062017 	4918 	0.061064
37.25 	0.058033 	4911 	0.057437
37.27 	0.063547 	4894 	0.062311
37.29 	0.059635 	4930 	0.057952
37.31 	0.064640 	4935 	0.063453
37.33 	0.067993 	4927 	0.066784
37.35 	0.068651 	4938 	0.066990
37.37 	0.063933 	4927 	0.063101
37.39 	0.059826 	4931 	0.058756
37.41 	0.070980 	4931 	0.069416
37.43 	0.062044 	4932 	0.061331
37.45 	0.066206 	4924 	0.065612
37.47 	0.065936 	4929 	0.064391
37.49 	0.058501 	4923 	0.057787
37.51 	0.066491 	4933 	0.065066
37.53 	0.067087 	4919 	0.065777
37.55 	0.064503 	4930 	0.063315
37.57 	0.061117 	4925 	0.060403
37.59 	0.068159 	4915 	0.067086
37.61 	0.062576 	4922 	0.061009
37.63 	0.062004 	4919 	0.060695
37.65 	0.067710 	4918 	0.066500
37.67 	0.068108 	4904 	0.066316
37.69 	0.071866 	4898 	0.070790
37.71 	0.066139 	4929 	0.064931
37.73 	0.062690 	4929 	0.061264
37.75 	0.062348 	4940 	0.061143
37.77 	0.069106 	4920 	0.068034
37.79 	0.060041 	4930 	0.058971
37.81 	0.065275 	4933 	0.063493
37.83 	0.064837 	4920 	0.063389
37.85 	0.061357 	4922 	0.059691
37.87 	0.063778 	4939 	0.062948
37.89 	0.061929 	4925 	0.060977
37.91 	0.060446 	4930 	0.059496
37.93 	0.063631 	4919 	0.062797
37.95 	0.062792 	4921 	0.061245
37.97 	0.062082 	4929 	0.061250
37.99 	0.064943 	4912 	0.064108
38.01 	0.056412 	4928 	0.055461
38.03 	0.066816 	4909 	0.065503
38.05 	0.070254 	4925 	0.068232
38.07 	0.060705 	4909 	0.059492
38.09 	0.063756 	4878 	0.062435
38.11 	0.063019 	4935 	0.062426
38.13 	0.069678 	4937 	0.068135
38.15 	0.069337 	4918 	0.067670
38.17 	0.063489 	4930 	0.062301
38.19 	0.068154 	4930 	0.066966
38.21 	0.066017 	4923 	0.064589
38.23 	0.061766 	4938 	0.060698
38.25 	0.062436 	4917 	0.061483
38.27 	0.068763 	4930 	0.066980
38.29 	0.068237 	4924 	0.066810
38.31 	0.057439 	4927 	0.056725
38.33 	0.072908 	4924 	0.071342
38.35 	0.075893 	4928 	0.074466
38.37 	0.072705 	4924 	0.071753
38.39 	0.067835 	4909 	0.066522
38.41 	0.077798 	4923 	0.075537
38.43 	0.067941 	4916 	0.066392
38.45 	0.075234 	4918 	0.073090
38.47 	0.071327 	4907 	0.069775
38.49 	0.072176 	4877 	0.070474
38.51 	0.076440 	4932 	0.074995
38.53 	0.081152 	4929 	0.079251
38.55 	0.068071 	4936 	0.067241
38.57 	0.078001 	4923 	0.076811
38.59 	0.068643 	4924 	0.067434
38.61 	0.072528 	4936 	0.070748
38.63 	0.071893 	4924 	0.069751
38.65 	0.079097 	4918 	0.076576
38.67 	0.073932 	4937 	0.072745
38.69 	0.070906 	4922 	0.068050
38.71 	0.068846 	4924 	0.067538
38.73 	0.068727 	4918 	0.066940
38.75 	0.071849 	4927 	0.070779
38.77 	0.062970 	4923 	0.061522
38.79 	0.062019 	4934 	0.061306
38.81 	0.065554 	4912 	0.064838
38.83 	0.060988 	4919 	0.059916
38.85 	0.062296 	4912 	0.060985
38.87 	0.065567 	4911 	0.064613
38.89 	0.060649 	4897 	0.059932
38.91 	0.062003 	4903 	0.060928
38.93 	0.063386 	4938 	0.062674
38.95 	0.064864 	4918 	0.063792
38.97 	0.066315 	4931 	0.065721
38.99 	0.059955 	4937 	0.059006
39.01 	0.066897 	4918 	0.065210
39.03 	0.058573 	4934 	0.057742
39.05 	0.062741 	4925 	0.061790
39.07 	0.064379 	4924 	0.063308
39.09 	0.061142 	4923 	0.059714
39.11 	0.060028 	4931 	0.059553
39.13 	0.062157 	4923 	0.060591
39.15 	0.056968 	4915 	0.055896
39.17 	0.063601 	4937 	0.062652
39.19 	0.064267 	4917 	0.062480
39.21 	0.056415 	4910 	0.055580
39.23 	0.060102 	4925 	0.058674
39.25 	0.061560 	4922 	0.060132
39.27 	0.060896 	4910 	0.059206
39.29 	0.061416 	4901 	0.059982
39.31 	0.061835 	4884 	0.061115
39.33 	0.059826 	4931 	0.058756
39.35 	0.059574 	4935 	0.058506
39.37 	0.056401 	4929 	0.055331
39.39 	0.060864 	4929 	0.059795
39.41 	0.066721 	4931 	0.065176
39.43 	0.064869 	4933 	0.063801
39.45 	0.059289 	4925 	0.058933
39.47 	0.056673 	4923 	0.055840
39.49 	0.062234 	4933 	0.061165
39.51 	0.067019 	4924 	0.064957
39.53 	0.060329 	4923 	0.059615
39.55 	0.065054 	4919 	0.064101
39.57 	0.054936 	4933 	0.054105
39.59 	0.057818 	4912 	0.057102
39.61 	0.062157 	4923 	0.061086
39.63 	0.062373 	4922 	0.061421
39.65 	0.058262 	4926 	0.056835
39.67 	0.060045 	4913 	0.058972
39.69 	0.058584 	4916 	0.057135
39.71 	0.057406 	4895 	0.056209
39.73 	0.055012 	4908 	0.053461
39.75 	0.058847 	4928 	0.058015
39.77 	0.056332 	4935 	0.055620
39.79 	0.054811 	4926 	0.054098
39.81 	0.056424 	4927 	0.055592
39.83 	0.064856 	4934 	0.063431
39.85 	0.060483 	4927 	0.059275
39.87 	0.065178 	4925 	0.064107
39.89 	0.059992 	4934 	0.058805
39.91 	0.060748 	4922 	0.059439
39.93 	0.064817 	4937 	0.063630
39.95 	0.059817 	4915 	0.058744
39.97 	0.063718 	4928 	0.062767
39.99 	0.060016 	4932 	0.059304
40.01 	0.059984 	4918 	0.059011
40.03 	0.052760 	4928 	0.051928
40.05 	0.055928 	4917 	0.055214
40.07 	0.057485 	4923 	0.056771
40.09 	0.063873 	4916 	0.062801
40.11 	0.063873 	4916 	0.063039
40.13 	0.059641 	4896 	0.057826
40.15 	0.061470 	4913 	0.060277
40.17 	0.059456 	4928 	0.058505
40.19 	0.053966 	4929 	0.052639
40.21 	0.058561 	4935 	0.057256
40.23 	0.060624 	4932 	0.058962
40.25 	0.057724 	4920 	0.056533
40.27 	0.068260 	4937 	0.066480
40.29 	0.065151 	4927 	0.063962
40.31 	0.063171 	4939 	0.062103
40.33 	0.059611 	4932 	0.058423
40.35 	0.055092 	4919 	0.054120
40.37 	0.058430 	4929 	0.057717
40.39 	0.062259 	4931 	0.060952
40.41 	0.058071 	4925 	0.057120
40.43 	0.059935 	4922 	0.058864
40.45 	0.057774 	4933 	0.056705
40.47 	0.054900 	4918 	0.054067
40.49 	0.052578 	4926 	0.051984
40.51 	0.061154 	4922 	0.060202
40.53 	0.054923 	4916 	0.054089
40.55 	0.058272 	4908 	0.056820
40.57 	0.059305 	4890 	0.057967
40.59 	0.062184 	4937 	0.060285
40.61 	0.056130 	4935 	0.055180
40.63 	0.051521 	4930 	0.050927
40.65 	0.057930 	4937 	0.056387
40.67 	0.052920 	4932 	0.052207
40.69 	0.057525 	4937 	0.056813
40.71 	0.054542 	4932 	0.053948
40.73 	0.058871 	4926 	0.057920
40.75 	0.054553 	4931 	0.053484
40.77 	0.062968 	4939 	0.061881
40.79 	0.053615 	4924 	0.052663
40.81 	0.055454 	4941 	0.054387
40.83 	0.061688 	4928 	0.060480
40.85 	0.061535 	4924 	0.060584
40.87 	0.057833 	4928 	0.056525
40.89 	0.057798 	4931 	0.056966
40.91 	0.061345 	4923 	0.060988
40.93 	0.055736 	4934 	0.054173
40.95 	0.058213 	4913 	0.057239
40.97 	0.051787 	4924 	0.051192
40.99 	0.061942 	4924 	0.060970
41.01 	0.055578 	4912 	0.054505
41.03 	0.057288 	4905 	0.056811
41.05 	0.054903 	4936 	0.053578
41.07 	0.058824 	4930 	0.057992
41.09 	0.057299 	4939 	0.056469
41.11 	0.056940 	4935 	0.056347
41.13 	0.056524 	4936 	0.055792
41.15 	0.059705 	4941 	0.058638
41.17 	0.059587 	4934 	0.058993
41.19 	0.055172 	4930 	0.054222
41.21 	0.062184 	4937 	0.060997
41.23 	0.052642 	4939 	0.052168
41.25 	0.048247 	4933 	0.047514
41.27 	0.053539 	4931 	0.052588
41.29 	0.059659 	4928 	0.058708
41.31 	0.057571 	4933 	0.056740
41.33 	0.054689 	4937 	0.053740
41.35 	0.055893 	4938 	0.055181
41.37 	0.054833 	4924 	0.054239
41.39 	0.060612 	4933 	0.059306
41.41 	0.054202 	4926 	0.053370
41.43 	0.052952 	4929 	0.051882
41.45 	0.052300 	4914 	0.051346
41.47 	0.057044 	4926 	0.055498
41.49 	0.054374 	4892 	0.053776
41.51 	0.055466 	4940 	0.055228
41.53 	0.054814 	4944 	0.054340
41.55 	0.050861 	4935 	0.050268
41.57 	0.061324 	4941 	0.059901
41.59 	0.052098 	4933 	0.050792
41.61 	0.057339 	4953 	0.056137
41.63 	0.048400 	4938 	0.048044
41.65 	0.059444 	4929 	0.058474
41.67 	0.054656 	4940 	0.054300
41.69 	0.058217 	4947 	0.057270
41.71 	0.051885 	4934 	0.051291
41.73 	0.052674 	4936 	0.052318
41.75 	0.056604 	4929 	0.055772
41.77 	0.060109 	4941 	0.059042
41.79 	0.052994 	4944 	0.051690
41.81 	0.054903 	4936 	0.053597
41.83 	0.054383 	4928 	0.054027
41.85 	0.052440 	4939 	0.052203
41.87 	0.058156 	4935 	0.057681
41.89 	0.055139 	4933 	0.054070
41.91 	0.050243 	4936 	0.049412
41.93 	0.055150 	4932 	0.054319
41.95 	0.057595 	4931 	0.056644
41.97 	0.050875 	4914 	0.049306
41.99 	0.046891 	4905 	0.046413
42.01 	0.050587 	4942 	0.050231
42.03 	0.056287 	4939 	0.055338
42.05 	0.052908 	4952 	0.052198
42.07 	0.054081 	4937 	0.053132
42.09 	0.050728 	4948 	0.050136
42.11 	0.052376 	4945 	0.051902
42.13 	0.047927 	4945 	0.047098
42.15 	0.053058 	4938 	0.052228
42.17 	0.053680 	4918 	0.052847
42.19 	0.056438 	4908 	0.055245
42.21 	0.063048 	4901 	0.062092
42.23 	0.051717 	4892 	0.050280
42.25 	0.051749 	4889 	0.050910
42.27 	0.051908 	4874 	0.051187
42.29 	0.050175 	4863 	0.049332
42.31 	0.058496 	4855 	0.057290
42.33 	0.052544 	4834 	0.051090
42.35 	0.048987 	4838 	0.048745
42.37 	0.045549 	4830 	0.044700
42.39 	0.050583 	4804 	0.049607
42.41 	0.050167 	4804 	0.049537
42.43 	0.057596 	4792 	0.056740
42.45 	0.050670 	4776 	0.050057
42.47 	0.053305 	4765 	0.053059
42.49 	0.053305 	4765 	0.052937
42.51 	0.048071 	4743 	0.047700
42.53 	0.052876 	4728 	0.051514
42.55 	0.052676 	4708 	0.051660
42.57 	0.045877 	4730 	0.045134
42.59 	0.057306 	4729 	0.056811
42.61 	0.046517 	4708 	0.045770
42.63 	0.051603 	4709 	0.050857
42.65 	0.058485 	4685 	0.057734
42.67 	0.053587 	4684 	0.052961
42.69 	0.050920 	4674 	0.049897
42.71 	0.048252 	4663 	0.047498
42.73 	0.054741 	4640 	0.053984
42.75 	0.051765 	4617 	0.051131
42.77 	0.055652 	4600 	0.054506
42.79 	0.054125 	4582 	0.053102
42.81 	0.046032 	4562 	0.045390
42.83 	0.050044 	4536 	0.049786
42.85 	0.052562 	4528 	0.051506
42.87 	0.057568 	4499 	0.056917
42.89 	0.053571 	4480 	0.052918
42.91 	0.054982 	4456 	0.054456
42.93 	0.050607 	4446 	0.050476
42.95 	0.054348 	4416 	0.053154
42.97 	0.054760 	4401 	0.053962
42.99 	0.044698 	4385 	0.044163
43.01 	0.047674 	4363 	0.046868
43.03 	0.051004 	4333 	0.050463
43.05 	0.052717 	4325 	0.052288
43.07 	0.058659 	4296 	0.057705
43.09 	0.042961 	4283 	0.042824
43.11 	0.053819 	4255 	0.052855
43.13 	0.051215 	4237 	0.050801
43.15 	0.048027 	4206 	0.047052
43.17 	0.046901 	4179 	0.046621
43.19 	0.056748 	4194 	0.056049
43.21 	0.052733 	4172 	0.052030
43.23 	0.050794 	4154 	0.050089
43.25 	0.052237 	4135 	0.051812
43.27 	0.046529 	4105 	0.046101
43.29 	0.055610 	4100 	0.054467
43.31 	0.047316 	4079 	0.046741
43.33 	0.050852 	4051 	0.050273
43.35 	0.051587 	4032 	0.050861
43.37 	0.048319 	4015 	0.047006
43.39 	0.047476 	4002 	0.046744
43.41 	0.048338 	3972 	0.047601
43.43 	0.054798 	3960 	0.054182
43.45 	0.052351 	3935 	0.051160
43.47 	0.047182 	3921 	0.046734
43.49 	0.048499 	3897 	0.047296
43.51 	0.052618 	3877 	0.051863
43.53 	0.052032 	3863 	0.051729
43.55 	0.050945 	2964 	0.050747
43.57 	0.047811 	2238 	0.047025
43.59 	0.056701 	1746 	0.056030
43.61 	0.045152 	1351 	0.045152
43.63 	0.052947 	1001 	0.052362
43.65 	0.033479 	687 	0.033479
43.67 	0.045817 	502 	0.044650
43.69 	0.043597 	367 	0.042001
43.71 	0.050209 	239 	0.050209
43.73 	0.041667 	120 	0.041667
43.75 	0.125000 	16 	0.125000