File: Example_Data/25SC_s1_0046.002.dat
#F C:\frames\spec\25SC_s1_0046.002
#C title =s:46 frm:2 25SC_s1
#C wavelength =0.15406

#S 1  fr_average C:\frames\spec\25SC_s1_0046.002 C:\win32app\speccom\mask.axs chi 0 180 0 360 0.02
#C 2 theta =0.000000 to 180 deg
#C   q   =0.000000 to 81.568 nm^-1
#C  chi  =0.000000 to 360 deg
#C collumns:
#C  1 position (2theta or chi in degrees)
#C  2 average intensity (sum of all counts in the region divided with number of pixels)
#C  3 Number of pixels in region)
#C  4 error (sum of sqrt(intensity) for all pixels divided by number)
#N 4
#L TTh  Int  N_pix  Err
32.99 	0.049180 	61 	0.049180
33.01 	0.061856 	873 	0.059843
33.03 	0.067577 	1391 	0.065823
33.05 	0.055777 	1757 	0.055110
33.07 	0.061951 	2050 	0.059951
33.09 	0.054538 	2347 	0.053789
33.11 	0.060101 	2579 	0.058738
33.13 	0.055854 	2793 	0.054805
33.15 	0.060687 	2999 	0.059515
33.17 	0.060918 	3201 	0.059637
33.19 	0.062837 	3342 	0.061610
33.21 	0.054715 	3436 	0.053351
33.23 	0.057621 	3523 	0.057289
33.25 	0.055925 	3612 	0.054789
33.27 	0.055372 	3630 	0.054726
33.29 	0.055647 	3648 	0.054523
33.31 	0.062842 	3660 	0.061561
33.33 	0.056158 	3686 	0.054702
33.35 	0.058202 	3694 	0.057410
33.37 	0.065697 	3714 	0.064094
33.39 	0.061947 	3729 	0.060036
33.41 	0.063102 	3740 	0.061535
33.43 	0.062749 	3761 	0.061659
33.45 	0.059369 	3773 	0.058593
33.47 	0.062138 	3798 	0.060441
33.49 	0.055920 	3809 	0.054536
33.51 	0.054522 	3815 	0.053600
33.53 	0.061442 	3841 	0.060807
33.55 	0.054905 	3843 	0.054295
33.57 	0.059066 	3877 	0.058311
33.59 	0.063918 	3880 	0.063012
33.61 	0.057815 	3909 	0.057066
33.63 	0.064047 	3919 	0.063150
33.65 	0.065632 	3931 	0.064589
33.67 	0.058675 	3954 	0.057761
33.69 	0.060966 	3953 	0.059781
33.71 	0.057358 	3975 	0.056327
33.73 	0.069431 	4004 	0.068260
33.75 	0.059765 	3999 	0.058007
33.77 	0.057888 	4025 	0.056724
33.79 	0.065083 	4041 	0.064068
33.81 	0.064388 	4038 	0.063083
33.83 	0.063457 	4050 	0.062878
33.85 	0.064162 	4099 	0.062424
33.87 	0.055704 	4111 	0.054564
33.89 	0.055569 	4121 	0.054574
33.91 	0.056399 	4149 	0.055411
33.93 	0.060467 	4151 	0.059762
33.95 	0.064817 	4181 	0.063136
33.97 	0.058711 	4190 	0.057593
33.99 	0.060000 	4200 	0.059163
34.01 	0.061714 	4213 	0.061019
34.03 	0.065504 	4244 	0.064400
34.05 	0.062794 	4252 	0.061279
34.07 	0.065136 	4268 	0.063763
34.09 	0.060429 	4286 	0.059473
34.11 	0.063924 	4302 	0.062834
34.13 	0.058032 	4308 	0.056921
34.15 	0.055414 	4331 	0.054738
34.17 	0.055402 	4350 	0.054438
34.19 	0.063044 	4362 	0.062239
34.21 	0.064745 	4371 	0.063941
34.23 	0.055998 	4393 	0.055331
34.25 	0.054269 	4404 	0.053338
34.27 	0.057666 	4422 	0.056452
34.29 	0.062909 	4435 	0.061588
34.31 	0.053387 	4458 	0.053256
34.33 	0.053456 	4471 	0.052669
34.35 	0.058207 	4484 	0.057031
34.37 	0.060566 	4491 	0.059392
34.39 	0.056197 	4502 	0.055547
34.41 	0.062086 	4526 	0.061050
34.43 	0.056620 	4539 	0.055588
34.45 	0.059537 	4535 	0.058374
34.47 	0.055531 	4592 	0.054383
34.49 	0.051120 	4597 	0.050611
34.51 	0.055797 	4606 	0.054652
34.53 	0.057506 	4643 	0.055866
34.55 	0.054060 	4643 	0.053555
34.57 	0.058798 	4660 	0.057918
34.59 	0.056898 	4675 	0.055896
34.61 	0.054503 	4697 	0.054129
34.63 	0.056051 	4710 	0.055429
34.65 	0.060792 	4721 	0.059675
34.67 	0.056528 	4741 	0.055540
34.69 	0.054270 	4754 	0.053654
34.71 	0.060638 	4766 	0.058917
34.73 	0.055567 	4787 	0.054588
34.75 	0.059692 	4808 	0.058210
34.77 	0.060606 	4818 	0.059512
34.79 	0.061360 	4824 	0.060024
34.81 	0.056553 	4845 	0.055949
34.83 	0.058618 	4862 	0.057895
34.85 	0.057301 	4869 	0.056700
34.87 	0.059573 	4868 	0.058851
34.89 	0.053257 	4882 	0.052417
34.91 	0.059402 	4882 	0.057942
34.93 	0.057359 	4899 	0.056641
34.95 	0.056033 	4890 	0.055194
34.97 	0.051204 	4902 	0.050347
34.99 	0.060037 	4897 	0.058960
35.01 	0.062767 	4923 	0.061319
35.03 	0.058669 	4943 	0.057721
35.05 	0.056398 	4947 	0.055214
35.07 	0.056478 	4940 	0.055411
35.09 	0.057743 	4953 	0.057033
35.11 	0.059632 	4947 	0.058547
35.13 	0.056071 	4958 	0.055244
35.15 	0.060361 	4937 	0.059886
35.17 	0.063890 	4946 	0.062824
35.19 	0.056860 	4942 	0.055674
35.21 	0.054398 	4945 	0.053569
35.23 	0.062285 	4945 	0.061456
35.25 	0.056848 	4943 	0.055900
35.27 	0.058610 	4948 	0.057032
35.29 	0.065319 	4945 	0.064015
35.31 	0.057571 	4933 	0.055889
35.33 	0.063322 	4943 	0.061781
35.35 	0.047349 	4942 	0.046638
35.37 	0.058109 	4939 	0.057872
35.39 	0.054803 	4945 	0.054092
35.41 	0.054405 	4926 	0.052959
35.43 	0.055950 	4933 	0.055356
35.45 	0.058335 	4937 	0.057129
35.47 	0.054147 	4931 	0.053553
35.49 	0.056823 	4910 	0.055630
35.51 	0.060089 	4926 	0.058762
35.53 	0.062437 	4949 	0.061727
35.55 	0.053792 	4945 	0.053318
35.57 	0.061423 	4933 	0.061067
35.59 	0.061072 	4945 	0.059413
35.61 	0.059085 	4942 	0.058493
35.63 	0.061501 	4943 	0.060316
35.65 	0.056016 	4945 	0.055068
35.67 	0.056253 	4942 	0.054593
35.69 	0.061262 	4946 	0.060196
35.71 	0.054892 	4937 	0.054536
35.73 	0.054903 	4936 	0.054072
35.75 	0.059623 	4931 	0.058791
35.77 	0.057160 	4951 	0.055721
35.79 	0.054947 	4932 	0.053878
35.81 	0.065072 	4933 	0.064122
35.83 	0.054994 	4946 	0.053928
35.85 	0.056130 	4935 	0.055417
35.87 	0.052813 	4923 	0.051980
35.89 	0.056344 	4934 	0.055394
35.91 	0.050132 	4927 	0.049537
35.93 	0.059265 	4927 	0.058552
35.95 	0.053895 	4917 	0.053299
35.97 	0.054357 	4912 	0.053641
35.99 	0.059729 	4939 	0.058305
36.01 	0.058215 	4930 	0.057007
36.03 	0.054623 	4943 	0.053675
36.05 	0.056218 	4945 	0.055508
36.07 	0.057299 	4939 	0.055994
36.09 	0.058704 	4940 	0.057874
36.11 	0.056401 	4929 	0.055688
36.13 	0.051599 	4942 	0.051124
36.15 	0.057299 	4939 	0.056350
36.17 	0.061523 	4925 	0.061047
36.19 	0.053239 	4940 	0.051934
36.21 	0.055995 	4929 	0.054926
36.23 	0.057143 	4935 	0.056431
36.25 	0.057883 	4941 	0.056579
36.27 	0.057056 	4925 	0.056223
36.29 	0.058406 	4931 	0.057218
36.31 	0.057021 	4928 	0.055575
36.33 	0.053517 	4933 	0.052904
36.35 	0.056604 	4929 	0.056128
36.37 	0.057688 	4923 	0.057093
36.39 	0.060150 	4921 	0.059555
36.41 	0.056168 	4896 	0.055570
36.43 	0.059659 	4928 	0.058233
36.45 	0.057201 	4930 	0.056350
36.47 	0.055511 	4936 	0.054798
36.49 	0.053824 	4942 	0.053113
36.51 	0.057774 	4933 	0.056943
36.53 	0.059478 	4943 	0.058293
36.55 	0.054191 	4927 	0.053359
36.57 	0.056141 	4934 	0.054954
36.59 	0.063576 	4939 	0.062152
36.61 	0.061448 	4931 	0.060240
36.63 	0.055972 	4931 	0.055378
36.65 	0.056975 	4932 	0.056262
36.67 	0.059026 	4930 	0.058551
36.69 	0.056401 	4929 	0.055569
36.71 	0.054867 	4921 	0.053538
36.73 	0.054822 	4925 	0.054347
36.75 	0.053398 	4944 	0.052687
36.77 	0.051637 	4919 	0.050803
36.79 	0.045926 	4921 	0.045449
36.81 	0.057364 	4916 	0.056291
36.83 	0.052696 	4915 	0.051266
36.85 	0.057166 	4898 	0.055951
36.87 	0.052791 	4944 	0.052080
36.89 	0.055126 	4916 	0.054649
36.91 	0.058693 	4941 	0.057388
36.93 	0.051927 	4930 	0.050976
36.95 	0.057166 	4933 	0.056335
36.97 	0.047831 	4934 	0.047356
36.99 	0.053495 	4935 	0.052526
37.01 	0.056355 	4933 	0.055386
37.03 	0.059301 	4924 	0.058231
37.05 	0.053582 	4927 	0.052493
37.07 	0.056535 	4935 	0.055348
37.09 	0.058036 	4928 	0.056966
37.11 	0.052888 	4935 	0.052413
37.13 	0.057474 	4924 	0.056364
37.15 	0.052964 	4909 	0.052009
37.17 	0.054114 	4934 	0.053639
37.19 	0.054619 	4925 	0.053668
37.21 	0.054912 	4917 	0.054792
37.23 	0.053274 	4918 	0.052321
37.25 	0.060476 	4911 	0.059403
37.27 	0.054352 	4894 	0.053634
37.29 	0.053550 	4930 	0.052223
37.31 	0.052685 	4935 	0.051379
37.33 	0.055003 	4927 	0.053814
37.35 	0.052248 	4938 	0.051417
37.37 	0.055003 	4927 	0.053695
37.39 	0.054350 	4931 	0.053637
37.41 	0.061854 	4931 	0.060309
37.43 	0.054745 	4932 	0.053794
37.45 	0.053615 	4924 	0.052901
37.47 	0.051735 	4929 	0.050903
37.49 	0.056876 	4923 	0.055924
37.51 	0.054531 	4933 	0.053699
37.53 	0.054889 	4919 	0.054294
37.55 	0.050304 	4930 	0.050185
37.57 	0.051371 	4925 	0.050637
37.59 	0.050458 	4915 	0.050100
37.61 	0.052824 	4922 	0.051277
37.63 	0.049604 	4919 	0.048889
37.65 	0.049207 	4918 	0.048592
37.67 	0.054649 	4904 	0.053933
37.69 	0.056758 	4898 	0.056160
37.71 	0.048691 	4929 	0.047365
37.73 	0.051329 	4929 	0.050497
37.75 	0.054656 	4940 	0.054063
37.77 	0.053659 	4920 	0.052706
37.79 	0.051116 	4930 	0.050046
37.81 	0.050476 	4933 	0.049883
37.83 	0.058537 	4920 	0.057227
37.85 	0.051605 	4922 	0.050653
37.87 	0.051630 	4939 	0.051274
37.89 	0.047919 	4925 	0.047324
37.91 	0.055375 	4930 	0.054662
37.93 	0.055906 	4919 	0.055072
37.95 	0.056696 	4921 	0.056101
37.97 	0.051329 	4929 	0.050022
37.99 	0.051710 	4912 	0.050875
38.01 	0.054992 	4928 	0.053903
38.03 	0.054390 	4909 	0.053316
38.05 	0.049340 	4925 	0.048983
38.07 	0.051945 	4909 	0.051349
38.09 	0.048995 	4878 	0.048135
38.11 	0.048430 	4935 	0.047955
38.13 	0.052461 	4937 	0.051274
38.15 	0.059780 	4918 	0.059304
38.17 	0.054361 	4930 	0.053054
38.19 	0.059026 	4930 	0.057838
38.21 	0.055454 	4923 	0.054859
38.23 	0.065816 	4938 	0.064867
38.25 	0.056132 	4917 	0.054702
38.27 	0.063286 	4930 	0.062217
38.29 	0.060926 	4924 	0.059855
38.31 	0.057033 	4927 	0.055963
38.33 	0.056255 	4924 	0.055184
38.35 	0.059862 	4928 	0.058911
38.37 	0.063566 	4924 	0.062733
38.39 	0.066001 	4909 	0.064331
38.41 	0.064798 	4923 	0.063965
38.43 	0.066517 	4916 	0.065207
38.45 	0.067100 	4918 	0.065671
38.47 	0.061137 	4907 	0.059585
38.49 	0.062743 	4877 	0.061783
38.51 	0.064680 	4932 	0.063848
38.53 	0.068574 	4929 	0.067603
38.55 	0.065843 	4936 	0.063668
38.57 	0.059110 	4923 	0.058039
38.59 	0.064785 	4924 	0.063476
38.61 	0.066045 	4936 	0.064384
38.63 	0.057677 	4924 	0.056705
38.65 	0.060187 	4918 	0.059711
38.67 	0.052866 	4937 	0.052154
38.69 	0.059529 	4922 	0.058339
38.71 	0.057677 	4924 	0.056249
38.73 	0.062830 	4918 	0.061639
38.75 	0.059671 	4927 	0.058601
38.77 	0.048141 	4923 	0.046714
38.79 	0.052493 	4934 	0.051405
38.81 	0.054967 	4912 	0.053656
38.83 	0.051433 	4919 	0.050600
38.85 	0.052728 	4912 	0.051655
38.87 	0.052942 	4911 	0.051372
38.89 	0.049622 	4897 	0.049144
38.91 	0.050989 	4903 	0.049794
38.93 	0.048603 	4938 	0.048010
38.95 	0.047580 	4918 	0.047223
38.97 	0.047455 	4931 	0.046148
38.99 	0.046992 	4937 	0.046162
39.01 	0.048394 	4918 	0.048036
39.03 	0.042359 	4934 	0.042003
39.05 	0.046701 	4925 	0.046225
39.07 	0.045491 	4924 	0.044897
39.09 	0.041844 	4923 	0.040873
39.11 	0.048469 	4931 	0.048112
39.13 	0.043469 	4923 	0.042399
39.15 	0.045168 	4915 	0.044453
39.17 	0.049625 	4937 	0.049131
39.19 	0.046980 	4917 	0.046622
39.21 	0.047251 	4910 	0.046415
39.23 	0.045685 	4925 	0.045309
39.25 	0.044900 	4922 	0.044305
39.27 	0.047658 	4910 	0.046087
39.29 	0.049786 	4901 	0.049547
39.31 	0.046274 	4884 	0.045554
39.33 	0.045832 	4931 	0.045120
39.35 	0.050456 	4935 	0.049862
39.37 	0.050112 	4929 	0.049874
39.39 	0.043417 	4929 	0.042822
39.41 	0.047455 	4931 	0.046861
39.43 	0.049463 	4933 	0.049107
39.45 	0.049137 	4925 	0.048542
39.47 	0.050985 	4923 	0.049914
39.49 	0.047638 	4933 	0.047045
39.51 	0.040820 	4924 	0.040345
39.53 	0.044485 	4923 	0.043533
39.55 	0.046351 	4919 	0.045755
39.57 	0.050274 	4933 	0.050036
39.59 	0.049267 	4912 	0.048432
39.61 	0.040219 	4923 	0.039505
39.63 	0.047745 	4922 	0.046912
39.65 	0.041616 	4926 	0.041497
39.67 	0.041726 	4913 	0.041130
39.69 	0.048007 	4916 	0.047530
39.71 	0.049234 	4895 	0.047918
39.73 	0.042787 	4908 	0.041952
39.75 	0.044034 	4928 	0.043677
39.77 	0.044580 	4935 	0.044342
39.79 	0.046488 	4926 	0.045656
39.81 	0.040593 	4927 	0.040355
39.83 	0.043575 	4934 	0.043338
39.85 	0.044855 	4927 	0.043527
39.87 	0.047107 	4925 	0.046393
39.89 	0.045602 	4934 	0.044890
39.91 	0.040634 	4922 	0.040396
39.93 	0.044156 	4937 	0.044156
39.95 	0.040285 	4915 	0.040285
39.97 	0.046266 	4928 	0.045553
39.99 	0.048865 	4932 	0.048152
40.01 	0.046564 	4918 	0.046206
40.03 	0.040584 	4928 	0.040228
40.05 	0.044743 	4917 	0.044266
40.07 	0.042657 	4923 	0.042062
40.09 	0.043531 	4916 	0.042816
40.11 	0.044548 	4916 	0.043953
40.13 	0.040645 	4896 	0.040406
40.15 	0.044779 	4913 	0.043825
40.17 	0.047890 	4928 	0.047652
40.19 	0.042199 	4929 	0.041843
40.21 	0.042553 	4935 	0.042197
40.23 	0.040957 	4932 	0.040719
40.25 	0.041667 	4920 	0.041429
40.27 	0.049423 	4937 	0.048592
40.29 	0.041810 	4927 	0.041692
40.31 	0.039077 	4939 	0.038602
40.33 	0.041971 	4932 	0.041496
40.35 	0.047367 	4919 	0.046415
40.37 	0.044025 	4929 	0.043431
40.39 	0.043399 	4931 	0.042924
40.41 	0.040812 	4925 	0.040574
40.43 	0.040634 	4922 	0.039801
40.45 	0.041151 	4933 	0.040676
40.47 	0.045750 	4918 	0.045393
40.49 	0.039992 	4926 	0.039873
40.51 	0.044697 	4922 	0.043864
40.53 	0.048820 	4916 	0.047252
40.55 	0.041361 	4908 	0.040764
40.57 	0.043149 	4890 	0.042670
40.59 	0.043549 	4937 	0.043074
40.61 	0.050456 	4935 	0.049625
40.63 	0.040771 	4930 	0.040533
40.65 	0.043144 	4937 	0.043144
40.67 	0.042376 	4932 	0.041426
40.69 	0.040105 	4937 	0.039749
40.71 	0.044809 	4932 	0.044334
40.73 	0.044864 	4926 	0.044250
40.75 	0.045427 	4931 	0.045071
40.77 	0.045353 	4939 	0.044642
40.79 	0.042648 	4924 	0.042410
40.81 	0.047561 	4941 	0.046731
40.83 	0.043019 	4928 	0.042425
40.85 	0.043054 	4924 	0.042460
40.87 	0.043019 	4928 	0.042544
40.89 	0.040560 	4931 	0.039966
40.91 	0.042454 	4923 	0.041740
40.93 	0.044994 	4934 	0.043807
40.95 	0.039691 	4913 	0.039452
40.97 	0.044476 	4924 	0.044119
40.99 	0.051787 	4924 	0.050677
41.01 	0.048453 	4912 	0.047379
41.03 	0.048522 	4905 	0.048044
41.05 	0.041937 	4936 	0.040731
41.07 	0.035903 	4930 	0.035784
41.09 	0.039482 	4939 	0.038770
41.11 	0.042756 	4935 	0.042518
41.13 	0.045786 	4936 	0.045311
41.15 	0.042097 	4941 	0.041741
41.17 	0.038103 	4934 	0.037747
41.19 	0.039351 	4930 	0.038994
41.21 	0.049220 	4937 	0.048390
41.23 	0.047580 	4939 	0.046987
41.25 	0.036692 	4933 	0.036217
41.27 	0.043602 	4931 	0.043245
41.29 	0.039570 	4928 	0.039570
41.31 	0.039124 	4933 	0.038649
41.33 	0.041321 	4937 	0.041083
41.35 	0.037667 	4938 	0.037430
41.37 	0.043867 	4924 	0.043510
41.39 	0.043787 	4933 	0.043312
41.41 	0.042225 	4926 	0.042106
41.43 	0.040170 	4929 	0.039933
41.45 	0.044770 	4914 	0.044532
41.47 	0.040601 	4926 	0.040482
41.49 	0.039861 	4892 	0.039622
41.51 	0.042713 	4940 	0.041882
41.53 	0.041464 	4944 	0.041109
41.55 	0.045187 	4935 	0.044475
41.57 	0.045335 	4941 	0.044723
41.59 	0.046827 	4933 	0.046471
41.61 	0.042399 	4953 	0.041689
41.63 	0.040907 	4938 	0.040314
41.65 	0.048083 	4929 	0.047112
41.67 	0.040891 	4940 	0.040535
41.69 	0.042046 	4947 	0.041454
41.71 	0.040130 	4934 	0.039892
41.73 	0.036264 	4936 	0.035789
41.75 	0.041185 	4929 	0.040333
41.77 	0.044728 	4941 	0.044135
41.79 	0.039442 	4944 	0.039086
41.81 	0.040113 	4936 	0.038907
41.83 	0.039367 	4928 	0.039010
41.85 	0.039887 	4939 	0.039649
41.87 	0.043972 	4935 	0.043616
41.89 	0.035678 	4933 	0.035559
41.91 	0.042950 	4936 	0.042594
41.93 	0.039335 	4932 	0.038979
41.95 	0.046238 	4931 	0.045882
41.97 	0.040700 	4914 	0.040342
41.99 	0.035270 	4905 	0.034792
42.01 	0.035411 	4942 	0.035055
42.03 	0.036850 	4939 	0.036494
42.05 	0.035743 	4952 	0.035388
42.07 	0.042333 	4937 	0.042215
42.09 	0.035570 	4948 	0.035452
42.11 	0.037614 	4945 	0.037140
42.13 	0.040849 	4945 	0.040612
42.15 	0.038275 	4938 	0.037800
42.17 	0.039650 	4918 	0.039531
42.19 	0.036064 	4908 	0.035706
42.21 	0.040196 	4901 	0.039957
42.23 	0.039657 	4892 	0.039178
42.25 	0.042340 	4889 	0.042100
42.27 	0.039598 	4874 	0.039478
42.29 	0.042978 	4863 	0.042255
42.31 	0.040165 	4855 	0.039923
42.33 	0.039512 	4834 	0.039269
42.35 	0.034105 	4838 	0.033984
42.37 	0.036646 	4830 	0.036403
42.39 	0.043505 	4804 	0.043018
42.41 	0.035179 	4804 	0.034325
42.43 	0.042988 	4792 	0.042622
42.45 	0.042504 	4776 	0.042259
42.47 	0.039874 	4765 	0.039382
42.49 	0.039874 	4765 	0.039874
42.51 	0.039637 	4743 	0.039020
42.53 	0.039129 	4728 	0.038757
42.55 	0.034410 	4708 	0.033663
42.57 	0.039323 	4730 	0.039076
42.59 	0.034468 	4729 	0.033973
42.61 	0.039720 	4708 	0.039346
42.63 	0.035464 	4709 	0.035215
42.65 	0.034578 	4685 	0.033953
42.67 	0.035226 	4684 	0.035101
42.69 	0.037655 	4674 	0.037154
42.71 	0.037958 	4663 	0.037330
42.73 	0.040517 	4640 	0.040265
42.75 	0.039853 	4617 	0.039451
42.77 	0.035870 	4600 	0.035615
42.79 	0.036229 	4582 	0.035717
42.81 	0.042306 	4562 	0.042049
42.83 	0.037698 	4536 	0.037440
42.85 	0.037986 	4528 	0.037468
42.87 	0.038898 	4499 	0.038377
42.89 	0.041071 	4480 	0.040679
42.91 	0.037253 	4456 	0.036596
42.93 	0.041610 	4446 	0.041215
42.95 	0.042572 	4416 	0.042440
42.97 	0.039764 	4401 	0.039342
42.99 	0.035804 	4385 	0.035270
43.01 	0.039193 	4363 	0.038522
43.03 	0.035541 	4333 	0.035271
43.05 	0.047630 	4325 	0.047224
43.07 	0.038873 	4296 	0.038737
43.09 	0.037357 	4283 	0.037083
43.11 	0.040658 	4255 	0.040107
43.13 	0.040359 	4237 	0.040082
43.15 	0.036614 	4206 	0.036336
43.17 	0.040440 	4179 	0.040020
43.19 	0.040534 	4194 	0.040255
43.21 	0.037152 	4172 	0.036872
43.23 	0.034425 	4154 	0.034425
43.25 	0.036759 	4135 	0.036334
43.27 	0.037759 	4105 	0.037188
43.29 	0.033659 	4100 	0.033516
43.31 	0.034812 	4079 	0.034669
43.33 	0.040978 	4051 	0.040110
43.35 	0.039187 	4032 	0.039041
43.37 	0.040349 	4015 	0.039911
43.39 	0.035732 	4002 	0.035147
43.41 	0.040534 	3972 	0.040091
43.43 	0.040152 	3960 	0.040004
43.45 	0.037357 	3935 	0.037357
43.47 	0.039531 	3921 	0.039083
43.49 	0.040031 	3897 	0.039730
43.51 	0.038432 	3877 	0.038281
43.53 	0.034947 	3863 	0.034492
43.55 	0.039136 	2964 	0.038543
43.57 	0.038427 	2238 	0.037861
43.59 	0.038373 	1746 	0.037702
43.61 	0.038490 	1351 	0.037623
43.63 	0.031968 	1001 	0.031968
43.65 	0.042213 	687 	0.042213
43.67 	0.033865 	502 	0.033865
43.69 	0.016349 	367 	0.016349
43.71 	0.029289 	239 	0.029289
43.73 	0.050000 	120 	0.045118
43.75 	0.000000 	16 	0.000000