File: Example_Data/25SC_s1_0031.001.dat
#F C:\frames\spec\25SC_s1_0031.001
#C title =s:31 frm:1 25SC_s1
#C wavelength =0.15406

#S 1  fr_average C:\frames\spec\25SC_s1_0031.001 C:\win32app\speccom\mask.axs chi 0 180 0 360 0.02
#C 2 theta =0.000000 to 180 deg
#C   q   =0.000000 to 81.568 nm^-1
#C  chi  =0.000000 to 360 deg
#C collumns:
#C  1 position (2theta or chi in degrees)
#C  2 average intensity (sum of all counts in the region divided with number of pixels)
#C  3 Number of pixels in region)
#C  4 error (sum of sqrt(intensity) for all pixels divided by number)
#N 4
#L TTh  Int  N_pix  Err
32.99 	0.032787 	61 	0.032787
33.01 	0.068729 	873 	0.067387
33.03 	0.062545 	1391 	0.061703
33.05 	0.058054 	1757 	0.057720
33.07 	0.061951 	2050 	0.061380
33.09 	0.061355 	2347 	0.059608
33.11 	0.058938 	2579 	0.058256
33.13 	0.059076 	2793 	0.057364
33.15 	0.057019 	2999 	0.056824
33.17 	0.058419 	3201 	0.056955
33.19 	0.066727 	3342 	0.065500
33.21 	0.053551 	3436 	0.051846
33.23 	0.064434 	3523 	0.062605
33.25 	0.063123 	3612 	0.062474
33.27 	0.056749 	3630 	0.055942
33.29 	0.062500 	3648 	0.061055
33.31 	0.056011 	3660 	0.055371
33.33 	0.053988 	3686 	0.053352
33.35 	0.060097 	3694 	0.058961
33.37 	0.058428 	3714 	0.057797
33.39 	0.056852 	3729 	0.056538
33.41 	0.062299 	3740 	0.061203
33.43 	0.063015 	3761 	0.061925
33.45 	0.057779 	3773 	0.056071
33.47 	0.058452 	3798 	0.057064
33.49 	0.062221 	3809 	0.060529
33.51 	0.065269 	3815 	0.064347
33.53 	0.059880 	3841 	0.058965
33.55 	0.061150 	3843 	0.060388
33.57 	0.060098 	3877 	0.059494
33.59 	0.061082 	3880 	0.059573
33.61 	0.057304 	3909 	0.056080
33.63 	0.063537 	3919 	0.062939
33.65 	0.055711 	3931 	0.054519
33.67 	0.052352 	3954 	0.051463
33.69 	0.058184 	3953 	0.056702
33.71 	0.057862 	3975 	0.056683
33.73 	0.059441 	4004 	0.058855
33.75 	0.067017 	3999 	0.065112
33.77 	0.055155 	4025 	0.054282
33.79 	0.059639 	4041 	0.058044
33.81 	0.054482 	4038 	0.053757
33.83 	0.056790 	4050 	0.056356
33.85 	0.054160 	4099 	0.053016
33.87 	0.057164 	4111 	0.056024
33.89 	0.057753 	4121 	0.057327
33.91 	0.061220 	4149 	0.060372
33.93 	0.066249 	4151 	0.064132
33.95 	0.058120 	4181 	0.057700
33.97 	0.056563 	4190 	0.055002
33.99 	0.050714 	4200 	0.050435
34.01 	0.062188 	4213 	0.060937
34.03 	0.056786 	4244 	0.056234
34.05 	0.058325 	4252 	0.057499
34.07 	0.063496 	4268 	0.061712
34.09 	0.060196 	4286 	0.058966
34.11 	0.057415 	4302 	0.056598
34.13 	0.058960 	4308 	0.058008
34.15 	0.063496 	4331 	0.062143
34.17 	0.059770 	4350 	0.058558
34.19 	0.060981 	4362 	0.059638
34.21 	0.066346 	4371 	0.065542
34.23 	0.054860 	4393 	0.053927
34.25 	0.055631 	4404 	0.054966
34.27 	0.059023 	4422 	0.058096
34.29 	0.055468 	4435 	0.054411
34.31 	0.059219 	4458 	0.058694
34.33 	0.058376 	4471 	0.057831
34.35 	0.060214 	4484 	0.059539
34.37 	0.063683 	4491 	0.062357
34.39 	0.061972 	4502 	0.061192
34.41 	0.056783 	4526 	0.056524
34.43 	0.061908 	4539 	0.060875
34.45 	0.055568 	4535 	0.054793
34.47 	0.059887 	4592 	0.058866
34.49 	0.056124 	4597 	0.054977
34.51 	0.047112 	4606 	0.046477
34.53 	0.057075 	4643 	0.056318
34.55 	0.055352 	4643 	0.054343
34.57 	0.052146 	4660 	0.051895
34.59 	0.058610 	4675 	0.058234
34.61 	0.058548 	4697 	0.057904
34.63 	0.057537 	4710 	0.056791
34.65 	0.051684 	4721 	0.051043
34.67 	0.058848 	4741 	0.058354
34.69 	0.055111 	4754 	0.054495
34.71 	0.057700 	4766 	0.055980
34.73 	0.052434 	4787 	0.051455
34.75 	0.056780 	4808 	0.055440
34.77 	0.054172 	4818 	0.052834
34.79 	0.054312 	4824 	0.053340
34.81 	0.058204 	4845 	0.057963
34.83 	0.056150 	4862 	0.055065
34.85 	0.054426 	4869 	0.053343
34.87 	0.049918 	4868 	0.049316
34.89 	0.064728 	4882 	0.063768
34.91 	0.059402 	4882 	0.058182
34.93 	0.051643 	4899 	0.050926
34.95 	0.057464 	4890 	0.056745
34.97 	0.052836 	4902 	0.052238
34.99 	0.056565 	4897 	0.056206
35.01 	0.060532 	4923 	0.060056
35.03 	0.056646 	4943 	0.055342
35.05 	0.055791 	4947 	0.055081
35.07 	0.057692 	4940 	0.056507
35.09 	0.056128 	4953 	0.054807
35.11 	0.052759 	4947 	0.051694
35.13 	0.059500 	4958 	0.058909
35.15 	0.062386 	4937 	0.061674
35.17 	0.057825 	4946 	0.056877
35.19 	0.054431 	4942 	0.053365
35.21 	0.054398 	4945 	0.053688
35.23 	0.057027 	4945 	0.056435
35.25 	0.054016 	4943 	0.052594
35.27 	0.059822 	4948 	0.058875
35.29 	0.054803 	4945 	0.054329
35.31 	0.048247 	4933 	0.046921
35.33 	0.057657 	4943 	0.056946
35.35 	0.059490 	4942 	0.058305
35.37 	0.057704 	4939 	0.056755
35.39 	0.058241 	4945 	0.057175
35.41 	0.057856 	4926 	0.056905
35.43 	0.059193 	4933 	0.058481
35.45 	0.056309 	4937 	0.055242
35.47 	0.059826 	4931 	0.059232
35.49 	0.053157 	4910 	0.052680
35.51 	0.057450 	4926 	0.056856
35.53 	0.055769 	4949 	0.054822
35.55 	0.048332 	4945 	0.047216
35.57 	0.054936 	4933 	0.054224
35.59 	0.049747 	4945 	0.048662
35.61 	0.051801 	4942 	0.050833
35.63 	0.056848 	4943 	0.056019
35.65 	0.058241 	4945 	0.057056
35.67 	0.055038 	4942 	0.053853
35.69 	0.062879 	4946 	0.061932
35.71 	0.054284 	4937 	0.053335
35.73 	0.056929 	4936 	0.055485
35.75 	0.057189 	4931 	0.056476
35.77 	0.057766 	4951 	0.056228
35.79 	0.060219 	4932 	0.059388
35.81 	0.060409 	4933 	0.059697
35.83 	0.052972 	4946 	0.052617
35.85 	0.060385 	4935 	0.059535
35.87 	0.056673 	4923 	0.055602
35.89 	0.057154 	4934 	0.056066
35.91 	0.057439 	4927 	0.055893
35.93 	0.055409 	4927 	0.055052
35.95 	0.054708 	4917 	0.053874
35.97 	0.059446 	4912 	0.058611
35.99 	0.057097 	4939 	0.056029
36.01 	0.055172 	4930 	0.054222
36.03 	0.055230 	4943 	0.054045
36.05 	0.056623 	4945 	0.055912
36.07 	0.052237 	4939 	0.051763
36.09 	0.057490 	4940 	0.056660
36.11 	0.055792 	4929 	0.055198
36.13 	0.058478 	4942 	0.057412
36.15 	0.054869 	4939 	0.053565
36.17 	0.055025 	4925 	0.054193
36.19 	0.056478 	4940 	0.055292
36.21 	0.052749 	4929 	0.051917
36.23 	0.061398 	4935 	0.060211
36.25 	0.058693 	4941 	0.058100
36.27 	0.062335 	4925 	0.061621
36.29 	0.056784 	4931 	0.055833
36.31 	0.051136 	4928 	0.050542
36.33 	0.055139 	4933 	0.054189
36.35 	0.054372 	4929 	0.053659
36.37 	0.056063 	4923 	0.055230
36.39 	0.059338 	4921 	0.058266
36.41 	0.057394 	4896 	0.056556
36.43 	0.055195 	4928 	0.054363
36.45 	0.067343 	4930 	0.065541
36.47 	0.061994 	4936 	0.061163
36.49 	0.053420 	4942 	0.052471
36.51 	0.054531 	4933 	0.053343
36.53 	0.060287 	4943 	0.059576
36.55 	0.056424 	4927 	0.055116
36.57 	0.059992 	4934 	0.059161
36.59 	0.060336 	4939 	0.059506
36.61 	0.060028 	4931 	0.058840
36.63 	0.061448 	4931 	0.060854
36.65 	0.054947 	4932 	0.054235
36.67 	0.053955 	4930 	0.053242
36.69 	0.058835 	4929 	0.058004
36.71 	0.057305 	4921 	0.056353
36.73 	0.053401 	4925 	0.052568
36.75 	0.057848 	4944 	0.057019
36.77 	0.053263 	4919 	0.051953
36.79 	0.052632 	4921 	0.051560
36.81 	0.049837 	4916 	0.048527
36.83 	0.059817 	4915 	0.058248
36.85 	0.057575 	4898 	0.056737
36.87 	0.057848 	4944 	0.056900
36.89 	0.057364 	4916 	0.056391
36.91 	0.063752 	4941 	0.063021
36.93 	0.052738 	4930 	0.052144
36.95 	0.060815 	4933 	0.059627
36.97 	0.055938 	4934 	0.054969
36.99 	0.050861 	4935 	0.049793
37.01 	0.050274 	4933 	0.049442
37.03 	0.053615 	4924 	0.052901
37.05 	0.058656 	4927 	0.058062
37.07 	0.055927 	4935 	0.054977
37.09 	0.055195 	4928 	0.054244
37.11 	0.055522 	4935 	0.054928
37.13 	0.053818 	4924 	0.053342
37.15 	0.057446 	4909 	0.056849
37.17 	0.055533 	4934 	0.054564
37.19 	0.048731 	4925 	0.048017
37.21 	0.049624 	4917 	0.049028
37.23 	0.058967 	4918 	0.058372
37.25 	0.056200 	4911 	0.055008
37.27 	0.059461 	4894 	0.059101
37.29 	0.053753 	4930 	0.052782
37.31 	0.049848 	4935 	0.048998
37.33 	0.056830 	4927 	0.055997
37.35 	0.052450 	4938 	0.051620
37.37 	0.060077 	4927 	0.059483
37.39 	0.049686 	4931 	0.049448
37.41 	0.052728 	4931 	0.052015
37.43 	0.058191 	4932 	0.057479
37.45 	0.060520 	4924 	0.059449
37.47 	0.056807 	4929 	0.055618
37.49 	0.057892 	4923 	0.056702
37.51 	0.044800 	4933 	0.044325
37.53 	0.054076 	4919 	0.053104
37.55 	0.053753 	4930 	0.053158
37.57 	0.052589 	4925 	0.051399
37.59 	0.056155 	4915 	0.055678
37.61 	0.061154 	4922 	0.059964
37.63 	0.058955 	4919 	0.058121
37.65 	0.052664 	4918 	0.051592
37.67 	0.053834 	4904 	0.053117
37.69 	0.055941 	4898 	0.055343
37.71 	0.047068 	4929 	0.046831
37.73 	0.054981 	4929 	0.053792
37.75 	0.052227 	4940 	0.051752
37.77 	0.051829 	4920 	0.051234
37.79 	0.054564 	4930 	0.053732
37.81 	0.051085 	4933 	0.050372
37.83 	0.051220 	4920 	0.050386
37.85 	0.050996 	4922 	0.050162
37.87 	0.055477 	4939 	0.054647
37.89 	0.059898 	4925 	0.059066
37.91 	0.060446 	4930 	0.059020
37.93 	0.054483 	4919 	0.053887
37.95 	0.054054 	4921 	0.053320
37.97 	0.058633 	4929 	0.057682
37.99 	0.051099 	4912 	0.050145
38.01 	0.052151 	4928 	0.051675
38.03 	0.048279 	4909 	0.047801
38.05 	0.057868 	4925 	0.056916
38.07 	0.053982 	4909 	0.053386
38.09 	0.053301 	4878 	0.052460
38.11 	0.049645 	4935 	0.048558
38.13 	0.055297 	4937 	0.054447
38.15 	0.058560 	4918 	0.057846
38.17 	0.061055 	4930 	0.059966
38.19 	0.060852 	4930 	0.060139
38.21 	0.060938 	4923 	0.059967
38.23 	0.057918 	4938 	0.057206
38.25 	0.067317 	4917 	0.066126
38.27 	0.065720 	4930 	0.064532
38.29 	0.056255 	4924 	0.054709
38.31 	0.057033 	4927 	0.056438
38.33 	0.066816 	4924 	0.065507
38.35 	0.062703 	4928 	0.061395
38.37 	0.065800 	4924 	0.064472
38.39 	0.056834 	4909 	0.055760
38.41 	0.071704 	4923 	0.069880
38.43 	0.074044 	4916 	0.072137
38.45 	0.067304 	4918 	0.065755
38.47 	0.073365 	4907 	0.071096
38.49 	0.076276 	4877 	0.074835
38.51 	0.075629 	4932 	0.073847
38.53 	0.070400 	4929 	0.069092
38.55 	0.074959 	4936 	0.073654
38.57 	0.071298 	4923 	0.070108
38.59 	0.063972 	4924 	0.063259
38.61 	0.072326 	4936 	0.070190
38.63 	0.071487 	4924 	0.069702
38.65 	0.077877 	4918 	0.076190
38.67 	0.064412 	4937 	0.064056
38.69 	0.069484 	4922 	0.067937
38.71 	0.061942 	4924 	0.060990
38.73 	0.065474 	4918 	0.064402
38.75 	0.063730 	4927 	0.062423
38.77 	0.062767 	4923 	0.061319
38.79 	0.059384 	4934 	0.057959
38.81 	0.054967 	4912 	0.053636
38.83 	0.062818 	4919 	0.061984
38.85 	0.053950 	4912 	0.053592
38.87 	0.057626 	4911 	0.056791
38.89 	0.059424 	4897 	0.058467
38.91 	0.054864 	4903 	0.053789
38.93 	0.053868 	4938 	0.053393
38.95 	0.054087 	4918 	0.053372
38.97 	0.056986 	4931 	0.055917
38.99 	0.053271 	4937 	0.052915
39.01 	0.048190 	4918 	0.047833
39.03 	0.048845 	4934 	0.048132
39.05 	0.044873 	4925 	0.044278
39.07 	0.048944 	4924 	0.048468
39.09 	0.051595 	4923 	0.050286
39.11 	0.050497 	4931 	0.049665
39.13 	0.053423 	4923 	0.052590
39.15 	0.046592 	4915 	0.045758
39.17 	0.048207 	4937 	0.047614
39.19 	0.048403 	4917 	0.047927
39.21 	0.047658 	4910 	0.047061
39.23 	0.045888 	4925 	0.045532
39.25 	0.047948 	4922 	0.047353
39.27 	0.046232 	4910 	0.045636
39.29 	0.043052 	4901 	0.042813
39.31 	0.044226 	4884 	0.043746
39.33 	0.045630 	4931 	0.044917
39.35 	0.043364 	4935 	0.042889
39.37 	0.043822 	4929 	0.042872
39.39 	0.047271 	4929 	0.046677
39.41 	0.046238 	4931 	0.045763
39.43 	0.045814 	4933 	0.045220
39.45 	0.040812 	4925 	0.040812
39.47 	0.047735 	4923 	0.047140
39.49 	0.041962 	4933 	0.041487
39.51 	0.041430 	4924 	0.040716
39.53 	0.042860 	4923 	0.042146
39.55 	0.045334 	4919 	0.044382
39.57 	0.046422 	4933 	0.045710
39.59 	0.050285 	4912 	0.049808
39.61 	0.047532 	4923 	0.046818
39.63 	0.043885 	4922 	0.043171
39.65 	0.050345 	4926 	0.048899
39.67 	0.043965 	4913 	0.043727
39.69 	0.049837 	4916 	0.048884
39.71 	0.044944 	4895 	0.044226
39.73 	0.041972 	4908 	0.041376
39.75 	0.047078 	4928 	0.047078
39.77 	0.045593 	4935 	0.044881
39.79 	0.046488 	4926 	0.046369
39.81 	0.045870 	4927 	0.045394
39.83 	0.054520 	4934 	0.053689
39.85 	0.045058 	4927 	0.044226
39.87 	0.044873 	4925 	0.044159
39.89 	0.044791 	4934 	0.044435
39.91 	0.046323 	4922 	0.045847
39.93 	0.043346 	4937 	0.043228
39.95 	0.042930 	4915 	0.042096
39.97 	0.041802 	4928 	0.041445
39.99 	0.039335 	4932 	0.038979
40.01 	0.042294 	4918 	0.042055
40.03 	0.039367 	4928 	0.039129
40.05 	0.047997 	4917 	0.047282
40.07 	0.042454 	4923 	0.042097
40.09 	0.042921 	4916 	0.042206
40.11 	0.042514 	4916 	0.041918
40.13 	0.043301 	4896 	0.042583
40.15 	0.042133 	4913 	0.041656
40.17 	0.043425 	4928 	0.042356
40.19 	0.047474 	4929 	0.047118
40.21 	0.043972 	4935 	0.043734
40.23 	0.039132 	4932 	0.038657
40.25 	0.042886 	4920 	0.042529
40.27 	0.047397 	4937 	0.046448
40.29 	0.045870 	4927 	0.045156
40.31 	0.041709 	4939 	0.040879
40.33 	0.041565 	4932 	0.040971
40.35 	0.040862 	4919 	0.040743
40.37 	0.036316 	4929 	0.035840
40.39 	0.041777 	4931 	0.041539
40.41 	0.038985 	4925 	0.038866
40.43 	0.042666 	4922 	0.042309
40.45 	0.042165 	4933 	0.041928
40.47 	0.040260 	4918 	0.040141
40.49 	0.045270 	4926 	0.044794
40.51 	0.039618 	4922 	0.039023
40.53 	0.045972 	4916 	0.045377
40.55 	0.035656 	4908 	0.035059
40.57 	0.038650 	4890 	0.038531
40.59 	0.041928 	4937 	0.041691
40.61 	0.041135 	4935 	0.040897
40.63 	0.040365 	4930 	0.040246
40.65 	0.047600 	4937 	0.046651
40.67 	0.045823 	4932 	0.045586
40.69 	0.043549 	4937 	0.042955
40.71 	0.041971 	4932 	0.041496
40.73 	0.041413 	4926 	0.040699
40.75 	0.040154 	4931 	0.039679
40.77 	0.045556 	4939 	0.044844
40.79 	0.039399 	4924 	0.039042
40.81 	0.046145 	4941 	0.044722
40.83 	0.042411 	4928 	0.042054
40.85 	0.036962 	4924 	0.036010
40.87 	0.040787 	4928 	0.040550
40.89 	0.038937 	4931 	0.038225
40.91 	0.039001 	4923 	0.038168
40.93 	0.038711 	4934 	0.038355
40.95 	0.043151 	4913 	0.042793
40.97 	0.039399 	4924 	0.038685
40.99 	0.039399 	4924 	0.039042
41.01 	0.040513 	4912 	0.040155
41.03 	0.043221 	4905 	0.042604
41.05 	0.039506 	4936 	0.039268
41.07 	0.042394 	4930 	0.042156
41.09 	0.042721 	4939 	0.042128
41.11 	0.035664 	4935 	0.035545
41.13 	0.037885 	4936 	0.037410
41.15 	0.044728 	4941 	0.044016
41.17 	0.036684 	4934 	0.036447
41.19 	0.047262 	4930 	0.046905
41.21 	0.045979 	4937 	0.045386
41.23 	0.045151 	4939 	0.044676
41.25 	0.043179 	4933 	0.043060
41.27 	0.041371 	4931 	0.040777
41.29 	0.037135 	4928 	0.036659
41.31 	0.042773 	4933 	0.042179
41.33 	0.044561 	4937 	0.043850
41.35 	0.044755 	4938 	0.043925
41.37 	0.038180 	4924 	0.037942
41.39 	0.041557 	4933 	0.041438
41.41 	0.042225 	4926 	0.041511
41.43 	0.042605 	4929 	0.042248
41.45 	0.041718 	4914 	0.041241
41.47 	0.035932 	4926 	0.035575
41.49 	0.038839 	4892 	0.038480
41.51 	0.037449 	4940 	0.037094
41.53 	0.042071 	4944 	0.041479
41.55 	0.043769 	4935 	0.043175
41.57 	0.042704 	4941 	0.042111
41.59 	0.036489 	4933 	0.036014
41.61 	0.040380 	4953 	0.039906
41.63 	0.038882 	4938 	0.038170
41.65 	0.044025 	4929 	0.043550
41.67 	0.037854 	4940 	0.037261
41.69 	0.039418 	4947 	0.038707
41.71 	0.036482 	4934 	0.035650
41.73 	0.037075 	4936 	0.036956
41.75 	0.039156 	4929 	0.038562
41.77 	0.041894 	4941 	0.041420
41.79 	0.037217 	4944 	0.036980
41.81 	0.040721 	4936 	0.039772
41.83 	0.040584 	4928 	0.040228
41.85 	0.042519 	4939 	0.042282
41.87 	0.037893 	4935 	0.037280
41.89 	0.039935 	4933 	0.039223
41.91 	0.035859 	4936 	0.035622
41.93 	0.039740 	4932 	0.039127
41.95 	0.036098 	4931 	0.035742
41.97 	0.035816 	4914 	0.035339
41.99 	0.040775 	4905 	0.039819
42.01 	0.038446 	4942 	0.038090
42.03 	0.035230 	4939 	0.034874
42.05 	0.035743 	4952 	0.035507
42.07 	0.039295 	4937 	0.038821
42.09 	0.036378 	4948 	0.035905
42.11 	0.039434 	4945 	0.039197
42.13 	0.039838 	4945 	0.039009
42.15 	0.041515 	4938 	0.041396
42.17 	0.039447 	4918 	0.038970
42.19 	0.039120 	4908 	0.038642
42.21 	0.040808 	4901 	0.039971
42.23 	0.042927 	4892 	0.042548
42.25 	0.036204 	4889 	0.035964
42.27 	0.037957 	4874 	0.037716
42.29 	0.039482 	4863 	0.039120
42.31 	0.036457 	4855 	0.035854
42.33 	0.039305 	4834 	0.038679
42.35 	0.038446 	4838 	0.037961
42.37 	0.039337 	4830 	0.038974
42.39 	0.037677 	4804 	0.037067
42.41 	0.039550 	4804 	0.038819
42.43 	0.040067 	4792 	0.039456
42.45 	0.037270 	4776 	0.037024
42.47 	0.039035 	4765 	0.038666
42.49 	0.039664 	4765 	0.039541
42.51 	0.037951 	4743 	0.037827
42.53 	0.039552 	4728 	0.038808
42.55 	0.038233 	4708 	0.037735
42.57 	0.036364 	4730 	0.036116
42.59 	0.040601 	4729 	0.040229
42.61 	0.041844 	4708 	0.041719
42.63 	0.040561 	4709 	0.040436
42.65 	0.034792 	4685 	0.034542
42.67 	0.035867 	4684 	0.035742
42.69 	0.036799 	4674 	0.036799
42.71 	0.036886 	4663 	0.036509
42.73 	0.045690 	4640 	0.045311
42.75 	0.038337 	4617 	0.038083
42.77 	0.041087 	4600 	0.040196
42.79 	0.037102 	4582 	0.036590
42.81 	0.041429 	4562 	0.040787
42.83 	0.038139 	4536 	0.037494
42.85 	0.040857 	4528 	0.039822
42.87 	0.042454 	4499 	0.042324
42.89 	0.037277 	4480 	0.036754
42.91 	0.035682 	4456 	0.035419
42.93 	0.041610 	4446 	0.041083
42.95 	0.047781 	4416 	0.047118
42.97 	0.035674 	4401 	0.035408
42.99 	0.041733 	4385 	0.041065
43.01 	0.037818 	4363 	0.037549
43.03 	0.035772 	4333 	0.035096
43.05 	0.041156 	4325 	0.040885
43.07 	0.033985 	4296 	0.033576
43.09 	0.035256 	4283 	0.034982
43.11 	0.036193 	4255 	0.036055
43.13 	0.039415 	4237 	0.039276
43.15 	0.038516 	4206 	0.038516
43.17 	0.041158 	4179 	0.041018
43.19 	0.037434 	4194 	0.036876
43.21 	0.039549 	4172 	0.038707
43.23 	0.038036 	4154 	0.037331
43.25 	0.034583 	4135 	0.034016
43.27 	0.037272 	4105 	0.036986
43.29 	0.036341 	4100 	0.036199
43.31 	0.040696 	4079 	0.040265
43.33 	0.038262 	4051 	0.038118
43.35 	0.040427 	4032 	0.039700
43.37 	0.035118 	4015 	0.034827
43.39 	0.034483 	4002 	0.034190
43.41 	0.038268 	3972 	0.037973
43.43 	0.037626 	3960 	0.036887
43.45 	0.040915 	3935 	0.040022
43.47 	0.034940 	3921 	0.034791
43.49 	0.038491 	3897 	0.037890
43.51 	0.033015 	3877 	0.032864
43.53 	0.040901 	3863 	0.040446
43.55 	0.035762 	2964 	0.035367
43.57 	0.033512 	2238 	0.033512
43.59 	0.037801 	1746 	0.037465
43.61 	0.032568 	1351 	0.032568
43.63 	0.035964 	1001 	0.035379
43.65 	0.024745 	687 	0.024745
43.67 	0.049801 	502 	0.047467
43.69 	0.029973 	367 	0.029973
43.71 	0.020921 	239 	0.020921
43.73 	0.033333 	120 	0.033333
43.75 	0.000000 	16 	0.000000