File: Example_Data/25SC_s1_0002.002.dat
#F C:\frames\spec\25SC_s1_0002.002
#C title =s:2 frm:2 25SC_s1
#C wavelength =0.15406

#S 1  fr_average C:\frames\spec\25SC_s1_0002.002 C:\win32app\speccom\mask.axs chi 0 180 0 360 0.02
#C 2 theta =0.000000 to 180 deg
#C   q   =0.000000 to 81.568 nm^-1
#C  chi  =0.000000 to 360 deg
#C collumns:
#C  1 position (2theta or chi in degrees)
#C  2 average intensity (sum of all counts in the region divided with number of pixels)
#C  3 Number of pixels in region)
#C  4 error (sum of sqrt(intensity) for all pixels divided by number)
#N 4
#L TTh  Int  N_pix  Err
32.99 	0.081967 	61 	0.081967
33.01 	0.071019 	873 	0.069006
33.03 	0.076923 	1391 	0.074817
33.05 	0.073990 	1757 	0.071989
33.07 	0.086341 	2050 	0.084627
33.09 	0.074137 	2347 	0.073388
33.11 	0.074835 	2579 	0.073700
33.13 	0.071966 	2793 	0.069868
33.15 	0.078026 	2999 	0.075291
33.17 	0.071853 	3201 	0.070023
33.19 	0.070616 	3342 	0.068455
33.21 	0.070140 	3436 	0.069458
33.23 	0.066988 	3523 	0.066157
33.25 	0.062016 	3612 	0.060718
33.27 	0.075482 	3630 	0.074191
33.29 	0.072917 	3648 	0.071793
33.31 	0.076230 	3660 	0.074309
33.33 	0.076777 	3686 	0.075188
33.35 	0.069572 	3694 	0.068119
33.37 	0.064890 	3714 	0.063312
33.39 	0.061947 	3729 	0.061004
33.41 	0.070321 	3740 	0.068911
33.43 	0.071258 	3761 	0.070167
33.45 	0.075272 	3773 	0.073694
33.47 	0.072933 	3798 	0.071391
33.49 	0.070097 	3809 	0.069174
33.51 	0.065793 	3815 	0.064104
33.53 	0.075501 	3841 	0.074586
33.55 	0.069997 	3843 	0.068930
33.57 	0.074542 	3877 	0.073182
33.59 	0.081186 	3880 	0.079525
33.61 	0.071630 	3909 	0.070281
33.63 	0.077316 	3919 	0.075970
33.65 	0.071992 	3931 	0.069459
33.67 	0.076631 	3954 	0.074705
33.69 	0.069061 	3953 	0.067703
33.71 	0.066667 	3975 	0.065488
33.73 	0.071928 	4004 	0.071343
33.75 	0.076269 	3999 	0.074804
33.77 	0.072298 	4025 	0.070819
33.79 	0.076219 	4041 	0.074455
33.81 	0.073056 	4038 	0.072186
33.83 	0.075062 	4050 	0.073760
33.85 	0.078312 	4099 	0.076454
33.87 	0.069813 	4111 	0.068530
33.89 	0.067945 	4121 	0.066665
33.91 	0.060255 	4149 	0.058985
33.93 	0.070344 	4151 	0.068910
33.95 	0.068644 	4181 	0.068083
33.97 	0.065632 	4190 	0.064794
33.99 	0.073333 	4200 	0.071520
34.01 	0.068360 	4213 	0.067248
34.03 	0.067154 	4244 	0.065475
34.05 	0.074788 	4252 	0.072997
34.07 	0.067479 	4268 	0.066518
34.09 	0.069062 	4286 	0.067263
34.11 	0.068805 	4302 	0.067693
34.13 	0.074048 	4308 	0.072689
34.15 	0.079196 	4331 	0.077303
34.17 	0.071954 	4350 	0.069665
34.19 	0.066942 	4362 	0.065733
34.21 	0.067033 	4371 	0.065693
34.23 	0.070567 	4393 	0.069633
34.25 	0.062897 	4404 	0.061567
34.27 	0.073496 	4422 	0.071752
34.29 	0.075536 	4435 	0.074193
34.31 	0.075370 	4458 	0.073772
34.33 	0.069559 	4471 	0.068249
34.35 	0.066905 	4484 	0.065337
34.37 	0.063238 	4491 	0.061933
34.39 	0.071968 	4502 	0.070797
34.41 	0.072470 	4526 	0.071435
34.43 	0.066755 	4539 	0.065722
34.45 	0.064388 	4535 	0.063613
34.47 	0.072517 	4592 	0.071114
34.49 	0.067870 	4597 	0.065152
34.51 	0.074251 	4606 	0.072450
34.53 	0.074305 	4643 	0.073044
34.55 	0.070213 	4643 	0.068825
34.57 	0.071245 	4660 	0.068584
34.59 	0.072941 	4675 	0.071312
34.61 	0.061742 	4697 	0.061118
34.63 	0.072187 	4710 	0.070321
34.65 	0.069689 	4721 	0.068076
34.67 	0.069606 	4741 	0.068988
34.69 	0.066050 	4754 	0.065187
34.71 	0.063575 	4766 	0.062838
34.73 	0.069146 	4787 	0.067800
34.75 	0.067804 	4808 	0.066951
34.77 	0.063927 	4818 	0.063562
34.79 	0.059909 	4824 	0.058694
34.81 	0.068937 	4845 	0.067123
34.83 	0.071781 	4862 	0.070316
34.85 	0.070651 	4869 	0.068967
34.87 	0.072104 	4868 	0.070178
34.89 	0.067595 	4882 	0.065915
34.91 	0.067186 	4882 	0.065746
34.93 	0.072668 	4899 	0.071233
34.95 	0.070143 	4890 	0.068686
34.97 	0.072827 	4902 	0.071871
34.99 	0.071268 	4897 	0.069693
35.01 	0.072314 	4923 	0.070866
35.03 	0.069796 	4943 	0.068492
35.05 	0.064686 	4947 	0.063146
35.07 	0.073482 	4940 	0.071921
35.09 	0.073491 	4953 	0.072308
35.11 	0.067111 	4947 	0.066519
35.13 	0.072610 	4958 	0.071310
35.15 	0.072716 	4937 	0.071055
35.17 	0.071977 	4946 	0.070181
35.19 	0.073654 	4942 	0.072232
35.21 	0.069970 	4945 	0.069140
35.23 	0.070172 	4945 	0.068395
35.25 	0.068380 	4943 	0.066602
35.27 	0.073363 	4948 	0.072179
35.29 	0.069363 	4945 	0.067823
35.31 	0.065275 	4933 	0.063137
35.33 	0.072426 	4943 	0.070392
35.35 	0.074261 	4942 	0.072839
35.37 	0.072079 	4939 	0.070518
35.39 	0.069565 	4945 	0.068144
35.41 	0.072067 	4926 	0.070521
35.43 	0.067707 	4933 	0.066757
35.45 	0.069880 	4937 	0.068457
35.47 	0.070371 	4931 	0.069064
35.49 	0.077393 	4910 	0.075246
35.51 	0.069834 	4926 	0.068407
35.53 	0.072944 	4949 	0.070912
35.55 	0.070576 	4945 	0.069372
35.57 	0.076221 	4933 	0.074559
35.59 	0.073003 	4945 	0.071562
35.61 	0.067584 	4942 	0.066399
35.63 	0.072628 	4943 	0.071324
35.65 	0.070981 	4945 	0.069421
35.67 	0.068393 	4942 	0.067564
35.69 	0.069753 	4946 	0.068451
35.71 	0.071501 	4937 	0.069840
35.73 	0.069084 	4936 	0.067304
35.75 	0.068140 	4931 	0.066952
35.77 	0.071097 	4951 	0.069914
35.79 	0.073804 	4932 	0.072022
35.81 	0.075816 	4933 	0.074628
35.83 	0.078043 	4946 	0.076503
35.85 	0.067680 	4935 	0.065880
35.87 	0.069673 	4923 	0.068483
35.89 	0.067694 	4934 	0.066625
35.91 	0.076314 	4927 	0.074036
35.93 	0.076314 	4927 	0.074650
35.95 	0.065894 	4917 	0.064941
35.97 	0.073901 	4912 	0.072827
35.99 	0.074307 	4939 	0.072883
36.01 	0.069980 	4930 	0.067940
36.03 	0.072021 	4943 	0.070816
36.05 	0.066330 	4945 	0.065145
36.07 	0.073294 	4939 	0.071515
36.09 	0.069433 	4940 	0.068485
36.11 	0.069588 	4929 	0.068043
36.13 	0.071631 	4942 	0.070446
36.15 	0.074509 	4939 	0.073442
36.17 	0.074924 	4925 	0.073497
36.19 	0.071660 	4940 	0.070830
36.21 	0.068371 	4929 	0.067301
36.23 	0.073151 	4935 	0.071964
36.25 	0.068002 	4941 	0.067054
36.27 	0.070051 	4925 	0.068742
36.29 	0.075847 	4931 	0.073451
36.31 	0.070414 	4928 	0.068512
36.33 	0.074802 	4933 	0.073734
36.35 	0.078921 	4929 	0.076781
36.37 	0.073532 	4923 	0.071153
36.39 	0.084129 	4921 	0.082463
36.41 	0.073529 	4896 	0.071715
36.43 	0.069805 	4928 	0.068498
36.45 	0.070588 	4930 	0.069044
36.47 	0.071110 	4936 	0.069330
36.49 	0.072643 	4942 	0.071457
36.51 	0.066491 	4933 	0.065422
36.53 	0.071616 	4943 	0.069483
36.55 	0.074893 	4927 	0.073348
36.57 	0.073166 	4934 	0.071484
36.59 	0.074104 	4939 	0.072799
36.61 	0.067126 	4931 	0.065463
36.63 	0.067735 	4931 	0.066190
36.65 	0.077656 	4932 	0.075479
36.67 	0.072617 	4930 	0.070834
36.69 	0.080949 	4929 	0.078315
36.71 	0.074375 	4921 	0.072232
36.73 	0.076548 	4925 	0.074883
36.75 	0.073625 	4944 	0.071453
36.77 	0.071966 	4919 	0.069803
36.79 	0.079049 	4921 	0.077740
36.81 	0.073841 	4916 	0.072887
36.83 	0.067345 	4915 	0.066511
36.85 	0.077174 	4898 	0.075859
36.87 	0.074636 	4944 	0.072859
36.89 	0.068755 	4916 	0.068040
36.91 	0.073265 	4941 	0.071368
36.93 	0.071602 	4930 	0.070157
36.95 	0.070748 	4933 	0.069798
36.97 	0.070734 	4934 	0.069428
36.99 	0.071530 	4935 	0.069037
37.01 	0.069532 	4933 	0.068107
37.03 	0.067425 	4924 	0.066116
37.05 	0.069819 	4927 	0.068630
37.07 	0.069706 	4935 	0.068163
37.09 	0.069805 	4928 	0.067784
37.11 	0.072543 	4935 	0.070743
37.13 	0.075955 	4924 	0.074765
37.15 	0.074557 	4909 	0.072767
37.17 	0.069518 	4934 	0.067618
37.19 	0.071878 	4925 	0.070431
37.21 	0.069148 	4917 	0.067361
37.23 	0.075030 	4918 	0.073244
37.25 	0.075341 	4911 	0.073910
37.27 	0.067838 	4894 	0.066761
37.29 	0.075456 	4930 	0.073793
37.31 	0.068896 	4935 	0.067471
37.33 	0.071037 	4927 	0.070086
37.35 	0.067639 	4938 	0.066808
37.37 	0.068196 	4927 	0.067126
37.39 	0.070168 	4931 	0.068030
37.41 	0.067735 	4931 	0.066547
37.43 	0.069749 	4932 	0.067947
37.45 	0.065597 	4924 	0.064526
37.47 	0.074457 	4929 	0.072536
37.49 	0.066017 	4923 	0.064926
37.51 	0.065072 	4933 	0.064241
37.53 	0.061801 	4919 	0.060491
37.55 	0.068763 	4930 	0.067555
37.57 	0.068629 	4925 	0.067440
37.59 	0.066124 	4915 	0.065270
37.61 	0.064202 	4922 	0.063468
37.63 	0.071356 	4919 	0.069689
37.65 	0.064254 	4918 	0.063182
37.67 	0.067088 	4904 	0.065655
37.69 	0.067987 	4898 	0.066552
37.71 	0.064922 	4929 	0.063852
37.73 	0.061067 	4929 	0.060354
37.75 	0.062551 	4940 	0.061721
37.77 	0.073577 	4920 	0.071434
37.79 	0.067140 	4930 	0.065833
37.81 	0.069734 	4933 	0.068072
37.83 	0.062398 	4920 	0.060593
37.85 	0.065624 	4922 	0.064295
37.87 	0.058109 	4939 	0.056923
37.89 	0.068223 	4925 	0.067748
37.91 	0.066531 	4930 	0.065700
37.93 	0.067900 	4919 	0.066590
37.95 	0.059338 	4921 	0.058266
37.97 	0.060661 	4929 	0.059829
37.99 	0.061075 	4912 	0.060359
38.01 	0.067167 	4928 	0.066335
38.03 	0.067631 	4909 	0.066080
38.05 	0.066802 	4925 	0.065732
38.07 	0.068446 	4909 	0.067610
38.09 	0.068266 	4878 	0.066305
38.11 	0.064032 	4935 	0.063083
38.13 	0.075755 	4937 	0.073362
38.15 	0.064864 	4918 	0.064387
38.17 	0.063692 	4930 	0.062028
38.19 	0.074037 	4930 	0.072235
38.21 	0.074954 	4923 	0.073526
38.23 	0.074929 	4938 	0.072794
38.25 	0.076266 	4917 	0.075393
38.27 	0.072008 	4930 	0.070444
38.29 	0.079610 	4924 	0.077350
38.31 	0.083418 	4927 	0.082447
38.33 	0.079813 	4924 	0.077652
38.35 	0.084416 	4928 	0.083108
38.37 	0.090171 	4924 	0.087177
38.39 	0.092483 	4909 	0.090216
38.41 	0.089580 	4923 	0.087656
38.43 	0.096827 	4916 	0.093371
38.45 	0.097194 	4918 	0.094931
38.47 	0.088241 	4907 	0.086092
38.49 	0.103342 	4877 	0.100320
38.51 	0.092863 	4932 	0.090211
38.53 	0.086427 	4929 	0.084526
38.55 	0.097650 	4936 	0.095039
38.57 	0.086533 	4923 	0.084272
38.59 	0.085500 	4924 	0.083001
38.61 	0.090559 	4936 	0.088898
38.63 	0.088140 	4924 	0.086693
38.65 	0.087434 	4918 	0.085528
38.67 	0.081426 	4937 	0.079528
38.69 	0.080861 	4922 	0.079176
38.71 	0.074736 	4924 	0.073665
38.73 	0.077674 	4918 	0.075887
38.75 	0.070428 	4927 	0.069002
38.77 	0.076376 	4923 	0.075543
38.79 	0.071747 	4934 	0.069828
38.81 	0.072272 	4912 	0.070602
38.83 	0.065664 	4919 	0.065068
38.85 	0.067793 	4912 	0.067197
38.87 	0.066992 	4911 	0.066038
38.89 	0.061875 	4897 	0.059961
38.91 	0.066082 	4903 	0.064887
38.93 	0.057311 	4938 	0.056480
38.95 	0.058154 	4918 	0.056804
38.97 	0.059217 	4931 	0.058148
38.99 	0.058538 	4937 	0.057944
39.01 	0.058560 	4918 	0.057608
39.03 	0.058370 	4934 	0.057302
39.05 	0.063959 	4925 	0.062651
39.07 	0.056864 	4924 	0.055060
39.09 	0.061954 	4923 	0.061240
39.11 	0.062665 	4931 	0.061477
39.13 	0.060735 	4923 	0.060259
39.15 	0.052289 	4915 	0.051455
39.17 	0.060361 	4937 	0.059649
39.19 	0.065894 	4917 	0.064583
39.21 	0.053360 	4910 	0.053003
39.23 	0.055431 	4925 	0.054837
39.25 	0.052011 	4922 	0.051416
39.27 	0.057637 	4910 	0.057041
39.29 	0.058764 	4901 	0.057429
39.31 	0.055692 	4884 	0.054972
39.33 	0.050294 	4931 	0.049819
39.35 	0.049645 	4935 	0.048696
39.37 	0.049706 	4929 	0.049706
39.39 	0.054575 	4929 	0.054218
39.41 	0.052525 	4931 	0.051574
39.43 	0.060409 	4933 	0.059084
39.45 	0.047310 	4925 	0.046477
39.47 	0.052813 	4923 	0.051861
39.49 	0.049463 	4933 	0.049107
39.51 	0.054021 	4924 	0.053307
39.53 	0.056876 	4923 	0.055547
39.55 	0.052450 	4919 	0.051854
39.57 	0.055342 	4933 	0.054135
39.59 	0.057818 	4912 	0.057341
39.61 	0.054845 	4923 	0.054607
39.63 	0.053434 	4922 	0.052958
39.65 	0.056232 	4926 	0.055638
39.67 	0.050071 	4913 	0.049237
39.69 	0.051058 	4916 	0.049847
39.71 	0.049438 	4895 	0.049199
39.73 	0.062143 	4908 	0.060811
39.75 	0.052963 	4928 	0.052249
39.77 	0.055724 	4935 	0.054181
39.79 	0.053796 	4926 	0.052469
39.81 	0.053379 	4927 	0.052785
39.83 	0.049655 	4934 	0.049062
39.85 	0.053379 	4927 	0.052428
39.87 	0.053401 	4925 	0.052449
39.89 	0.051074 	4934 	0.050599
39.91 	0.052215 	4922 	0.051262
39.93 	0.049423 	4937 	0.048948
39.95 	0.050051 	4915 	0.049097
39.97 	0.051948 	4928 	0.051710
39.99 	0.052514 	4932 	0.051920
40.01 	0.057340 	4918 	0.056745
40.03 	0.051948 	4928 	0.050997
40.05 	0.054505 	4917 	0.053194
40.07 	0.055657 	4923 	0.054567
40.09 	0.054719 	4916 	0.054123
40.11 	0.051058 	4916 	0.050224
40.13 	0.051471 	4896 	0.050394
40.15 	0.054956 	4913 	0.054102
40.17 	0.048904 	4928 	0.048310
40.19 	0.054575 	4929 	0.054218
40.21 	0.057143 	4935 	0.056431
40.23 	0.048459 	4932 	0.047509
40.25 	0.054065 	4920 	0.053351
40.27 	0.048613 	4937 	0.048118
40.29 	0.050132 	4927 	0.049300
40.31 	0.052845 	4939 	0.052489
40.33 	0.046634 	4932 	0.045328
40.35 	0.054279 	4919 	0.053088
40.37 	0.050112 	4929 	0.049399
40.39 	0.055364 	4931 	0.054414
40.41 	0.051980 	4925 	0.050790
40.43 	0.047338 	4922 	0.046862
40.45 	0.050071 	4933 	0.049477
40.47 	0.049207 	4918 	0.048969
40.49 	0.052375 	4926 	0.051781
40.51 	0.053637 	4922 	0.053161
40.53 	0.052685 	4916 	0.052328
40.55 	0.053382 	4908 	0.052169
40.57 	0.047444 	4890 	0.046485
40.59 	0.054689 	4937 	0.053977
40.61 	0.053698 	4935 	0.053105
40.63 	0.049899 	4930 	0.049186
40.65 	0.050638 	4937 	0.049570
40.67 	0.054136 	4932 	0.053661
40.69 	0.049828 	4937 	0.049235
40.71 	0.046229 	4932 	0.045991
40.73 	0.053593 	4926 	0.053118
40.75 	0.052930 	4931 	0.051980
40.77 	0.048795 	4939 	0.048202
40.79 	0.051381 	4924 	0.050905
40.81 	0.051609 	4941 	0.050898
40.83 	0.051136 	4928 	0.050166
40.85 	0.051787 	4924 	0.050835
40.87 	0.059862 	4928 	0.058535
40.89 	0.051714 	4931 	0.051001
40.91 	0.049563 	4923 	0.049206
40.93 	0.048845 	4934 	0.047895
40.95 	0.055567 	4913 	0.054116
40.97 	0.049147 	4924 	0.048533
40.99 	0.047522 	4924 	0.046789
41.01 	0.056596 	4912 	0.055642
41.03 	0.053007 	4905 	0.052410
41.05 	0.053079 	4936 	0.052011
41.07 	0.050101 	4930 	0.049507
41.09 	0.049403 	4939 	0.048335
41.11 	0.054103 	4935 	0.052798
41.13 	0.046596 	4936 	0.046003
41.15 	0.052419 	4941 	0.051589
41.17 	0.053709 	4934 	0.052997
41.19 	0.054564 	4930 	0.053970
41.21 	0.052258 	4937 	0.051665
41.23 	0.053857 	4939 	0.053027
41.25 	0.043381 	4933 	0.042669
41.27 	0.047658 	4931 	0.047301
41.29 	0.051948 	4928 	0.051591
41.31 	0.050274 	4933 	0.049324
41.33 	0.049220 	4937 	0.048983
41.35 	0.049210 	4938 	0.048380
41.37 	0.049959 	4924 	0.049365
41.39 	0.055950 	4933 	0.054624
41.41 	0.053187 	4926 	0.052474
41.43 	0.051735 	4929 	0.051022
41.45 	0.054131 	4914 	0.053297
41.47 	0.050548 	4926 	0.049954
41.49 	0.055397 	4892 	0.053720
41.51 	0.050202 	4940 	0.049254
41.53 	0.052387 	4944 	0.051794
41.55 	0.054509 	4935 	0.053796
41.57 	0.052621 	4941 	0.051910
41.59 	0.052706 	4933 	0.052469
41.61 	0.052090 	4953 	0.051498
41.63 	0.050020 	4938 	0.048953
41.65 	0.050314 	4929 	0.049839
41.67 	0.050405 	4940 	0.049931
41.69 	0.051142 	4947 	0.050432
41.71 	0.047629 	4934 	0.047035
41.73 	0.046596 	4936 	0.045766
41.75 	0.051735 	4929 	0.051140
41.77 	0.053026 	4941 	0.052314
41.79 	0.051173 	4944 	0.050225
41.81 	0.050851 	4936 	0.049783
41.83 	0.045860 	4928 	0.045147
41.85 	0.055679 	4939 	0.055323
41.87 	0.049037 	4935 	0.047969
41.89 	0.050882 	4933 	0.050169
41.91 	0.047204 	4936 	0.046373
41.93 	0.051500 	4932 	0.050550
41.95 	0.048266 	4931 	0.047791
41.97 	0.043956 	4914 	0.043360
41.99 	0.048726 	4905 	0.048129
42.01 	0.044112 	4942 	0.043875
42.03 	0.050618 	4939 	0.049431
42.05 	0.047254 	4952 	0.046406
42.07 	0.046587 	4937 	0.046231
42.09 	0.045473 	4948 	0.044881
42.11 	0.050758 	4945 	0.049554
42.13 	0.050556 	4945 	0.049845
42.15 	0.045160 	4938 	0.044429
42.17 	0.047174 	4918 	0.046935
42.19 	0.046862 	4908 	0.046385
42.21 	0.046521 	4901 	0.045924
42.23 	0.047424 	4892 	0.046945
42.25 	0.049499 	4889 	0.048640
42.27 	0.044727 	4874 	0.044246
42.29 	0.046679 	4863 	0.046077
42.31 	0.047580 	4855 	0.046856
42.33 	0.050683 	4834 	0.049713
42.35 	0.049607 	4838 	0.049244
42.37 	0.046998 	4830 	0.046270
42.39 	0.049542 	4804 	0.048810
42.41 	0.042673 	4804 	0.041941
42.43 	0.042780 	4792 	0.042046
42.45 	0.051717 	4776 	0.051226
42.47 	0.049738 	4765 	0.049246
42.49 	0.044071 	4765 	0.043068
42.51 	0.043643 	4743 	0.043149
42.53 	0.046108 	4728 	0.045737
42.55 	0.042268 	4708 	0.041128
42.57 	0.046723 	4730 	0.045980
42.59 	0.047790 	4729 	0.046923
42.61 	0.050340 	4708 	0.049718
42.63 	0.046294 	4709 	0.045652
42.65 	0.046531 	4685 	0.046156
42.67 	0.044620 	4684 	0.044120
42.69 	0.045785 	4674 	0.045159
42.71 	0.048467 	4663 	0.047713
42.73 	0.044181 	4640 	0.042919
42.75 	0.043318 	4617 	0.042557
42.77 	0.044783 	4600 	0.044273
42.79 	0.045832 	4582 	0.045448
42.81 	0.043621 	4562 	0.043493
42.83 	0.048942 	4536 	0.048554
42.85 	0.041961 	4528 	0.041573
42.87 	0.048455 	4499 	0.047414
42.89 	0.053125 	4480 	0.052210
42.91 	0.042639 	4456 	0.041850
42.93 	0.049033 	4446 	0.048769
42.95 	0.043931 	4416 	0.043135
42.97 	0.044535 	4401 	0.044136
42.99 	0.045610 	4385 	0.045076
43.01 	0.047215 	4363 	0.047081
43.03 	0.048004 	4333 	0.047193
43.05 	0.046243 	4325 	0.045836
43.07 	0.044693 	4296 	0.044147
43.09 	0.042260 	4283 	0.041713
43.11 	0.045358 	4255 	0.044395
43.13 	0.045079 	4237 	0.043812
43.15 	0.042558 	4206 	0.041583
43.17 	0.044748 	4179 	0.044304
43.19 	0.047210 	4194 	0.046093
43.21 	0.048178 	4172 	0.047898
43.23 	0.043332 	4154 	0.042909
43.25 	0.047884 	4135 	0.047459
43.27 	0.049939 	4105 	0.049083
43.29 	0.046829 	4100 	0.046401
43.31 	0.044864 	4079 	0.044146
43.33 	0.046161 	4051 	0.045583
43.35 	0.048611 	4032 	0.047716
43.37 	0.049564 	4015 	0.049126
43.39 	0.039480 	4002 	0.039480
43.41 	0.043303 	3972 	0.042861
43.43 	0.046465 	3960 	0.045873
43.45 	0.047014 	3935 	0.046567
43.47 	0.042591 	3921 	0.042143
43.49 	0.046446 	3897 	0.046145
43.51 	0.048233 	3877 	0.047478
43.53 	0.038053 	3863 	0.037902
43.55 	0.044197 	2964 	0.043011
43.57 	0.041108 	2238 	0.040846
43.59 	0.046392 	1746 	0.046056
43.61 	0.045152 	1351 	0.044718
43.63 	0.040959 	1001 	0.040959
43.65 	0.039301 	687 	0.038449
43.67 	0.039841 	502 	0.039841
43.69 	0.046322 	367 	0.044725
43.71 	0.037657 	239 	0.037657
43.73 	0.016667 	120 	0.016667
43.75 	0.125000 	16 	0.125000