File: Example_Data/25SC_s1_0037.001.dat
#F C:\frames\spec\25SC_s1_0037.001
#C title =s:37 frm:1 25SC_s1
#C wavelength =0.15406

#S 1  fr_average C:\frames\spec\25SC_s1_0037.001 C:\win32app\speccom\mask.axs chi 0 180 0 360 0.02
#C 2 theta =0.000000 to 180 deg
#C   q   =0.000000 to 81.568 nm^-1
#C  chi  =0.000000 to 360 deg
#C collumns:
#C  1 position (2theta or chi in degrees)
#C  2 average intensity (sum of all counts in the region divided with number of pixels)
#C  3 Number of pixels in region)
#C  4 error (sum of sqrt(intensity) for all pixels divided by number)
#N 4
#L TTh  Int  N_pix  Err
32.99 	0.000000 	61 	0.000000
33.01 	0.063001 	873 	0.061659
33.03 	0.063264 	1391 	0.061510
33.05 	0.060899 	1757 	0.059566
33.07 	0.063415 	2050 	0.061700
33.09 	0.053259 	2347 	0.053010
33.11 	0.060489 	2579 	0.060261
33.13 	0.059076 	2793 	0.057398
33.15 	0.059353 	2999 	0.058376
33.17 	0.060918 	3201 	0.060156
33.19 	0.062537 	3342 	0.061310
33.21 	0.062573 	3436 	0.061720
33.23 	0.051661 	3523 	0.050995
33.25 	0.057032 	3612 	0.055708
33.27 	0.059780 	3630 	0.058811
33.29 	0.053454 	3648 	0.052143
33.31 	0.055191 	3660 	0.054391
33.33 	0.058871 	3686 	0.057918
33.35 	0.056849 	3694 	0.055554
33.37 	0.061659 	3714 	0.060870
33.39 	0.061947 	3729 	0.060847
33.41 	0.066578 	3740 	0.065168
33.43 	0.065142 	3761 	0.063559
33.45 	0.058309 	3773 	0.058154
33.47 	0.058978 	3798 	0.058053
33.49 	0.059858 	3809 	0.058782
33.51 	0.070773 	3815 	0.069238
33.53 	0.064567 	3841 	0.063296
33.55 	0.050742 	3843 	0.050284
33.57 	0.065773 	3877 	0.064715
33.59 	0.062371 	3880 	0.061616
33.61 	0.051676 	3909 	0.051076
33.63 	0.058433 	3919 	0.057237
33.65 	0.062071 	3931 	0.061326
33.67 	0.056651 	3954 	0.055466
33.69 	0.058943 	3953 	0.057905
33.71 	0.064654 	3975 	0.063180
33.73 	0.055195 	4004 	0.054902
33.75 	0.059765 	3999 	0.058300
33.77 	0.059876 	4025 	0.059294
33.79 	0.060629 	4041 	0.059324
33.81 	0.058197 	4038 	0.056892
33.83 	0.066420 	4050 	0.064660
33.85 	0.065626 	4099 	0.064340
33.87 	0.048163 	4111 	0.047024
33.89 	0.058966 	4121 	0.057379
33.91 	0.064594 	4149 	0.063865
33.93 	0.061431 	4151 	0.060584
33.95 	0.056685 	4181 	0.055564
33.97 	0.064439 	4190 	0.063600
33.99 	0.053333 	4200 	0.052636
34.01 	0.057679 	4213 	0.057122
34.03 	0.052545 	4244 	0.051579
34.05 	0.055503 	4252 	0.054814
34.07 	0.054124 	4268 	0.053300
34.09 	0.056230 	4286 	0.055000
34.11 	0.062529 	4302 	0.061304
34.13 	0.056871 	4308 	0.056463
34.15 	0.055876 	4331 	0.054659
34.17 	0.054023 	4350 	0.053215
34.19 	0.055938 	4362 	0.054841
34.21 	0.057195 	4371 	0.056257
34.23 	0.058502 	4393 	0.057302
34.25 	0.063124 	4404 	0.061395
34.27 	0.063772 	4422 	0.062845
34.29 	0.061556 	4435 	0.060367
34.31 	0.055630 	4458 	0.054973
34.33 	0.062626 	4471 	0.061840
34.35 	0.055085 	4484 	0.054040
34.37 	0.061902 	4491 	0.060858
34.39 	0.057308 	4502 	0.056657
34.41 	0.062528 	4526 	0.062010
34.43 	0.063009 	4539 	0.062106
34.45 	0.058434 	4535 	0.057401
34.47 	0.057927 	4592 	0.056524
34.49 	0.063520 	4597 	0.062118
34.51 	0.051455 	4606 	0.050671
34.53 	0.051260 	4643 	0.050251
34.55 	0.055568 	4643 	0.054937
34.57 	0.057725 	4660 	0.057097
34.59 	0.051551 	4675 	0.050423
34.61 	0.052800 	4697 	0.051802
34.63 	0.060085 	4710 	0.059712
34.65 	0.062910 	4721 	0.061297
34.67 	0.060325 	4741 	0.059460
34.69 	0.055111 	4754 	0.053613
34.71 	0.055602 	4766 	0.054742
34.73 	0.061207 	4787 	0.059984
34.75 	0.052413 	4808 	0.051803
34.77 	0.049606 	4818 	0.048998
34.79 	0.054104 	4824 	0.053254
34.81 	0.057998 	4845 	0.056547
34.83 	0.053682 	4862 	0.052838
34.85 	0.052167 	4869 	0.051445
34.87 	0.051767 	4868 	0.050563
34.89 	0.050799 	4882 	0.049599
34.91 	0.050799 	4882 	0.049959
34.93 	0.058175 	4899 	0.056860
34.95 	0.053988 	4890 	0.053029
34.97 	0.056508 	4902 	0.055910
34.99 	0.056974 	4897 	0.055658
35.01 	0.056673 	4923 	0.055245
35.03 	0.054825 	4943 	0.053995
35.05 	0.054983 	4947 	0.054509
35.07 	0.051417 	4940 	0.050231
35.09 	0.051888 	4953 	0.051533
35.11 	0.057004 	4947 	0.056412
35.13 	0.058088 	4958 	0.057261
35.15 	0.055297 	4937 	0.054229
35.17 	0.051152 	4946 	0.050442
35.19 	0.057467 	4942 	0.056163
35.21 	0.051972 	4945 	0.051241
35.23 	0.061072 	4945 	0.060361
35.25 	0.055432 	4943 	0.054839
35.27 	0.056791 	4948 	0.055725
35.29 	0.048938 	4945 	0.048109
35.31 	0.060207 	4933 	0.059376
35.33 	0.058062 	4943 	0.057232
35.35 	0.055443 	4942 	0.054238
35.37 	0.056489 	4939 	0.055303
35.39 	0.052376 	4945 	0.051428
35.41 	0.045067 	4926 	0.044829
35.43 	0.055950 	4933 	0.054861
35.45 	0.056107 	4937 	0.054920
35.47 	0.057595 	4931 	0.057001
35.49 	0.054582 	4910 	0.053389
35.51 	0.053390 	4926 	0.051963
35.53 	0.058194 	4949 	0.056773
35.55 	0.059252 	4945 	0.058067
35.57 	0.062031 	4933 	0.060705
35.59 	0.056825 	4945 	0.055996
35.61 	0.061109 	4942 	0.059686
35.63 	0.054825 	4943 	0.054232
35.65 	0.054803 	4945 	0.054447
35.67 	0.051599 	4942 	0.050275
35.69 	0.053174 	4946 	0.052464
35.71 	0.051448 	4937 	0.050974
35.73 	0.059968 	4936 	0.058899
35.75 	0.052930 	4931 	0.052336
35.77 	0.059382 	4951 	0.058435
35.79 	0.057380 	4932 	0.056430
35.81 	0.057571 	4933 	0.056859
35.83 	0.059442 	4946 	0.058494
35.85 	0.051266 	4935 	0.050436
35.87 	0.060735 	4923 	0.059902
35.89 	0.049858 	4934 	0.049265
35.91 	0.057642 	4927 	0.056809
35.93 	0.059265 	4927 	0.057482
35.95 	0.066504 	4917 	0.065412
35.97 	0.057207 	4912 	0.056134
35.99 	0.060741 	4939 	0.059792
36.01 	0.058215 	4930 	0.057383
36.03 	0.052397 	4943 	0.051785
36.05 	0.059858 	4945 	0.058674
36.07 	0.059931 	4939 	0.058726
36.09 	0.051619 	4940 	0.050789
36.11 	0.050517 	4929 	0.049804
36.13 	0.055645 	4942 	0.054460
36.15 	0.062361 	4939 	0.060918
36.17 	0.054822 	4925 	0.053970
36.19 	0.059514 	4940 	0.058447
36.21 	0.054575 	4929 	0.053981
36.23 	0.062006 	4935 	0.060938
36.25 	0.058085 	4941 	0.057493
36.27 	0.054010 	4925 	0.053178
36.29 	0.054147 	4931 	0.053316
36.31 	0.057833 	4928 	0.057238
36.33 	0.061423 	4933 	0.060473
36.35 	0.053358 	4929 	0.052645
36.37 	0.058298 	4923 	0.057465
36.39 	0.062589 	4921 	0.061399
36.41 	0.053717 	4896 	0.052042
36.43 	0.055804 	4928 	0.054377
36.45 	0.057809 	4930 	0.056502
36.47 	0.053890 	4936 	0.052822
36.49 	0.062525 	4942 	0.061933
36.51 	0.055342 	4933 	0.054629
36.53 	0.055230 	4943 	0.054637
36.55 	0.064339 	4927 	0.063269
36.57 	0.061613 	4934 	0.060545
36.59 	0.060134 	4939 	0.059303
36.61 	0.054350 	4931 	0.054112
36.63 	0.053742 	4931 	0.053266
36.65 	0.056367 	4932 	0.055179
36.67 	0.056592 	4930 	0.055642
36.69 	0.059850 	4929 	0.058899
36.71 	0.052835 	4921 	0.052121
36.73 	0.048122 	4925 	0.047408
36.75 	0.055421 	4944 	0.054591
36.77 	0.057939 	4919 	0.056867
36.79 	0.050803 	4921 	0.050446
36.81 	0.059601 	4916 	0.058886
36.83 	0.056562 	4915 	0.055727
36.85 	0.056145 	4898 	0.055069
36.87 	0.050566 	4944 	0.050211
36.89 	0.049024 	4916 	0.048428
36.91 	0.063550 	4941 	0.062246
36.93 	0.054158 	4930 	0.052851
36.95 	0.056152 	4933 	0.055559
36.97 	0.055330 	4934 	0.054737
36.99 	0.056332 	4935 	0.055976
37.01 	0.054733 	4933 	0.053526
37.03 	0.057677 	4924 	0.056130
37.05 	0.055003 	4927 	0.054409
37.07 	0.055724 	4935 	0.055131
37.09 	0.059456 	4928 	0.058386
37.11 	0.058156 	4935 	0.057325
37.13 	0.055849 	4924 	0.054778
37.15 	0.055001 	4909 	0.053808
37.17 	0.058168 	4934 	0.057218
37.19 	0.053604 	4925 	0.052415
37.21 	0.056335 	4917 	0.055382
37.23 	0.051850 	4918 	0.051017
37.25 	0.054368 	4911 	0.053771
37.27 	0.058643 	4894 	0.057446
37.29 	0.056998 	4930 	0.055572
37.31 	0.058156 	4935 	0.057088
37.33 	0.056018 	4927 	0.055186
37.35 	0.055893 	4938 	0.054825
37.37 	0.058047 	4927 	0.056859
37.39 	0.053133 	4931 	0.052539
37.41 	0.053336 	4931 	0.052504
37.43 	0.057989 	4932 	0.056682
37.45 	0.050772 	4924 	0.049701
37.47 	0.061067 	4929 	0.060116
37.49 	0.057485 	4923 	0.056176
37.51 	0.053112 	4933 	0.052518
37.53 	0.051840 	4919 	0.051006
37.55 	0.052333 	4930 	0.051501
37.57 	0.049340 	4925 	0.048626
37.59 	0.054527 	4915 	0.053693
37.61 	0.055059 	4922 	0.053750
37.63 	0.051433 	4919 	0.050342
37.65 	0.055307 	4918 	0.054096
37.67 	0.057096 	4904 	0.056141
37.69 	0.055737 	4898 	0.054282
37.71 	0.051532 	4929 	0.049848
37.73 	0.054372 	4929 	0.053897
37.75 	0.051417 	4940 	0.050468
37.77 	0.051220 	4920 	0.050247
37.79 	0.053550 	4930 	0.052718
37.81 	0.054733 	4933 	0.053408
37.83 	0.051016 	4920 	0.049945
37.85 	0.053840 	4922 	0.052630
37.87 	0.060336 	4939 	0.059387
37.89 	0.051777 	4925 	0.051539
37.91 	0.051318 	4930 	0.050487
37.93 	0.048181 	4919 	0.047208
37.95 	0.048567 	4921 	0.047496
37.97 	0.052952 	4929 	0.052358
37.99 	0.058428 	4912 	0.057474
38.01 	0.051745 	4928 	0.050913
38.03 	0.055408 	4909 	0.054573
38.05 	0.054213 	4925 	0.053500
38.07 	0.048279 	4909 	0.047682
38.09 	0.057196 	4878 	0.056715
38.11 	0.059169 	4935 	0.058338
38.13 	0.050638 	4937 	0.049689
38.15 	0.057340 	4918 	0.056745
38.17 	0.053347 	4930 	0.052277
38.19 	0.056795 	4930 	0.056082
38.21 	0.056876 	4923 	0.056162
38.23 	0.056906 	4938 	0.056194
38.25 	0.070978 	4917 	0.068933
38.27 	0.066126 	4930 	0.065175
38.29 	0.065800 	4924 	0.064591
38.31 	0.065963 	4927 	0.064774
38.33 	0.070877 	4924 	0.069688
38.35 	0.065138 	4928 	0.064306
38.37 	0.069659 	4924 	0.068826
38.39 	0.071705 	4909 	0.070512
38.41 	0.078611 	4923 	0.076469
38.43 	0.070993 	4916 	0.069444
38.45 	0.070760 	4918 	0.069450
38.47 	0.072753 	4907 	0.070843
38.49 	0.073611 	4877 	0.072630
38.51 	0.070357 	4932 	0.068932
38.53 	0.072631 	4929 	0.071186
38.55 	0.071718 	4936 	0.070650
38.57 	0.069267 	4923 	0.068077
38.59 	0.068440 	4924 	0.067608
38.61 	0.072326 	4936 	0.070783
38.63 	0.073111 	4924 	0.072279
38.65 	0.066287 	4918 	0.065334
38.67 	0.069273 	4937 	0.068324
38.69 	0.065827 	4922 	0.064855
38.71 	0.065597 	4924 	0.063674
38.73 	0.060594 	4918 	0.059522
38.75 	0.063933 	4927 	0.062388
38.77 	0.056673 	4923 	0.055126
38.79 	0.056749 	4934 	0.055799
38.81 	0.054153 	4912 	0.052722
38.83 	0.051230 	4919 	0.050873
38.85 	0.057003 	4912 	0.056288
38.87 	0.052535 	4911 	0.051581
38.89 	0.047376 	4897 	0.046419
38.91 	0.052417 	4903 	0.051103
38.93 	0.046780 	4938 	0.045693
38.95 	0.046360 	4918 	0.046003
38.97 	0.053133 	4931 	0.052539
38.99 	0.048815 	4937 	0.048578
39.01 	0.047174 	4918 	0.046935
39.03 	0.047426 	4934 	0.047070
39.05 	0.050152 	4925 	0.049320
39.07 	0.044476 	4924 	0.043762
39.09 	0.046923 	4923 	0.046546
39.11 	0.046846 	4931 	0.046371
39.13 	0.045704 	4923 	0.045347
39.15 	0.042319 	4915 	0.042081
39.17 	0.050233 	4937 	0.049640
39.19 	0.046370 	4917 	0.046131
39.21 	0.049898 	4910 	0.048944
39.23 	0.049949 	4925 	0.049355
39.25 	0.046932 	4922 	0.046218
39.27 	0.050509 	4910 	0.049774
39.29 	0.045093 	4901 	0.044376
39.31 	0.041155 	4884 	0.040675
39.33 	0.048874 	4931 	0.047805
39.35 	0.048632 	4935 	0.048157
39.37 	0.049300 	4929 	0.048587
39.39 	0.041591 	4929 	0.041353
39.41 	0.050294 	4931 	0.049938
39.43 	0.044598 	4933 	0.044241
39.45 	0.043452 	4925 	0.042738
39.47 	0.045704 	4923 	0.045466
39.49 	0.047841 	4933 	0.046990
39.51 	0.040414 	4924 	0.040176
39.53 	0.049563 	4923 	0.048730
39.55 	0.046757 	4919 	0.045924
39.57 	0.043787 	4933 	0.043312
39.59 	0.040717 	4912 	0.040478
39.61 	0.045298 	4923 	0.045179
39.63 	0.046119 	4922 	0.045643
39.65 	0.043443 	4926 	0.042611
39.67 	0.046407 	4913 	0.045215
39.69 	0.046379 	4916 	0.045903
39.71 	0.042084 	4895 	0.041844
39.73 	0.051141 	4908 	0.050425
39.75 	0.040787 	4928 	0.040312
39.77 	0.041945 	4935 	0.041470
39.79 	0.043443 	4926 	0.042967
39.81 	0.040390 	4927 	0.040033
39.83 	0.043778 	4934 	0.042947
39.85 	0.045261 	4927 	0.044666
39.87 	0.047919 	4925 	0.047443
39.89 	0.048237 	4934 	0.047505
39.91 	0.044494 	4922 	0.043899
39.93 	0.045372 	4937 	0.045016
39.95 	0.045575 	4915 	0.045098
39.97 	0.049919 	4928 	0.048968
39.99 	0.045823 	4932 	0.045229
40.01 	0.039447 	4918 	0.039209
40.03 	0.039570 	4928 	0.038975
40.05 	0.043116 	4917 	0.042639
40.07 	0.041844 	4923 	0.041368
40.09 	0.044955 	4916 	0.044717
40.11 	0.044752 	4916 	0.043799
40.13 	0.043505 	4896 	0.042548
40.15 	0.043151 	4913 	0.042316
40.17 	0.043628 	4928 	0.042796
40.19 	0.045648 	4929 	0.044935
40.21 	0.041337 	4935 	0.041219
40.23 	0.050284 	4932 	0.049571
40.25 	0.037805 	4920 	0.037210
40.27 	0.046587 	4937 	0.045994
40.29 	0.040593 	4927 	0.039998
40.31 	0.042114 	4939 	0.041995
40.33 	0.042376 	4932 	0.041901
40.35 	0.044115 	4919 	0.043638
40.37 	0.039968 	4929 	0.039849
40.39 	0.045630 	4931 	0.045392
40.41 	0.038173 	4925 	0.037578
40.43 	0.044088 	4922 	0.043731
40.45 	0.039935 	4933 	0.039460
40.47 	0.043717 	4918 	0.043598
40.49 	0.042631 	4926 	0.041561
40.51 	0.041040 	4922 	0.040445
40.53 	0.040073 	4916 	0.039835
40.55 	0.037897 	4908 	0.037897
40.57 	0.039059 	4890 	0.038820
40.59 	0.039093 	4937 	0.038618
40.61 	0.042756 	4935 	0.042400
40.63 	0.040974 	4930 	0.040855
40.65 	0.036662 	4937 	0.036187
40.67 	0.044404 	4932 	0.043929
40.69 	0.044561 	4937 	0.044206
40.71 	0.041768 	4932 	0.041531
40.73 	0.042428 	4926 	0.041952
40.75 	0.045832 	4931 	0.045357
40.77 	0.046163 	4939 	0.045570
40.79 	0.045491 	4924 	0.044401
40.81 	0.040478 	4941 	0.040003
40.83 	0.042614 	4928 	0.041524
40.85 	0.042445 	4924 	0.042326
40.87 	0.041396 	4928 	0.041039
40.89 	0.040763 	4931 	0.040287
40.91 	0.046313 	4923 	0.045718
40.93 	0.040940 	4934 	0.040466
40.95 	0.044372 	4913 	0.044253
40.97 	0.038790 	4924 	0.038294
40.99 	0.041836 	4924 	0.041479
41.01 	0.042549 	4912 	0.041833
41.03 	0.040163 	4905 	0.039685
41.05 	0.045583 	4936 	0.045227
41.07 	0.043813 	4930 	0.043219
41.09 	0.044543 	4939 	0.043832
41.11 	0.044580 	4935 	0.043630
41.13 	0.040316 	4936 	0.039841
41.15 	0.044728 	4941 	0.044728
41.17 	0.042359 	4934 	0.041884
41.19 	0.039351 	4930 	0.038757
41.21 	0.041928 	4937 	0.041098
41.23 	0.040494 	4939 	0.039545
41.25 	0.042570 	4933 	0.041957
41.27 	0.043805 	4931 	0.043211
41.29 	0.039570 	4928 	0.038857
41.31 	0.041760 	4933 	0.041166
41.33 	0.037067 	4937 	0.036711
41.35 	0.042122 	4938 	0.041648
41.37 	0.042242 	4924 	0.041766
41.39 	0.042368 	4933 	0.041655
41.41 	0.040804 	4926 	0.040566
41.43 	0.041185 	4929 	0.041185
41.45 	0.042532 	4914 	0.042293
41.47 	0.044864 	4926 	0.044745
41.49 	0.042110 	4892 	0.041870
41.51 	0.037045 	4940 	0.036807
41.53 	0.042071 	4944 	0.041360
41.55 	0.039311 	4935 	0.039192
41.57 	0.040478 	4941 	0.040102
41.59 	0.038719 	4933 	0.038481
41.61 	0.038361 	4953 	0.038124
41.63 	0.044147 	4938 	0.043436
41.65 	0.037330 	4929 	0.037211
41.67 	0.034818 	4940 	0.034343
41.69 	0.037599 	4947 	0.037362
41.71 	0.036887 	4934 	0.036768
41.73 	0.046191 	4936 	0.045361
41.75 	0.038953 	4929 	0.038359
41.77 	0.040680 	4941 	0.040087
41.79 	0.040858 	4944 	0.040384
41.81 	0.040721 	4936 	0.040128
41.83 	0.042411 	4928 	0.042292
41.85 	0.042721 	4939 	0.042484
41.87 	0.038501 	4935 	0.038144
41.89 	0.040341 	4933 	0.039984
41.91 	0.043152 	4936 	0.042678
41.93 	0.035888 	4932 	0.035294
41.95 	0.038329 	4931 	0.037973
41.97 	0.035409 	4914 	0.034694
41.99 	0.039755 	4905 	0.039517
42.01 	0.038851 	4942 	0.038377
42.03 	0.035027 	4939 	0.034553
42.05 	0.040792 	4952 	0.040082
42.07 	0.039093 	4937 	0.038737
42.09 	0.039612 	4948 	0.039138
42.11 	0.040647 	4945 	0.040292
42.13 	0.033165 	4945 	0.032809
42.15 	0.046173 	4938 	0.045579
42.17 	0.038024 	4918 	0.037547
42.19 	0.037694 	4908 	0.037455
42.21 	0.037747 	4901 	0.037150
42.23 	0.043132 	4892 	0.042653
42.25 	0.039067 	4889 	0.038947
42.27 	0.042265 	4874 	0.041664
42.29 	0.039276 	4863 	0.038794
42.31 	0.032956 	4855 	0.032835
42.33 	0.038271 	4834 	0.038028
42.35 	0.035345 	4838 	0.035224
42.37 	0.042236 	4830 	0.041630
42.39 	0.034555 	4804 	0.034433
42.41 	0.041216 	4804 	0.040484
42.43 	0.037145 	4792 	0.036779
42.45 	0.034757 	4776 	0.034389
42.47 	0.034627 	4765 	0.034627
42.49 	0.038825 	4765 	0.038456
42.51 	0.041113 	4743 	0.040866
42.53 	0.037014 	4728 	0.036890
42.55 	0.039295 	4708 	0.038922
42.57 	0.041015 	4730 	0.040128
42.59 	0.038486 	4729 	0.037743
42.61 	0.032285 	4708 	0.032037
42.63 	0.043746 	4709 	0.043373
42.65 	0.037994 	4685 	0.037618
42.67 	0.035653 	4684 	0.035528
42.69 	0.039795 	4674 	0.039419
42.71 	0.036886 	4663 	0.036761
42.73 	0.030603 	4640 	0.030603
42.75 	0.034438 	4617 	0.034057
42.77 	0.036304 	4600 	0.036050
42.79 	0.032737 	4582 	0.032737
42.81 	0.040114 	4562 	0.039729
42.83 	0.037478 	4536 	0.037478
42.85 	0.034452 	4528 	0.034452
42.87 	0.040898 	4499 	0.040638
42.89 	0.037054 	4480 	0.036792
42.91 	0.031194 	4456 	0.030800
42.93 	0.037562 	4446 	0.037167
42.95 	0.036458 	4416 	0.036193
42.97 	0.034992 	4401 	0.034859
42.99 	0.034664 	4385 	0.034530
43.01 	0.039881 	4363 	0.039881
43.03 	0.034156 	4333 	0.033886
43.05 	0.035376 	4325 	0.034969
43.07 	0.037709 	4296 	0.036869
43.09 	0.040392 	4283 	0.040255
43.11 	0.037603 	4255 	0.037465
43.13 	0.039651 	4237 	0.039374
43.15 	0.030908 	4206 	0.030212
43.17 	0.035654 	4179 	0.034954
43.19 	0.034573 	4194 	0.034294
43.21 	0.036913 	4172 	0.036913
43.23 	0.035628 	4154 	0.035628
43.25 	0.042080 	4135 	0.041938
43.27 	0.033861 	4105 	0.033290
43.29 	0.037317 	4100 	0.036460
43.31 	0.043638 	4079 	0.043064
43.33 	0.043940 	4051 	0.042928
43.35 	0.037946 	4032 	0.037220
43.37 	0.037858 	4015 	0.037274
43.39 	0.033483 	4002 	0.033483
43.41 	0.040785 	3972 	0.040638
43.43 	0.033838 	3960 	0.033395
43.45 	0.038374 	3935 	0.038076
43.47 	0.029839 	3921 	0.029242
43.49 	0.036438 	3897 	0.035987
43.51 	0.037658 	3877 	0.036600
43.53 	0.037277 	3863 	0.036973
43.55 	0.037449 	2964 	0.037054
43.57 	0.042895 	2238 	0.042895
43.59 	0.037228 	1746 	0.036502
43.61 	0.032568 	1351 	0.032135
43.63 	0.035964 	1001 	0.035964
43.65 	0.032023 	687 	0.032023
43.67 	0.043825 	502 	0.041491
43.69 	0.035422 	367 	0.035422
43.71 	0.066946 	239 	0.066946
43.73 	0.033333 	120 	0.033333
43.75 	0.062500 	16 	0.062500