File: Example_Data/25SC_s1_0016.000.dat
#F C:\frames\spec\25SC_s1_0016.000
#C title =s:16 frm:0 25SC_s1
#C wavelength =0.15406

#S 1  fr_average C:\frames\spec\25SC_s1_0016.000 C:\win32app\speccom\mask.axs chi 0 180 0 360 0.02
#C 2 theta =0.000000 to 180 deg
#C   q   =0.000000 to 81.568 nm^-1
#C  chi  =0.000000 to 360 deg
#C collumns:
#C  1 position (2theta or chi in degrees)
#C  2 average intensity (sum of all counts in the region divided with number of pixels)
#C  3 Number of pixels in region)
#C  4 error (sum of sqrt(intensity) for all pixels divided by number)
#N 4
#L TTh  Int  N_pix  Err
32.99 	0.081967 	61 	0.081967
33.01 	0.051546 	873 	0.048862
33.03 	0.048167 	1391 	0.047746
33.05 	0.060330 	1757 	0.058997
33.07 	0.065366 	2050 	0.064223
33.09 	0.060929 	2347 	0.059681
33.11 	0.058550 	2579 	0.057641
33.13 	0.058718 	2793 	0.058508
33.15 	0.058686 	2999 	0.057905
33.17 	0.066229 	3201 	0.065314
33.19 	0.058947 	3342 	0.057720
33.21 	0.053551 	3436 	0.053380
33.23 	0.059324 	3523 	0.057662
33.25 	0.057586 	3612 	0.056775
33.27 	0.062259 	3630 	0.060807
33.29 	0.048794 	3648 	0.048152
33.31 	0.056557 	3660 	0.055597
33.33 	0.058329 	3686 	0.057693
33.35 	0.063887 	3694 	0.062777
33.37 	0.063813 	3714 	0.062078
33.39 	0.060070 	3729 	0.059284
33.41 	0.062032 	3740 	0.060779
33.43 	0.057963 	3761 	0.056873
33.45 	0.063610 	3773 	0.062187
33.47 	0.058452 	3798 	0.058298
33.49 	0.060383 	3809 	0.059307
33.51 	0.050590 	3815 	0.049668
33.53 	0.054934 	3841 	0.054629
33.55 	0.061671 	3843 	0.060756
33.57 	0.062935 	3877 	0.061878
33.59 	0.063660 	3880 	0.062301
33.61 	0.061653 	3909 	0.060154
33.63 	0.058944 	3919 	0.057748
33.65 	0.055457 	3931 	0.054563
33.67 	0.062468 	3954 	0.060987
33.69 	0.060713 	3953 	0.059972
33.71 	0.062642 	3975 	0.061315
33.73 	0.058941 	4004 	0.057478
33.75 	0.065266 	3999 	0.064241
33.77 	0.064596 	4025 	0.063699
33.79 	0.066073 	4041 	0.065058
33.81 	0.057454 	4038 	0.056584
33.83 	0.059259 	4050 	0.058247
33.85 	0.060259 	4099 	0.058806
33.87 	0.054245 	4111 	0.053390
33.89 	0.063091 	4121 	0.063091
33.91 	0.057604 	4149 	0.056757
33.93 	0.053240 	4151 	0.052676
33.95 	0.061708 	4181 	0.060587
33.97 	0.058234 	4190 	0.057814
33.99 	0.064286 	4200 	0.062729
34.01 	0.055542 	4213 	0.054430
34.03 	0.061499 	4244 	0.060670
34.05 	0.058561 	4252 	0.057574
34.07 	0.059513 	4268 	0.058529
34.09 	0.057629 	4286 	0.056809
34.11 	0.063924 	4302 	0.062154
34.13 	0.059889 	4308 	0.058370
34.15 	0.051720 	4331 	0.051179
34.17 	0.056552 	4350 	0.055878
34.19 	0.059147 	4362 	0.057514
34.21 	0.059941 	4371 	0.059136
34.23 	0.061006 	4393 	0.060073
34.25 	0.050409 	4404 	0.049877
34.27 	0.061511 	4422 	0.061113
34.29 	0.061330 	4435 	0.060274
34.31 	0.049349 	4458 	0.048014
34.33 	0.055692 	4471 	0.054775
34.35 	0.058653 	4484 	0.057739
34.37 	0.054776 	4491 	0.054124
34.39 	0.058863 	4502 	0.058082
34.41 	0.057004 	4526 	0.055430
34.43 	0.060806 	4539 	0.060032
34.45 	0.056009 	4535 	0.054308
34.47 	0.053354 	4592 	0.052312
34.49 	0.060692 	4597 	0.059800
34.51 	0.058619 	4606 	0.057729
34.53 	0.054921 	4643 	0.054291
34.55 	0.056429 	4643 	0.054894
34.57 	0.050429 	4660 	0.049424
34.59 	0.057326 	4675 	0.055551
34.61 	0.060251 	4697 	0.058879
34.63 	0.055839 	4710 	0.054844
34.65 	0.054861 	4721 	0.054365
34.67 	0.058637 	4741 	0.057278
34.69 	0.053218 	4754 	0.052109
34.71 	0.051825 	4766 	0.051211
34.73 	0.059954 	4787 	0.059097
34.75 	0.059068 	4808 	0.058215
34.77 	0.053134 	4818 	0.051797
34.79 	0.056385 	4824 	0.055778
34.81 	0.052838 	4845 	0.051488
34.83 	0.057795 	4862 	0.057313
34.85 	0.050729 	4869 	0.050609
34.87 	0.057108 	4868 	0.056626
34.89 	0.054691 	4882 	0.053851
34.91 	0.056944 	4882 	0.056584
34.93 	0.050214 	4899 	0.049975
34.95 	0.057464 	4890 	0.056985
34.97 	0.054876 	4902 	0.054398
34.99 	0.060649 	4897 	0.059573
35.01 	0.057282 	4923 	0.056449
35.03 	0.056241 	4943 	0.054938
35.05 	0.064281 	4947 	0.063315
35.07 	0.055870 	4940 	0.054922
35.09 	0.055118 	4953 	0.054290
35.11 	0.055387 	4947 	0.054558
35.13 	0.054861 	4958 	0.054152
35.15 	0.061373 	4937 	0.060543
35.17 	0.055803 	4946 	0.054974
35.19 	0.063942 	4942 	0.063349
35.21 	0.047725 	4945 	0.047370
35.23 	0.062083 	4945 	0.060780
35.25 	0.060287 	4943 	0.059300
35.27 	0.058610 	4948 	0.057899
35.29 	0.051365 	4945 	0.050891
35.31 	0.054125 	4933 	0.053294
35.33 	0.064738 	4943 	0.063671
35.35 	0.052206 	4942 	0.051613
35.37 	0.058514 	4939 	0.057091
35.39 	0.064105 	4945 	0.062565
35.41 	0.051969 	4926 	0.051375
35.43 	0.057166 	4933 	0.056335
35.45 	0.056715 	4937 	0.056121
35.47 	0.059014 	4931 	0.058183
35.49 	0.057230 	4910 	0.055898
35.51 	0.055217 	4926 	0.054504
35.53 	0.054354 	4949 	0.053881
35.55 	0.055005 	4945 	0.053801
35.57 	0.061423 	4933 	0.060473
35.59 	0.060667 	4945 	0.059601
35.61 	0.053015 	4942 	0.052896
35.63 	0.057253 	4943 	0.056423
35.65 	0.060263 	4945 	0.058012
35.67 	0.060704 	4942 	0.059637
35.69 	0.056814 	4946 	0.055866
35.71 	0.056309 	4937 	0.055123
35.73 	0.052066 	4936 	0.051117
35.75 	0.056784 	4931 	0.055596
35.77 	0.057362 	4951 	0.056416
35.79 	0.057380 	4932 	0.056549
35.81 	0.062437 	4933 	0.060655
35.83 	0.056814 	4946 	0.055985
35.85 	0.054306 	4935 	0.053456
35.87 	0.052610 	4923 	0.052134
35.89 	0.056141 	4934 	0.054598
35.91 	0.060686 	4927 	0.059121
35.93 	0.060077 	4927 	0.059126
35.95 	0.060403 	4917 	0.059450
35.97 	0.052728 	4912 	0.051774
35.99 	0.057906 	4939 	0.056720
36.01 	0.057606 	4930 	0.056894
36.03 	0.062513 	4943 	0.061170
36.05 	0.056421 	4945 	0.055473
36.07 	0.062158 	4939 	0.060716
36.09 	0.063360 	4940 	0.062036
36.11 	0.056401 	4929 	0.055450
36.13 	0.057062 	4942 	0.056588
36.15 	0.059729 	4939 	0.058898
36.17 	0.059492 	4925 	0.058184
36.19 	0.053036 	4940 	0.052444
36.21 	0.053966 	4929 	0.053253
36.23 	0.054711 	4935 	0.053406
36.25 	0.058895 	4941 	0.057472
36.27 	0.065381 	4925 	0.064548
36.29 	0.054756 	4931 	0.053568
36.31 	0.057630 	4928 	0.056322
36.33 	0.060004 	4933 	0.058460
36.35 	0.056401 	4929 	0.055212
36.37 	0.060938 	4923 	0.059749
36.39 	0.066450 	4921 	0.065140
36.41 	0.058619 	4896 	0.057303
36.43 	0.058442 	4928 	0.057847
36.45 	0.057606 	4930 	0.056775
36.47 	0.060575 	4936 	0.059488
36.49 	0.059288 	4942 	0.058695
36.51 	0.061018 	4933 	0.059573
36.53 	0.056443 	4943 	0.055200
36.55 	0.065557 	4927 	0.064012
36.57 	0.058168 	4934 	0.056506
36.59 	0.056894 	4939 	0.056301
36.61 	0.062259 	4931 	0.060596
36.63 	0.057189 	4931 	0.056239
36.65 	0.064071 	4932 	0.062508
36.67 	0.056998 	4930 	0.055929
36.69 	0.058835 	4929 	0.057290
36.71 	0.060760 	4921 	0.059093
36.73 	0.058477 	4925 	0.057407
36.75 	0.053803 	4944 	0.053210
36.77 	0.060581 	4919 	0.058776
36.79 	0.056493 	4921 	0.055302
36.81 	0.065094 	4916 	0.063545
36.83 	0.057782 	4915 	0.056590
36.85 	0.059412 	4898 	0.058694
36.87 	0.059061 	4944 	0.057995
36.89 	0.055126 	4916 	0.053458
36.91 	0.056871 	4941 	0.055923
36.93 	0.053347 	4930 	0.051426
36.95 	0.060207 	4933 	0.058782
36.97 	0.058168 	4934 	0.057099
36.99 	0.068896 	4935 	0.067827
37.01 	0.060409 	4933 	0.059460
37.03 	0.060723 	4924 	0.059890
37.05 	0.055206 	4927 	0.054730
37.07 	0.062411 	4935 	0.061343
37.09 	0.056615 	4928 	0.055308
37.11 	0.062614 	4935 	0.061308
37.13 	0.059708 	4924 	0.058756
37.15 	0.060094 	4909 	0.058900
37.17 	0.060803 	4934 	0.059734
37.19 	0.059492 	4925 	0.058303
37.21 	0.066911 	4917 	0.065362
37.23 	0.063847 	4918 	0.062299
37.25 	0.060884 	4911 	0.059333
37.27 	0.065182 	4894 	0.063985
37.29 	0.064503 	4930 	0.063315
37.31 	0.060790 	4935 	0.059366
37.33 	0.054394 	4927 	0.053562
37.35 	0.057108 	4938 	0.056752
37.37 	0.058859 	4927 	0.057908
37.39 	0.064896 	4931 	0.063708
37.41 	0.061245 	4931 	0.060414
37.43 	0.064680 	4932 	0.063729
37.45 	0.059708 	4924 	0.058141
37.47 	0.068371 	4929 	0.067539
37.49 	0.061751 	4923 	0.060185
37.51 	0.054531 	4933 	0.053462
37.53 	0.061395 	4919 	0.059846
37.55 	0.059432 	4930 	0.058363
37.57 	0.056853 	4925 	0.056258
37.59 	0.052289 	4915 	0.051097
37.61 	0.055465 	4922 	0.054394
37.63 	0.061191 	4919 	0.060477
37.65 	0.058357 	4918 	0.057285
37.67 	0.057708 	4904 	0.056633
37.69 	0.054920 	4898 	0.054322
37.71 	0.058835 	4929 	0.058360
37.73 	0.056604 	4929 	0.056010
37.75 	0.053644 	4940 	0.052932
37.77 	0.062195 	4920 	0.061124
37.79 	0.057809 	4930 	0.056740
37.81 	0.061423 	4933 	0.060473
37.83 	0.056707 	4920 	0.056112
37.85 	0.056075 	4922 	0.055123
37.87 	0.063576 	4939 	0.062706
37.89 	0.057665 	4925 	0.057189
37.91 	0.059838 	4930 	0.059125
37.93 	0.060581 	4919 	0.059629
37.95 	0.056289 	4921 	0.055218
37.97 	0.048691 	4929 	0.048335
37.99 	0.055782 	4912 	0.054947
38.01 	0.055804 	4928 	0.055090
38.03 	0.056223 	4909 	0.055388
38.05 	0.057868 	4925 	0.057273
38.07 	0.056631 	4909 	0.055557
38.09 	0.050226 	4878 	0.048424
38.11 	0.052888 	4935 	0.052769
38.13 	0.055297 	4937 	0.054585
38.15 	0.058560 	4918 	0.057369
38.17 	0.052130 	4930 	0.051655
38.19 	0.058418 	4930 	0.057230
38.21 	0.053829 	4923 	0.052520
38.23 	0.060348 	4938 	0.058925
38.25 	0.062030 	4917 	0.060957
38.27 	0.056187 	4930 	0.054979
38.29 	0.055849 	4924 	0.054045
38.31 	0.062107 	4927 	0.060799
38.33 	0.063363 	4924 	0.062154
38.35 	0.058036 	4928 	0.057204
38.37 	0.061535 	4924 	0.060346
38.39 	0.062131 	4909 	0.061057
38.41 	0.056470 	4923 	0.055498
38.43 	0.059194 	4916 	0.057765
38.45 	0.069947 	4918 	0.068637
38.47 	0.069289 	4907 	0.068095
38.49 	0.070945 	4877 	0.069023
38.51 	0.073601 	4932 	0.072413
38.53 	0.069182 	4929 	0.067479
38.55 	0.070300 	4936 	0.068638
38.57 	0.070892 	4923 	0.069226
38.59 	0.067628 	4924 	0.066319
38.61 	0.082861 	4936 	0.080567
38.63 	0.077173 	4924 	0.075270
38.65 	0.072794 	4918 	0.070988
38.67 	0.084869 	4937 	0.083208
38.69 	0.086144 	4922 	0.083764
38.71 	0.075548 	4924 	0.073387
38.73 	0.076047 	4918 	0.074975
38.75 	0.085650 	4927 	0.082996
38.77 	0.074345 	4923 	0.072798
38.79 	0.087150 	4934 	0.085132
38.81 	0.085301 	4912 	0.083632
38.83 	0.076845 	4919 	0.074662
38.85 	0.073290 	4912 	0.071978
38.87 	0.072287 	4911 	0.071074
38.89 	0.068409 	4897 	0.067093
38.91 	0.067510 	4903 	0.066673
38.93 	0.072701 	4938 	0.071021
38.95 	0.061204 	4918 	0.060608
38.97 	0.061651 	4931 	0.060938
38.99 	0.058943 	4937 	0.057400
39.01 	0.054087 	4918 	0.052995
39.03 	0.057357 	4934 	0.056526
39.05 	0.057868 	4925 	0.056798
39.07 	0.058895 	4924 	0.057943
39.09 	0.052407 	4923 	0.052169
39.11 	0.054756 	4931 	0.053092
39.13 	0.053016 	4923 	0.052184
39.15 	0.052492 	4915 	0.051658
39.17 	0.051246 	4937 	0.050890
39.19 	0.055725 	4917 	0.054772
39.21 	0.050306 	4910 	0.050067
39.23 	0.045482 	4925 	0.044650
39.25 	0.047948 	4922 	0.047234
39.27 	0.051120 	4910 	0.050046
39.29 	0.046725 	4901 	0.046486
39.31 	0.039312 	4884 	0.039312
39.33 	0.046238 	4931 	0.045387
39.35 	0.049645 	4935 	0.048933
39.37 	0.047677 	4929 	0.047083
39.39 	0.050112 	4929 	0.049399
39.41 	0.052322 	4931 	0.051490
39.43 	0.043584 	4933 	0.042872
39.45 	0.047310 	4925 	0.046477
39.47 	0.049360 	4923 	0.048884
39.49 	0.047638 	4933 	0.047163
39.51 	0.050162 	4924 	0.049687
39.53 	0.045704 	4923 	0.044990
39.55 	0.048384 	4919 	0.048027
39.57 	0.050071 	4933 	0.049002
39.59 	0.048249 	4912 	0.047772
39.61 	0.048751 	4923 	0.048156
39.63 	0.048151 	4922 	0.047199
39.65 	0.041413 	4926 	0.041056
39.67 	0.043761 	4913 	0.043285
39.69 	0.050651 	4916 	0.050174
39.71 	0.041471 	4895 	0.040992
39.73 	0.051956 	4908 	0.050285
39.75 	0.041396 	4928 	0.041039
39.77 	0.044377 	4935 	0.043546
39.79 	0.041007 	4926 	0.040531
39.81 	0.048711 	4927 	0.048473
39.83 	0.049047 	4934 	0.048573
39.85 	0.049320 	4927 	0.048250
39.87 	0.044670 	4925 	0.044194
39.89 	0.047426 	4934 	0.046832
39.91 	0.042666 	4922 	0.042309
39.93 	0.040308 	4937 	0.039833
39.95 	0.046999 	4915 	0.046403
39.97 	0.047484 	4928 	0.046771
39.99 	0.043796 	4932 	0.042845
40.01 	0.046564 	4918 	0.046206
40.03 	0.047281 	4928 	0.046568
40.05 	0.040675 	4917 	0.040437
40.07 	0.049970 	4923 	0.049851
40.09 	0.044548 	4916 	0.044191
40.11 	0.045769 	4916 	0.045411
40.13 	0.041258 	4896 	0.040780
40.15 	0.048036 	4913 	0.047917
40.17 	0.043628 	4928 	0.043153
40.19 	0.042808 	4929 	0.042332
40.21 	0.046403 	4935 	0.046047
40.23 	0.039943 	4932 	0.039824
40.25 	0.044309 	4920 	0.043714
40.27 	0.043144 	4937 	0.042906
40.29 	0.046073 	4927 	0.045716
40.31 	0.047378 	4939 	0.046429
40.33 	0.041565 	4932 	0.041328
40.35 	0.045741 	4919 	0.044550
40.37 	0.044025 	4929 	0.043550
40.39 	0.042993 	4931 	0.042518
40.41 	0.042437 	4925 	0.041961
40.43 	0.044088 	4922 	0.043850
40.45 	0.040949 	4933 	0.040117
40.47 	0.044530 	4918 	0.043816
40.49 	0.047097 	4926 	0.046859
40.51 	0.044900 	4922 	0.044543
40.53 	0.042718 	4916 	0.042241
40.55 	0.042176 	4908 	0.041937
40.57 	0.047035 	4890 	0.047035
40.59 	0.042131 	4937 	0.041894
40.61 	0.040527 	4935 	0.040289
40.63 	0.040162 	4930 	0.039925
40.65 	0.043549 	4937 	0.043549
40.67 	0.040957 	4932 	0.040244
40.69 	0.041928 	4937 	0.041691
40.71 	0.040552 	4932 	0.039839
40.73 	0.045473 	4926 	0.044641
40.75 	0.044413 	4931 	0.043344
40.77 	0.039482 	4939 	0.039126
40.79 	0.047725 	4924 	0.047012
40.81 	0.047156 	4941 	0.046327
40.83 	0.047078 	4928 	0.046959
40.85 	0.042648 	4924 	0.042410
40.87 	0.043628 	4928 	0.043034
40.89 	0.042588 	4931 	0.042113
40.91 	0.042251 	4923 	0.041517
40.93 	0.045197 	4934 	0.044484
40.95 	0.044372 	4913 	0.043299
40.97 	0.040820 	4924 	0.040107
40.99 	0.044070 	4924 	0.043713
41.01 	0.039902 	4912 	0.039187
41.03 	0.039551 	4905 	0.038835
41.05 	0.045178 	4936 	0.044704
41.07 	0.043611 	4930 	0.043373
41.09 	0.041101 	4939 	0.040627
41.11 	0.042756 	4935 	0.042281
41.13 	0.043963 	4936 	0.043725
41.15 	0.042299 	4941 	0.042062
41.17 	0.043778 	4934 	0.043303
41.19 	0.044625 	4930 	0.043793
41.21 	0.037270 	4937 	0.036914
41.23 	0.039482 	4939 	0.039244
41.25 	0.041760 	4933 	0.041285
41.27 	0.042791 	4931 	0.042078
41.29 	0.039570 	4928 	0.039094
41.31 	0.040341 	4933 	0.039747
41.33 	0.036864 	4937 	0.035915
41.35 	0.039895 	4938 	0.039657
41.37 	0.044679 	4924 	0.043846
41.39 	0.046422 	4933 	0.045710
41.41 	0.041819 	4926 	0.041343
41.43 	0.041591 	4929 	0.041115
41.45 	0.045381 	4914 	0.045142
41.47 	0.043443 	4926 	0.042967
41.49 	0.039043 	4892 	0.038564
41.51 	0.038057 	4940 	0.037582
41.53 	0.043487 	4944 	0.042895
41.55 	0.040122 	4935 	0.039765
41.57 	0.039061 	4941 	0.038587
41.59 	0.037908 	4933 	0.037789
41.61 	0.040985 	4953 	0.040749
41.63 	0.041312 	4938 	0.040956
41.65 	0.037533 	4929 	0.036919
41.67 	0.041903 	4940 	0.041666
41.69 	0.044269 	4947 	0.043677
41.71 	0.043981 	4934 	0.043624
41.73 	0.042139 	4936 	0.041665
41.75 	0.046257 	4929 	0.045781
41.77 	0.047561 	4941 	0.046850
41.79 	0.039037 	4944 	0.038682
41.81 	0.039911 	4936 	0.038843
41.83 	0.040584 	4928 	0.040228
41.85 	0.039482 	4939 	0.039126
41.87 	0.042148 	4935 	0.041673
41.89 	0.041962 	4933 	0.041349
41.91 	0.037277 	4936 	0.036565
41.93 	0.043796 	4932 	0.043558
41.95 	0.039140 	4931 	0.038903
41.97 	0.039886 	4914 	0.039409
41.99 	0.039348 	4905 	0.038631
42.01 	0.037839 	4942 	0.037602
42.03 	0.042316 	4939 	0.041723
42.05 	0.039580 	4952 	0.039107
42.07 	0.046587 	4937 	0.046231
42.09 	0.039410 	4948 	0.038936
42.11 	0.038625 	4945 	0.037796
42.13 	0.041052 	4945 	0.040696
42.15 	0.042730 	4938 	0.042493
42.17 	0.042294 	4918 	0.041817
42.19 	0.036064 	4908 	0.035706
42.21 	0.041624 	4901 	0.041266
42.23 	0.039043 	4892 	0.038445
42.25 	0.038454 	4889 	0.038094
42.27 	0.037546 	4874 	0.036945
42.29 	0.037220 	4863 	0.036858
42.31 	0.037693 	4855 	0.037210
42.33 	0.041580 	4834 	0.041096
42.35 	0.043820 	4838 	0.043093
42.37 	0.039130 	4830 	0.038767
42.39 	0.036636 	4804 	0.036392
42.41 	0.043922 	4804 	0.043556
42.43 	0.040067 	4792 	0.039456
42.45 	0.033291 	4776 	0.032924
42.47 	0.038615 	4765 	0.038123
42.49 	0.040504 	4765 	0.040381
42.51 	0.039848 	4743 	0.039478
42.53 	0.041878 	4728 	0.041506
42.55 	0.041844 	4708 	0.041470
42.57 	0.036575 	4730 	0.036204
42.59 	0.037852 	4729 	0.037604
42.61 	0.040144 	4708 	0.039896
42.63 	0.037375 	4709 	0.036504
42.65 	0.040342 	4685 	0.040216
42.67 	0.045260 	4684 	0.044364
42.69 	0.035730 	4674 	0.035228
42.71 	0.040746 	4663 	0.040621
42.73 	0.038793 	4640 	0.038667
42.75 	0.036604 	4617 	0.035716
42.77 	0.037826 	4600 	0.037699
42.79 	0.037538 	4582 	0.037283
42.81 	0.037703 	4562 	0.037318
42.83 	0.036817 	4536 	0.036558
42.85 	0.040194 	4528 	0.039936
42.87 	0.043343 	4499 	0.042562
42.89 	0.038393 	4480 	0.038131
42.91 	0.036580 	4456 	0.036448
42.93 	0.044984 	4446 	0.044589
42.95 	0.041667 	4416 	0.040982
42.97 	0.032493 	4401 	0.032093
42.99 	0.039453 	4385 	0.038918
43.01 	0.032088 	4363 	0.031954
43.03 	0.042696 	4333 	0.041749
43.05 	0.042543 	4325 	0.042137
43.07 	0.040503 	4296 	0.040230
43.09 	0.042260 	4283 	0.041987
43.11 	0.035018 	4255 	0.034605
43.13 	0.039415 	4237 	0.038424
43.15 	0.035426 	4206 	0.034868
43.17 	0.037330 	4179 	0.036909
43.19 	0.042918 	4194 	0.042499
43.21 	0.034036 	4172 	0.033756
43.23 	0.040202 	4154 	0.039920
43.25 	0.038694 	4135 	0.038552
43.27 	0.040195 	4105 	0.039481
43.29 	0.038537 	4100 	0.037822
43.31 	0.040206 	4079 	0.039488
43.33 	0.040484 	4051 	0.040339
43.35 	0.038194 	4032 	0.037759
43.37 	0.038107 	4015 	0.037815
43.39 	0.038731 	4002 	0.038438
43.41 	0.044310 	3972 	0.043868
43.43 	0.039899 	3960 	0.039751
43.45 	0.045235 	3935 	0.044788
43.47 	0.035705 	3921 	0.035556
43.49 	0.036695 	3897 	0.036394
43.51 	0.034047 	3877 	0.033594
43.53 	0.034688 	3863 	0.034385
43.55 	0.046896 	2964 	0.046303
43.57 	0.047364 	2238 	0.046317
43.59 	0.045819 	1746 	0.045484
43.61 	0.031828 	1351 	0.031828
43.63 	0.041958 	1001 	0.041373
43.65 	0.033479 	687 	0.032626
43.67 	0.041833 	502 	0.041833
43.69 	0.043597 	367 	0.043597
43.71 	0.020921 	239 	0.020921
43.73 	0.041667 	120 	0.041667
43.75 	0.125000 	16 	0.125000