File: Example_Data/25SC_s1_0009.001.dat
#F C:\frames\spec\25SC_s1_0009.001
#C title =s:9 frm:1 25SC_s1
#C wavelength =0.15406

#S 1  fr_average C:\frames\spec\25SC_s1_0009.001 C:\win32app\speccom\mask.axs chi 0 180 0 360 0.02
#C 2 theta =0.000000 to 180 deg
#C   q   =0.000000 to 81.568 nm^-1
#C  chi  =0.000000 to 360 deg
#C collumns:
#C  1 position (2theta or chi in degrees)
#C  2 average intensity (sum of all counts in the region divided with number of pixels)
#C  3 Number of pixels in region)
#C  4 error (sum of sqrt(intensity) for all pixels divided by number)
#N 4
#L TTh  Int  N_pix  Err
32.99 	0.081967 	61 	0.081967
33.01 	0.071019 	873 	0.071019
33.03 	0.065421 	1391 	0.064157
33.05 	0.062607 	1757 	0.061607
33.07 	0.057561 	2050 	0.057561
33.09 	0.048573 	2347 	0.048323
33.11 	0.055836 	2579 	0.054927
33.13 	0.056212 	2793 	0.055792
33.15 	0.059353 	2999 	0.058149
33.17 	0.057170 	3201 	0.056255
33.19 	0.066128 	3342 	0.064200
33.21 	0.059953 	3436 	0.058590
33.23 	0.062731 	3523 	0.062232
33.25 	0.058693 	3612 	0.058207
33.27 	0.059229 	3630 	0.057776
33.29 	0.053454 	3648 	0.052651
33.31 	0.053825 	3660 	0.053185
33.33 	0.065383 	3686 	0.064111
33.35 	0.059827 	3694 	0.058717
33.37 	0.063274 	3714 	0.062485
33.39 	0.059533 	3729 	0.059062
33.41 	0.056417 	3740 	0.054982
33.43 	0.061154 	3761 	0.060375
33.45 	0.052478 	3773 	0.051857
33.47 	0.054766 	3798 	0.053840
33.49 	0.060383 	3809 	0.059614
33.51 	0.055046 	3815 	0.053817
33.53 	0.052851 	3841 	0.051783
33.55 	0.062191 	3843 	0.060794
33.57 	0.060098 	3877 	0.058562
33.59 	0.055412 	3880 	0.054808
33.61 	0.063699 	3909 	0.062800
33.63 	0.055116 	3919 	0.054070
33.65 	0.058255 	3931 	0.057361
33.67 	0.051340 	3954 	0.051192
33.69 	0.056160 	3953 	0.055567
33.71 	0.056604 	3975 	0.056162
33.73 	0.056693 	4004 	0.055377
33.75 	0.059515 	3999 	0.058343
33.77 	0.057391 	4025 	0.055936
33.79 	0.053205 	4041 	0.052915
33.81 	0.061664 	4038 	0.060504
33.83 	0.060494 	4050 	0.059192
33.85 	0.058307 	4099 	0.057878
33.87 	0.061542 	4111 	0.060687
33.89 	0.060908 	4121 	0.059913
33.91 	0.058568 	4149 	0.057580
33.93 	0.053722 	4151 	0.053016
33.95 	0.054532 	4181 	0.053972
33.97 	0.057757 	4190 	0.056638
33.99 	0.047619 	4200 	0.047480
34.01 	0.062426 	4213 	0.061453
34.03 	0.061263 	4244 	0.060297
34.05 	0.060677 	4252 	0.059851
34.07 	0.055295 	4268 	0.054060
34.09 	0.058563 	4286 	0.056900
34.11 	0.059042 	4302 	0.058203
34.13 	0.060817 	4308 	0.060001
34.15 	0.061187 	4331 	0.059677
34.17 	0.056322 	4350 	0.054437
34.19 	0.059376 	4362 	0.058683
34.21 	0.059483 	4371 	0.058679
34.23 	0.058047 	4393 	0.057113
34.25 	0.057221 	4404 	0.056822
34.27 	0.061511 	4422 	0.060583
34.29 	0.060203 	4435 	0.059653
34.31 	0.062360 	4458 	0.061440
34.33 	0.061060 	4471 	0.059881
34.35 	0.061552 	4484 	0.060899
34.37 	0.055667 	4491 	0.055406
34.39 	0.055753 	4502 	0.054842
34.41 	0.058551 	4526 	0.057903
34.43 	0.060145 	4539 	0.058597
34.45 	0.057111 	4535 	0.056207
34.47 	0.048563 	4592 	0.048031
34.49 	0.056124 	4597 	0.054594
34.51 	0.053626 	4606 	0.053117
34.53 	0.051475 	4643 	0.050824
34.55 	0.061598 	4643 	0.060336
34.57 	0.059657 	4660 	0.058651
34.59 	0.053476 	4675 	0.053100
34.61 	0.056632 	4697 	0.055759
34.63 	0.051805 	4710 	0.050789
34.65 	0.059945 	4721 	0.058952
34.67 	0.051466 	4741 	0.050477
34.69 	0.057005 	4754 	0.056265
34.71 	0.054343 	4766 	0.053360
34.73 	0.052225 	4787 	0.051735
34.75 	0.051997 	4808 	0.051144
34.77 	0.059776 	4818 	0.059411
34.79 	0.055141 	4824 	0.054170
34.81 	0.053457 	4845 	0.052853
34.83 	0.053682 	4862 	0.053561
34.85 	0.062230 	4869 	0.061268
34.87 	0.052588 	4868 	0.051505
34.89 	0.053052 	4882 	0.052332
34.91 	0.061655 	4882 	0.060195
34.93 	0.061645 	4899 	0.060569
34.95 	0.060123 	4890 	0.059164
34.97 	0.052836 	4902 	0.052119
34.99 	0.061466 	4897 	0.060490
35.01 	0.060329 	4923 	0.059139
35.03 	0.056646 	4943 	0.055698
35.05 	0.050940 	4947 	0.050348
35.07 	0.059717 	4940 	0.059005
35.09 	0.058550 	4953 	0.057722
35.11 	0.052153 	4947 	0.050831
35.13 	0.061113 	4958 	0.059577
35.15 	0.064817 	4937 	0.063867
35.17 	0.061464 	4946 	0.060516
35.19 	0.052813 	4942 	0.051864
35.21 	0.059454 	4945 	0.058743
35.23 	0.061072 	4945 	0.060124
35.25 	0.053409 	4943 	0.052461
35.27 	0.065077 	4948 	0.064011
35.29 	0.055207 	4945 	0.054733
35.31 	0.056355 	4933 	0.055643
35.33 	0.053207 	4943 	0.052496
35.35 	0.060907 	4942 	0.059721
35.37 	0.052035 	4939 	0.051205
35.39 	0.061678 	4945 	0.061323
35.41 	0.056232 	4926 	0.055024
35.43 	0.055342 	4933 	0.054273
35.45 	0.057525 	4937 	0.056576
35.47 	0.058203 	4931 	0.057609
35.49 	0.054175 	4910 	0.053579
35.51 	0.054405 	4926 	0.053692
35.53 	0.055769 	4949 	0.055059
35.55 	0.054601 	4945 	0.053771
35.57 	0.052706 	4933 	0.052231
35.59 	0.057027 	4945 	0.056317
35.61 	0.059288 	4942 	0.058577
35.63 	0.057860 	4943 	0.056912
35.65 	0.058038 	4945 	0.057209
35.67 	0.059490 	4942 	0.058186
35.69 	0.054994 	4946 	0.054165
35.71 	0.054081 	4937 	0.053251
35.73 	0.054295 	4936 	0.053583
35.75 	0.055161 	4931 	0.054211
35.77 	0.055342 	4951 	0.054731
35.79 	0.054745 	4932 	0.053894
35.81 	0.058990 	4933 	0.058159
35.83 	0.058229 	4946 	0.057143
35.85 	0.057143 	4935 	0.056431
35.87 	0.055860 	4923 	0.054670
35.89 	0.055128 	4934 	0.054534
35.91 	0.064136 	4927 	0.062710
35.93 	0.056018 	4927 	0.054928
35.95 	0.055115 	4917 	0.054519
35.97 	0.060261 	4912 	0.058571
35.99 	0.050820 	4939 	0.050227
36.01 	0.058215 	4930 	0.057146
36.03 	0.057657 	4943 	0.056946
36.05 	0.061678 	4945 	0.060849
36.07 	0.057704 	4939 	0.056024
36.09 	0.056680 	4940 	0.055613
36.11 	0.058633 	4929 	0.057920
36.13 	0.057669 	4942 	0.056602
36.15 	0.059931 	4939 	0.059081
36.17 	0.059898 	4925 	0.058808
36.19 	0.048178 	4940 	0.047585
36.21 	0.057821 	4929 	0.057108
36.23 	0.055927 	4935 	0.055334
36.25 	0.059097 	4941 	0.058149
36.27 	0.059086 	4925 	0.057996
36.29 	0.055770 	4931 	0.054938
36.31 	0.061080 	4928 	0.060247
36.33 	0.066288 	4933 	0.064863
36.35 	0.054372 	4929 	0.053184
36.37 	0.060735 	4923 	0.060140
36.39 	0.057102 	4921 	0.056150
36.41 	0.054943 	4896 	0.053986
36.43 	0.065341 	4928 	0.064628
36.45 	0.063895 	4930 	0.062449
36.47 	0.059765 	4936 	0.058222
36.49 	0.069203 	4942 	0.068136
36.51 	0.059801 	4933 	0.059326
36.53 	0.061906 	4943 	0.059872
36.55 	0.060077 	4927 	0.059007
36.57 	0.065464 	4934 	0.064039
36.59 	0.060944 	4939 	0.060113
36.61 	0.057798 	4931 	0.057085
36.63 	0.065098 	4931 	0.063554
36.65 	0.055353 	4932 	0.054640
36.67 	0.060649 	4930 	0.059699
36.69 	0.058024 	4929 	0.057786
36.71 	0.058118 	4921 	0.057146
36.73 	0.066396 	4925 	0.064711
36.75 	0.056230 	4944 	0.054926
36.77 	0.056719 	4919 	0.055985
36.79 	0.061166 	4921 	0.060095
36.81 	0.056753 	4916 	0.055800
36.83 	0.062869 	4915 	0.061915
36.85 	0.061454 	4898 	0.060258
36.87 	0.056432 	4944 	0.054872
36.89 	0.056550 	4916 	0.055954
36.91 	0.062336 	4941 	0.060893
36.93 	0.060243 	4930 	0.059293
36.95 	0.064261 	4933 	0.062717
36.97 	0.067491 	4934 	0.065453
36.99 	0.062209 	4935 	0.061140
37.01 	0.059396 	4933 	0.058565
37.03 	0.056458 	4924 	0.055606
37.05 	0.060686 	4927 	0.059259
37.07 	0.056332 	4935 	0.055027
37.09 	0.062500 	4928 	0.060836
37.11 	0.061196 	4935 	0.059752
37.13 	0.052600 	4924 	0.051767
37.15 	0.059075 	4909 	0.057763
37.17 	0.053101 	4934 	0.052507
37.19 	0.058274 	4925 	0.057323
37.21 	0.054912 	4917 	0.054435
37.23 	0.062830 	4918 	0.061878
37.25 	0.061698 	4911 	0.060744
37.27 	0.059665 	4894 	0.058827
37.29 	0.058215 	4930 	0.057621
37.31 	0.056940 	4935 	0.055991
37.33 	0.058047 	4927 	0.056977
37.35 	0.059133 	4938 	0.058283
37.37 	0.057033 	4927 	0.056319
37.39 	0.061245 	4931 	0.060532
37.41 	0.060637 	4931 	0.059568
37.43 	0.058394 	4932 	0.057682
37.45 	0.062348 	4924 	0.060643
37.47 	0.055792 	4929 	0.054960
37.49 	0.058095 	4923 	0.057143
37.51 	0.050882 	4933 	0.049694
37.53 	0.057329 	4919 	0.055761
37.55 	0.056389 	4930 	0.055439
37.57 	0.058680 	4925 	0.057848
37.59 	0.051272 	4915 	0.050676
37.61 	0.057497 	4922 	0.056545
37.63 	0.046757 	4919 	0.046400
37.65 	0.058560 	4918 	0.057965
37.67 	0.054649 	4904 	0.053574
37.69 	0.055941 	4898 	0.054865
37.71 	0.059850 	4929 	0.058424
37.73 	0.058633 	4929 	0.057187
37.75 	0.051822 	4940 	0.050873
37.77 	0.061382 	4920 	0.060549
37.79 	0.058215 	4930 	0.057126
37.81 	0.056152 	4933 	0.055440
37.83 	0.056707 	4920 	0.056112
37.85 	0.056684 	4922 	0.055851
37.87 	0.051832 	4939 	0.051121
37.89 	0.052589 	4925 	0.051637
37.91 	0.060852 	4930 	0.059763
37.93 	0.053669 	4919 	0.052955
37.95 	0.056086 	4921 	0.055491
37.97 	0.059038 	4929 	0.058444
37.99 	0.051099 	4912 	0.050384
38.01 	0.057021 	4928 	0.055813
38.03 	0.056223 	4909 	0.055627
38.05 	0.055838 	4925 	0.055481
38.07 	0.056834 	4909 	0.054806
38.09 	0.059451 	4878 	0.058610
38.11 	0.055319 	4935 	0.053895
38.13 	0.051448 	4937 	0.050855
38.15 	0.052257 	4918 	0.051900
38.17 	0.054564 	4930 	0.053138
38.19 	0.059026 	4930 	0.057719
38.21 	0.056267 	4923 	0.055077
38.23 	0.054273 	4938 	0.053680
38.25 	0.055725 	4917 	0.054534
38.27 	0.052738 	4930 	0.051887
38.29 	0.060114 	4924 	0.059043
38.31 	0.057439 	4927 	0.056725
38.33 	0.062957 	4924 	0.062124
38.35 	0.058036 	4928 	0.057204
38.37 	0.058286 	4924 	0.056125
38.39 	0.060705 	4909 	0.059273
38.41 	0.062970 	4923 	0.061185
38.43 	0.053906 	4916 	0.053310
38.45 	0.063440 	4918 	0.062706
38.47 	0.064602 	4907 	0.062811
38.49 	0.064589 	4877 	0.063508
38.51 	0.069343 	4932 	0.067918
38.53 	0.057821 	4929 	0.056633
38.55 	0.068679 	4936 	0.066899
38.57 	0.063579 	4923 	0.062389
38.59 	0.068643 	4924 	0.067454
38.61 	0.076378 	4936 	0.074716
38.63 	0.068237 	4924 	0.066215
38.65 	0.074014 	4918 	0.072227
38.67 	0.069880 	4937 	0.067982
38.69 	0.074360 	4922 	0.072694
38.71 	0.071690 	4924 	0.069886
38.73 	0.074217 	4918 	0.072788
38.75 	0.072255 	4927 	0.071304
38.77 	0.068251 	4923 	0.066942
38.79 	0.076003 	4934 	0.075172
38.81 	0.063925 	4912 	0.062852
38.83 	0.065460 	4919 	0.064151
38.85 	0.069829 	4912 	0.068875
38.87 	0.061902 	4911 	0.061544
38.89 	0.061670 	4897 	0.061072
38.91 	0.057312 	4903 	0.056356
38.93 	0.061766 	4938 	0.060936
38.95 	0.054900 	4918 	0.053947
38.97 	0.053944 	4931 	0.053469
38.99 	0.053676 	4937 	0.051877
39.01 	0.053884 	4918 	0.052693
39.03 	0.055736 	4934 	0.055498
39.05 	0.056041 	4925 	0.055803
39.07 	0.045085 	4924 	0.043995
39.09 	0.050985 	4923 	0.049657
39.11 	0.050902 	4931 	0.050308
39.13 	0.049970 	4923 	0.049018
39.15 	0.053306 	4915 	0.052949
39.17 	0.047600 	4937 	0.047244
39.19 	0.052064 	4917 	0.051349
39.21 	0.047658 	4910 	0.046942
39.23 	0.040203 	4925 	0.039727
39.25 	0.052215 	4922 	0.051858
39.27 	0.049898 	4910 	0.049302
39.29 	0.047949 	4901 	0.047710
39.31 	0.044636 	4884 	0.044276
39.33 	0.042791 	4931 	0.042315
39.35 	0.047619 	4935 	0.046788
39.37 	0.045648 	4929 	0.045292
39.39 	0.041388 	4929 	0.040793
39.41 	0.041574 	4931 	0.041217
39.43 	0.045206 	4933 	0.044493
39.45 	0.045482 	4925 	0.045244
39.47 	0.046516 	4923 	0.045802
39.49 	0.044800 	4933 	0.044444
39.51 	0.044476 	4924 	0.043762
39.53 	0.050579 	4923 	0.049607
39.55 	0.041065 	4919 	0.039993
39.57 	0.048652 	4933 	0.047939
39.59 	0.044585 	4912 	0.044346
39.61 	0.049563 	4923 	0.048968
39.63 	0.041853 	4922 	0.041496
39.65 	0.045879 	4926 	0.045522
39.67 	0.045390 	4913 	0.044893
39.69 	0.046583 	4916 	0.045868
39.71 	0.048825 	4895 	0.047988
39.73 	0.045844 	4908 	0.045247
39.75 	0.037744 	4928 	0.037268
39.77 	0.038095 	4935 	0.037739
39.79 	0.044661 	4926 	0.043947
39.81 	0.043840 	4927 	0.043364
39.83 	0.045399 	4934 	0.044074
39.85 	0.047290 	4927 	0.046339
39.87 	0.044061 	4925 	0.043466
39.89 	0.044589 	4934 	0.044351
39.91 	0.040634 	4922 	0.040277
39.93 	0.040713 	4937 	0.040001
39.95 	0.040081 	4915 	0.039605
39.97 	0.045049 	4928 	0.044811
39.99 	0.042376 	4932 	0.041664
40.01 	0.042700 	4918 	0.042224
40.03 	0.045049 	4928 	0.044217
40.05 	0.048810 	4917 	0.048334
40.07 	0.037579 	4923 	0.037222
40.09 	0.043531 	4916 	0.042936
40.11 	0.045769 	4916 	0.044816
40.13 	0.046364 	4896 	0.045886
40.15 	0.047018 	4913 	0.046641
40.17 	0.046063 	4928 	0.045350
40.19 	0.046054 	4929 	0.045460
40.21 	0.044782 	4935 	0.044426
40.23 	0.045418 	4932 	0.044943
40.25 	0.045325 	4920 	0.044730
40.27 	0.044764 	4937 	0.044052
40.29 	0.041810 	4927 	0.041692
40.31 	0.040899 	4939 	0.040425
40.33 	0.043998 	4932 	0.042929
40.35 	0.045741 	4919 	0.044907
40.37 	0.042402 	4929 	0.041927
40.39 	0.041371 	4931 	0.040302
40.41 	0.042640 	4925 	0.042402
40.43 	0.038399 	4922 	0.037923
40.45 	0.040138 	4933 	0.039050
40.47 	0.044937 	4918 	0.044222
40.49 	0.041413 	4926 	0.041056
40.51 	0.042056 	4922 	0.041818
40.53 	0.039056 	4916 	0.038699
40.55 	0.044417 	4908 	0.043821
40.57 	0.041718 	4890 	0.040999
40.59 	0.040308 	4937 	0.039715
40.61 	0.040932 	4935 	0.040339
40.63 	0.042799 	4930 	0.042324
40.65 	0.040916 	4937 	0.040441
40.67 	0.039943 	4932 	0.039824
40.69 	0.040713 	4937 	0.039982
40.71 	0.042376 	4932 	0.041664
40.73 	0.040195 	4926 	0.040076
40.75 	0.040763 	4931 	0.040525
40.77 	0.037659 	4939 	0.037422
40.79 	0.044679 	4924 	0.044065
40.81 	0.045942 	4941 	0.045231
40.83 	0.047281 	4928 	0.046548
40.85 	0.036556 	4924 	0.036060
40.87 	0.042411 	4928 	0.041816
40.89 	0.047658 	4931 	0.046826
40.91 	0.038188 	4923 	0.037593
40.93 	0.041143 	4934 	0.040549
40.95 	0.037859 	4913 	0.037501
40.97 	0.042242 	4924 	0.041766
40.99 	0.042851 	4924 	0.042375
41.01 	0.036238 	4912 	0.035880
41.03 	0.042813 	4905 	0.042336
41.05 	0.037075 	4936 	0.036837
41.07 	0.046450 	4930 	0.045856
41.09 	0.045758 	4939 	0.045146
41.11 	0.039919 	4935 	0.039563
41.13 	0.043152 	4936 	0.042678
41.15 	0.039263 	4941 	0.038789
41.17 	0.044589 	4934 	0.044114
41.19 	0.043611 	4930 	0.042660
41.21 	0.038282 	4937 	0.037926
41.23 	0.042519 	4939 	0.042282
41.25 	0.033854 	4933 	0.033379
41.27 	0.043805 	4931 	0.043448
41.29 	0.044034 	4928 	0.043202
41.31 	0.041760 	4933 	0.041285
41.33 	0.042333 	4937 	0.041977
41.35 	0.041110 	4938 	0.040398
41.37 	0.044070 	4924 	0.043713
41.39 	0.041760 	4933 	0.041265
41.41 	0.045270 	4926 	0.044418
41.43 	0.046257 	4929 	0.045781
41.45 	0.044770 	4914 	0.044293
41.47 	0.038977 	4926 	0.038739
41.49 	0.039248 	4892 	0.038649
41.51 	0.043927 	4940 	0.042623
41.53 	0.038633 	4944 	0.038040
41.55 	0.040527 	4935 	0.039815
41.57 	0.042299 	4941 	0.041943
41.59 	0.047030 	4933 	0.046199
41.61 	0.036544 	4953 	0.036307
41.63 	0.038882 	4938 	0.038526
41.65 	0.039359 	4929 	0.038646
41.67 	0.042915 	4940 	0.041966
41.69 	0.039014 	4947 	0.038895
41.71 	0.033644 	4934 	0.033407
41.73 	0.040519 	4936 	0.039807
41.75 	0.043822 	4929 	0.043347
41.77 	0.043311 	4941 	0.042837
41.79 	0.038026 	4944 	0.037789
41.81 	0.036872 	4936 	0.036397
41.83 	0.036323 	4928 	0.035848
41.85 	0.042316 	4939 	0.041723
41.87 	0.040527 	4935 	0.040052
41.89 	0.043381 	4933 	0.043381
41.91 	0.043558 	4936 	0.042964
41.93 	0.038118 	4932 	0.037525
41.95 	0.034070 	4931 	0.033714
41.97 	0.042735 	4914 	0.042497
41.99 	0.041794 	4905 	0.041316
42.01 	0.042695 	4942 	0.041984
42.03 	0.041506 	4939 	0.041269
42.05 	0.037763 	4952 	0.037526
42.07 	0.040308 	4937 	0.040308
42.09 	0.037995 	4948 	0.037403
42.11 	0.037614 	4945 	0.037140
42.13 	0.042467 	4945 	0.042230
42.15 	0.037465 	4938 	0.037109
42.17 	0.042700 	4918 	0.042343
42.19 	0.040342 	4908 	0.039626
42.21 	0.035095 	4901 	0.033780
42.23 	0.043745 	4892 	0.043266
42.25 	0.037226 	4889 	0.037107
42.27 	0.038777 	4874 	0.038417
42.29 	0.040716 	4863 	0.040475
42.31 	0.038929 	4855 	0.038567
42.33 	0.040546 	4834 	0.040183
42.35 	0.037412 	4838 	0.037291
42.37 	0.042857 	4830 	0.042251
42.39 	0.039342 	4804 	0.038489
42.41 	0.042465 	4804 	0.041977
42.43 	0.039649 	4792 	0.039283
42.45 	0.038107 	4776 	0.037862
42.47 	0.034837 	4765 	0.034469
42.49 	0.042183 	4765 	0.041691
42.51 	0.039637 	4743 	0.039020
42.53 	0.040609 	4728 	0.039990
42.55 	0.042693 	4708 	0.042320
42.57 	0.039746 	4730 	0.039375
42.59 	0.038486 	4729 	0.038362
42.61 	0.040144 	4708 	0.039273
42.63 	0.036526 	4709 	0.036401
42.65 	0.035219 	4685 	0.034594
42.67 	0.042272 	4684 	0.042021
42.69 	0.038511 	4674 	0.037884
42.71 	0.037315 	4663 	0.037189
42.73 	0.036853 	4640 	0.036348
42.75 	0.042885 	4617 	0.042230
42.77 	0.040435 	4600 	0.039925
42.79 	0.036010 	4582 	0.035627
42.81 	0.039237 	4562 	0.038852
42.83 	0.035494 	4536 	0.035106
42.85 	0.038648 	4528 	0.038131
42.87 	0.039787 	4499 	0.039136
42.89 	0.040625 	4480 	0.039710
42.91 	0.038151 	4456 	0.037625
42.93 	0.037112 	4446 	0.036717
42.95 	0.041893 	4416 	0.041097
42.97 	0.035901 	4401 	0.035502
42.99 	0.037628 	4385 	0.037495
43.01 	0.039881 	4363 	0.039881
43.03 	0.040388 	4333 	0.039712
43.05 	0.037919 	4325 	0.037784
43.07 	0.037942 	4296 	0.037806
43.09 	0.037124 	4283 	0.036713
43.11 	0.036193 	4255 	0.035619
43.13 	0.033514 	4237 	0.033238
43.15 	0.035188 	4206 	0.034909
43.17 	0.038047 	4179 	0.037767
43.19 	0.037434 	4194 	0.037015
43.21 	0.041707 	4172 	0.040864
43.23 	0.039961 	4154 	0.039256
43.25 	0.034099 	4135 	0.034099
43.27 	0.037028 	4105 	0.037028
43.29 	0.036341 	4100 	0.036056
43.31 	0.037509 	4079 	0.037078
43.33 	0.039990 	4051 	0.039267
43.35 	0.033730 	4032 	0.033585
43.37 	0.032877 	4015 	0.032293
43.39 	0.036482 	4002 	0.036043
43.41 	0.036254 	3972 	0.035664
43.43 	0.034091 	3960 	0.033795
43.45 	0.032783 	3935 	0.032187
43.47 	0.035705 	3921 	0.034784
43.49 	0.035412 	3897 	0.035412
43.51 	0.038174 	3877 	0.038023
43.53 	0.039348 	3863 	0.038741
43.55 	0.042510 	2964 	0.041720
43.57 	0.035746 	2238 	0.034918
43.59 	0.043528 	1746 	0.043193
43.61 	0.042931 	1351 	0.042498
43.63 	0.036963 	1001 	0.036378
43.65 	0.029112 	687 	0.029112
43.67 	0.035857 	502 	0.035857
43.69 	0.051771 	367 	0.048579
43.71 	0.037657 	239 	0.037657
43.73 	0.033333 	120 	0.033333
43.75 	0.000000 	16 	0.000000