File: Example_Data/25SC_s1_0018.001.dat
#F C:\frames\spec\25SC_s1_0018.001
#C title =s:18 frm:1 25SC_s1
#C wavelength =0.15406

#S 1  fr_average C:\frames\spec\25SC_s1_0018.001 C:\win32app\speccom\mask.axs chi 0 180 0 360 0.02
#C 2 theta =0.000000 to 180 deg
#C   q   =0.000000 to 81.568 nm^-1
#C  chi  =0.000000 to 360 deg
#C collumns:
#C  1 position (2theta or chi in degrees)
#C  2 average intensity (sum of all counts in the region divided with number of pixels)
#C  3 Number of pixels in region)
#C  4 error (sum of sqrt(intensity) for all pixels divided by number)
#N 4
#L TTh  Int  N_pix  Err
32.99 	0.098361 	61 	0.098361
33.01 	0.064147 	873 	0.061463
33.03 	0.054637 	1391 	0.053374
33.05 	0.063176 	1757 	0.062842
33.07 	0.053659 	2050 	0.052230
33.09 	0.068598 	2347 	0.067350
33.11 	0.066305 	2579 	0.064942
33.13 	0.061941 	2793 	0.060892
33.15 	0.062354 	2999 	0.061377
33.17 	0.061856 	3201 	0.060941
33.19 	0.056553 	3342 	0.056202
33.21 	0.059953 	3436 	0.058760
33.23 	0.063014 	3523 	0.062516
33.25 	0.056202 	3612 	0.055715
33.27 	0.061157 	3630 	0.058845
33.29 	0.061404 	3648 	0.060440
33.31 	0.051366 	3660 	0.050726
33.33 	0.054802 	3686 	0.054007
33.35 	0.067407 	3694 	0.066138
33.37 	0.064082 	3714 	0.062505
33.39 	0.052025 	3729 	0.051239
33.41 	0.061230 	3740 	0.059260
33.43 	0.059825 	3761 	0.059202
33.45 	0.059104 	3773 	0.058483
33.47 	0.052923 	3798 	0.051997
33.49 	0.055920 	3809 	0.055305
33.51 	0.062123 	3815 	0.061202
33.53 	0.058839 	3841 	0.057314
33.55 	0.055686 	3843 	0.053489
33.57 	0.050555 	3877 	0.049497
33.59 	0.060052 	3880 	0.059146
33.61 	0.060373 	3909 	0.059025
33.63 	0.068130 	3919 	0.067083
33.65 	0.059018 	3931 	0.058248
33.67 	0.063480 	3954 	0.062295
33.69 	0.057678 	3953 	0.057233
33.71 	0.057610 	3975 	0.057021
33.73 	0.062438 	4004 	0.060975
33.75 	0.057764 	3999 	0.057032
33.77 	0.057888 	4025 	0.057015
33.79 	0.058401 	4041 	0.057387
33.81 	0.061417 	4038 	0.060546
33.83 	0.047901 	4050 	0.047467
33.85 	0.065138 	4099 	0.063852
33.87 	0.060083 	4111 	0.058943
33.89 	0.061393 	4121 	0.060398
33.91 	0.055917 	4149 	0.055494
33.93 	0.059745 	4151 	0.059180
33.95 	0.062425 	4181 	0.060884
33.97 	0.059427 	4190 	0.058029
33.99 	0.060714 	4200 	0.059436
34.01 	0.060764 	4213 	0.059791
34.03 	0.057493 	4244 	0.056803
34.05 	0.061148 	4252 	0.060298
34.07 	0.057404 	4268 	0.056718
34.09 	0.057163 	4286 	0.055659
34.11 	0.056020 	4302 	0.054795
34.13 	0.057799 	4308 	0.056576
34.15 	0.058647 	4331 	0.057024
34.17 	0.060920 	4350 	0.060246
34.19 	0.059147 	4362 	0.058073
34.21 	0.062457 	4371 	0.061251
34.23 	0.054405 	4393 	0.053583
34.25 	0.056540 	4404 	0.055321
34.27 	0.056083 	4422 	0.055267
34.29 	0.051860 	4435 	0.051200
34.31 	0.058771 	4458 	0.058114
34.33 	0.058824 	4471 	0.057513
34.35 	0.057984 	4484 	0.057069
34.37 	0.061456 	4491 	0.060391
34.39 	0.060862 	4502 	0.059691
34.41 	0.052585 	4526 	0.051809
34.43 	0.056400 	4539 	0.054851
34.45 	0.059978 	4535 	0.058794
34.47 	0.053354 	4592 	0.052461
34.49 	0.058081 	4597 	0.056914
34.51 	0.054277 	4606 	0.053768
34.53 	0.056214 	4643 	0.055184
34.55 	0.055352 	4643 	0.054469
34.57 	0.061588 	4660 	0.060708
34.59 	0.056898 	4675 	0.056522
34.61 	0.056632 	4697 	0.055509
34.63 	0.058599 	4710 	0.058226
34.65 	0.059945 	4721 	0.058952
34.67 	0.053786 	4741 	0.053292
34.69 	0.048591 	4754 	0.047482
34.71 	0.055392 	4766 	0.054040
34.73 	0.054940 	4787 	0.053839
34.75 	0.048877 	4808 	0.048024
34.77 	0.057700 	4818 	0.056971
34.79 	0.058043 	4824 	0.056950
34.81 	0.057172 	4845 	0.055963
34.83 	0.066434 	4862 	0.065711
34.85 	0.046621 	4869 	0.046261
34.87 	0.057313 	4868 	0.056350
34.89 	0.062270 	4882 	0.061310
34.91 	0.053667 	4882 	0.052827
34.93 	0.055726 	4899 	0.055008
34.95 	0.060532 	4890 	0.058855
34.97 	0.057120 	4902 	0.055785
34.99 	0.059628 	4897 	0.058532
35.01 	0.053423 	4923 	0.052947
35.03 	0.052600 	4943 	0.051889
35.05 	0.053164 	4947 	0.052808
35.07 	0.058704 	4940 	0.057637
35.09 	0.059964 	4953 	0.058643
35.11 	0.057611 	4947 	0.057137
35.13 	0.059701 	4958 	0.058638
35.15 	0.059550 	4937 	0.057889
35.17 	0.060655 	4946 	0.059944
35.19 	0.053015 	4942 	0.052067
35.21 	0.057230 	4945 	0.056144
35.23 	0.054398 	4945 	0.053194
35.25 	0.060894 	4943 	0.059078
35.27 	0.051536 	4948 	0.050451
35.29 	0.061072 	4945 	0.060361
35.31 	0.060612 	4933 	0.060018
35.33 	0.057455 	4943 	0.057099
35.35 	0.057467 	4942 	0.056163
35.37 	0.060336 	4939 	0.058656
35.39 	0.058443 	4945 	0.057140
35.41 	0.054202 	4926 	0.053231
35.43 	0.053923 	4933 	0.053329
35.45 	0.057930 	4937 	0.056981
35.47 	0.062868 	4931 	0.061680
35.49 	0.055397 	4910 	0.054323
35.51 	0.055623 	4926 	0.054910
35.53 	0.059002 	4949 	0.058292
35.55 	0.058241 	4945 	0.057648
35.57 	0.060815 	4933 	0.059865
35.59 	0.060465 	4945 	0.059399
35.61 	0.056455 	4942 	0.055487
35.63 	0.061906 	4943 	0.061195
35.65 	0.060870 	4945 	0.059784
35.67 	0.056657 	4942 	0.055571
35.69 	0.057420 	4946 	0.056591
35.71 	0.052258 	4937 	0.051428
35.73 	0.057334 	4936 	0.056740
35.75 	0.052119 	4931 	0.051525
35.77 	0.063624 	4951 	0.062066
35.79 	0.063260 	4932 	0.061548
35.81 	0.055747 	4933 	0.055134
35.83 	0.058835 	4946 	0.057414
35.85 	0.058967 	4935 	0.058610
35.87 	0.064392 	4923 	0.063440
35.89 	0.052696 	4934 	0.052221
35.91 	0.054394 	4927 	0.053443
35.93 	0.060889 	4927 	0.059581
35.95 	0.061216 	4917 	0.060382
35.97 	0.055375 	4912 	0.054063
35.99 	0.057097 	4939 	0.056148
36.01 	0.052738 	4930 	0.052144
36.03 	0.053004 	4943 	0.052530
36.05 	0.056218 	4945 	0.055034
36.07 	0.056084 	4939 	0.055254
36.09 	0.057085 	4940 	0.055899
36.11 	0.059038 	4929 	0.057969
36.13 	0.054634 	4942 	0.052698
36.15 	0.062361 	4939 	0.061037
36.17 	0.062538 	4925 	0.060873
36.19 	0.059919 	4940 	0.058595
36.21 	0.067762 	4929 	0.066811
36.23 	0.057953 	4935 	0.056648
36.25 	0.055859 	4941 	0.055029
36.27 	0.056650 	4925 	0.055817
36.29 	0.056581 	4931 	0.056106
36.31 	0.057427 	4928 	0.056476
36.33 	0.057571 	4933 	0.056740
36.35 	0.060864 	4929 	0.059181
36.37 	0.057485 	4923 	0.056652
36.39 	0.056289 	4921 	0.055575
36.41 	0.059028 	4896 	0.057951
36.43 	0.063515 	4928 	0.061969
36.45 	0.058621 	4930 	0.057551
36.47 	0.060170 	4936 	0.059458
36.49 	0.056860 	4942 	0.055674
36.51 	0.055950 	4933 	0.054505
36.53 	0.058264 	4943 	0.057672
36.55 	0.058453 	4927 	0.056670
36.57 	0.066477 	4934 	0.064658
36.59 	0.055679 	4939 	0.054493
36.61 	0.057798 	4931 	0.057085
36.63 	0.056784 	4931 	0.055695
36.65 	0.055556 	4932 	0.054368
36.67 	0.052738 	4930 	0.051907
36.69 	0.058024 	4929 	0.057073
36.71 	0.062386 	4921 	0.060600
36.73 	0.056041 	4925 	0.055208
36.75 	0.058455 	4944 	0.057270
36.77 	0.055702 	4919 	0.053896
36.79 	0.061979 	4921 	0.061027
36.81 	0.060415 	4916 	0.059343
36.83 	0.061241 	4915 	0.060288
36.85 	0.054920 	4898 	0.054203
36.87 	0.058859 	4944 	0.058148
36.89 	0.059398 	4916 	0.058425
36.91 	0.061931 	4941 	0.060588
36.93 	0.060649 	4930 	0.059699
36.95 	0.059396 	4933 	0.058683
36.97 	0.063235 	4934 	0.062047
36.99 	0.058156 	4935 	0.056831
37.01 	0.061423 	4933 	0.060711
37.03 	0.059098 	4924 	0.057651
37.05 	0.055612 	4927 	0.055136
37.07 	0.058156 	4935 	0.057088
37.09 	0.057021 	4928 	0.055832
37.11 	0.059777 	4935 	0.059184
37.13 	0.061942 	4924 	0.061347
37.15 	0.057446 	4909 	0.056610
37.17 	0.056952 	4934 	0.056121
37.19 	0.050761 	4925 	0.049691
37.21 	0.056335 	4917 	0.055501
37.23 	0.054087 	4918 	0.052419
37.25 	0.057218 	4911 	0.056384
37.27 	0.057622 	4894 	0.056784
37.29 	0.054361 	4930 	0.053529
37.31 	0.055724 	4935 	0.054775
37.33 	0.058047 	4927 	0.056977
37.35 	0.055893 	4938 	0.055063
37.37 	0.059468 	4927 	0.058398
37.39 	0.059217 	4931 	0.058267
37.41 	0.056175 	4931 	0.055700
37.43 	0.056975 	4932 	0.056262
37.45 	0.057677 	4924 	0.057082
37.47 	0.052546 	4929 	0.051477
37.49 	0.057892 	4923 	0.056702
37.51 	0.056152 	4933 	0.055321
37.53 	0.053060 	4919 	0.052226
37.55 	0.057404 	4930 	0.056434
37.57 	0.056447 	4925 	0.055614
37.59 	0.058800 	4915 	0.058204
37.61 	0.053840 	4922 	0.052650
37.63 	0.056312 	4919 	0.055121
37.65 	0.060390 	4918 	0.059795
37.67 	0.057504 	4904 	0.056548
37.69 	0.049408 	4898 	0.048332
37.71 	0.056401 	4929 	0.055331
37.73 	0.053763 	4929 	0.052575
37.75 	0.054656 	4940 	0.053688
37.77 	0.058130 	4920 	0.057178
37.79 	0.052130 	4930 	0.051655
37.81 	0.056558 	4933 	0.055370
37.83 	0.055488 	4920 	0.054773
37.85 	0.050589 	4922 	0.050113
37.87 	0.048188 	4939 	0.047832
37.89 	0.055431 	4925 	0.054718
37.91 	0.055172 	4930 	0.053747
37.93 	0.057939 	4919 	0.057462
37.95 	0.057915 	4921 	0.056844
37.97 	0.051938 	4929 	0.051581
37.99 	0.066368 	4912 	0.065414
38.01 	0.052760 	4928 	0.052047
38.03 	0.055612 	4909 	0.054300
38.05 	0.049949 	4925 	0.049236
38.07 	0.056834 	4909 	0.055880
38.09 	0.056581 	4878 	0.055500
38.11 	0.051469 	4935 	0.050876
38.13 	0.063601 	4937 	0.062415
38.15 	0.053477 	4918 	0.052762
38.17 	0.052738 	4930 	0.052025
38.19 	0.061258 	4930 	0.060069
38.21 	0.055048 	4923 	0.054572
38.23 	0.059336 	4938 	0.057556
38.25 	0.056742 	4917 	0.056265
38.27 	0.055781 	4930 	0.055187
38.29 	0.058489 	4924 	0.057518
38.31 	0.060686 	4927 	0.059378
38.33 	0.060723 	4924 	0.060009
38.35 	0.064529 	4928 	0.063222
38.37 	0.068034 	4924 	0.067082
38.39 	0.064983 	4909 	0.063670
38.41 	0.058501 	4923 	0.057073
38.43 	0.066721 	4916 	0.065648
38.45 	0.065880 	4918 	0.064928
38.47 	0.060933 	4907 	0.059978
38.49 	0.067665 	4877 	0.066944
38.51 	0.066302 	4932 	0.063926
38.53 	0.068574 	4929 	0.067504
38.55 	0.068679 	4936 	0.067591
38.57 	0.071501 	4923 	0.069677
38.59 	0.064582 	4924 	0.063630
38.61 	0.076580 	4936 	0.074563
38.63 	0.070471 	4924 	0.068925
38.65 	0.073607 	4918 	0.072178
38.67 	0.077780 	4937 	0.075763
38.69 	0.073547 	4922 	0.071762
38.71 	0.070471 	4924 	0.068767
38.73 	0.082147 	4918 	0.079527
38.75 	0.072052 	4927 	0.070863
38.77 	0.061548 	4923 	0.060834
38.79 	0.069518 	4934 	0.067855
38.81 	0.070033 	4912 	0.068602
38.83 	0.067697 	4919 	0.066744
38.85 	0.062500 	4912 	0.061188
38.87 	0.059662 	4911 	0.058231
38.89 	0.061262 	4897 	0.059946
38.91 	0.057924 	4903 	0.056470
38.93 	0.060956 	4938 	0.059770
38.95 	0.060187 	4918 	0.059592
38.97 	0.056581 	4931 	0.055611
38.99 	0.054081 	4937 	0.052539
39.01 	0.051850 	4918 	0.051136
39.03 	0.054925 	4934 	0.054193
39.05 	0.050355 	4925 	0.048809
39.07 	0.047929 	4924 	0.047215
39.09 	0.049970 	4923 	0.049018
39.11 	0.053944 	4931 	0.053469
39.13 	0.048954 	4923 	0.047764
39.15 	0.043540 	4915 	0.043540
39.17 	0.051043 	4937 	0.050094
39.19 	0.046573 	4917 	0.045620
39.21 	0.043992 	4910 	0.043515
39.23 	0.049543 	4925 	0.048473
39.25 	0.049777 	4922 	0.048924
39.27 	0.047251 	4910 	0.046296
39.29 	0.046725 	4901 	0.046008
39.31 	0.046478 	4884 	0.045999
39.33 	0.044413 	4931 	0.043700
39.35 	0.042351 	4935 	0.042113
39.37 	0.047677 	4929 	0.047202
39.39 	0.049503 	4929 	0.049146
39.41 	0.044210 	4931 	0.043854
39.43 	0.043989 	4933 	0.043633
39.45 	0.048122 	4925 	0.048003
39.47 	0.045501 	4923 	0.044787
39.49 	0.050679 	4933 	0.049729
39.51 	0.048741 	4924 	0.047789
39.53 	0.048954 	4923 	0.048359
39.55 	0.050213 	4919 	0.049499
39.57 	0.043989 	4933 	0.043277
39.59 	0.042752 	4912 	0.042275
39.61 	0.048345 	4923 	0.047135
39.63 	0.048151 	4922 	0.047794
39.65 	0.043646 	4926 	0.043408
39.67 	0.049461 	4913 	0.048984
39.69 	0.048820 	4916 	0.048344
39.71 	0.044944 	4895 	0.044345
39.73 	0.040139 	4908 	0.039780
39.75 	0.040990 	4928 	0.040039
39.77 	0.046809 	4935 	0.046334
39.79 	0.045676 	4926 	0.045676
39.81 	0.045058 	4927 	0.044820
39.83 	0.046210 	4934 	0.045498
39.85 	0.040999 	4927 	0.039929
39.87 	0.047310 	4925 	0.046477
39.89 	0.042764 	4934 	0.042290
39.91 	0.045713 	4922 	0.044979
39.93 	0.043751 	4937 	0.043633
39.95 	0.050458 	4915 	0.049366
39.97 	0.039773 	4928 	0.039654
39.99 	0.037916 	4932 	0.037441
40.01 	0.041684 	4918 	0.041445
40.03 	0.046672 	4928 	0.046315
40.05 	0.042099 	4917 	0.041741
40.07 	0.044891 	4923 	0.044534
40.09 	0.047193 	4916 	0.046359
40.11 	0.047600 	4916 	0.046527
40.13 	0.047794 	4896 	0.047555
40.15 	0.041522 	4913 	0.041165
40.17 	0.045657 	4928 	0.044944
40.19 	0.047880 	4929 	0.047167
40.21 	0.040932 	4935 	0.040220
40.23 	0.042985 	4932 	0.042747
40.25 	0.046341 	4920 	0.045746
40.27 	0.048613 	4937 	0.047901
40.29 	0.043637 	4927 	0.042448
40.31 	0.044138 	4939 	0.043308
40.33 	0.041768 	4932 	0.041174
40.35 	0.048384 	4919 	0.046955
40.37 	0.044025 	4929 	0.043431
40.39 	0.045630 	4931 	0.045273
40.41 	0.043452 	4925 	0.043333
40.43 	0.039009 	4922 	0.038890
40.45 	0.045814 	4933 	0.045220
40.47 	0.044327 	4918 	0.043851
40.49 	0.045270 	4926 	0.044556
40.51 	0.039009 	4922 	0.038651
40.53 	0.045159 	4916 	0.045040
40.55 	0.045436 	4908 	0.044601
40.57 	0.040695 	4890 	0.040216
40.59 	0.042536 	4937 	0.041705
40.61 	0.046606 	4935 	0.046487
40.63 	0.043408 	4930 	0.043151
40.65 	0.047195 	4937 	0.046364
40.67 	0.038524 	4932 	0.038049
40.69 	0.041726 	4937 	0.041488
40.71 	0.039740 	4932 	0.039028
40.73 	0.042428 	4926 	0.042071
40.75 	0.042385 	4931 	0.041197
40.77 	0.044543 	4939 	0.044306
40.79 	0.048132 	4924 	0.047775
40.81 	0.046954 	4941 	0.046361
40.83 	0.046469 	4928 	0.045499
40.85 	0.045288 	4924 	0.044694
40.87 	0.037744 	4928 	0.037030
40.89 	0.039749 	4931 	0.039511
40.91 	0.041641 	4923 	0.041165
40.93 	0.039319 	4934 	0.038963
40.95 	0.035416 	4913 	0.035059
40.97 	0.039399 	4924 	0.038685
40.99 	0.047319 	4924 	0.046605
41.01 	0.047842 	4912 	0.047126
41.03 	0.042202 	4905 	0.041844
41.05 	0.037682 	4936 	0.037326
41.07 	0.040771 	4930 	0.040177
41.09 	0.045151 	4939 	0.044321
41.11 	0.040729 	4935 	0.040017
41.13 	0.041937 	4936 	0.041343
41.15 	0.042097 	4941 	0.041860
41.17 	0.033847 	4934 	0.033372
41.19 	0.041988 	4930 	0.041275
41.21 	0.039700 	4937 	0.039107
41.23 	0.043329 	4939 	0.042498
41.25 	0.040138 	4933 	0.039307
41.27 	0.043805 	4931 	0.043448
41.29 	0.040787 	4928 	0.040193
41.31 	0.039732 	4933 	0.039257
41.33 	0.044359 	4937 	0.043766
41.35 	0.042325 	4938 	0.041969
41.37 	0.040008 	4924 	0.039889
41.39 	0.040543 	4933 	0.039831
41.41 	0.046082 	4926 	0.045111
41.43 	0.037533 	4929 	0.037176
41.45 	0.042328 	4914 	0.041851
41.47 	0.037556 	4926 	0.037318
41.49 	0.040883 	4892 	0.040524
41.51 	0.044130 	4940 	0.043892
41.53 	0.042678 	4944 	0.042204
41.55 	0.041540 	4935 	0.041421
41.57 	0.045740 	4941 	0.045503
41.59 	0.042773 	4933 	0.042536
41.61 	0.041995 	4953 	0.041522
41.63 	0.042325 	4938 	0.042206
41.65 	0.038953 	4929 	0.038715
41.67 	0.041296 	4940 	0.040209
41.69 	0.041035 	4947 	0.040798
41.71 	0.044589 	4934 	0.043876
41.73 	0.036669 	4936 	0.036195
41.75 	0.044837 	4929 	0.044480
41.77 	0.040073 	4941 	0.039717
41.79 	0.042071 	4944 	0.041716
41.81 	0.043760 	4936 	0.042929
41.83 	0.044846 	4928 	0.044251
41.85 	0.044948 	4939 	0.044355
41.87 	0.041540 	4935 	0.040947
41.89 	0.039327 	4933 	0.038852
41.91 	0.038290 	4936 	0.037578
41.93 	0.043390 	4932 	0.042440
41.95 	0.042791 	4931 	0.042553
41.97 	0.035002 	4914 	0.034764
41.99 	0.040775 	4905 	0.040416
42.01 	0.039458 	4942 	0.039102
42.03 	0.043531 	4939 	0.043057
42.05 	0.040994 	4952 	0.040639
42.07 	0.042131 	4937 	0.041894
42.09 	0.041835 	4948 	0.041243
42.11 	0.038423 	4945 	0.038186
42.13 	0.036805 	4945 	0.035976
42.15 	0.046173 	4938 	0.045461
42.17 	0.039650 	4918 	0.038936
42.19 	0.041361 	4908 	0.040645
42.21 	0.042440 	4901 	0.042201
42.23 	0.037817 	4892 	0.037697
42.25 	0.039272 	4889 	0.039032
42.27 	0.036931 	4874 	0.036810
42.29 	0.035780 	4863 	0.035178
42.31 	0.044284 	4855 	0.043922
42.33 	0.040753 	4834 	0.040753
42.35 	0.037826 	4838 	0.037583
42.37 	0.039337 	4830 	0.038852
42.39 	0.042048 	4804 	0.041682
42.41 	0.043089 	4804 	0.042967
42.43 	0.037980 	4792 	0.037369
42.45 	0.038735 	4776 	0.038245
42.47 	0.037775 	4765 	0.037284
42.49 	0.038405 	4765 	0.037913
42.51 	0.041746 	4743 	0.041252
42.53 	0.041032 	4728 	0.040908
42.55 	0.038870 	4708 	0.038746
42.57 	0.039535 	4730 	0.039019
42.59 	0.036371 	4729 	0.036247
42.61 	0.039932 	4708 	0.039434
42.63 	0.038437 	4709 	0.038188
42.65 	0.035859 	4685 	0.035359
42.67 	0.040777 	4684 	0.040152
42.69 	0.036799 	4674 	0.036047
42.71 	0.038602 	4663 	0.037848
42.73 	0.037284 	4640 	0.036906
42.75 	0.036387 	4617 	0.036260
42.77 	0.040217 	4600 	0.039708
42.79 	0.043213 	4582 	0.042701
42.81 	0.033319 	4562 	0.032291
42.83 	0.040564 	4536 	0.040156
42.85 	0.035998 	4528 	0.035222
42.87 	0.043121 	4499 	0.042730
42.89 	0.039509 	4480 	0.039378
42.91 	0.038375 	4456 	0.038244
42.93 	0.046559 	4446 	0.046032
42.95 	0.038496 	4416 	0.038098
42.97 	0.040900 	4401 	0.040500
42.99 	0.039453 	4385 	0.038384
43.01 	0.035297 	4363 	0.034760
43.03 	0.038541 	4333 	0.037865
43.05 	0.033757 	4325 	0.033622
43.07 	0.040968 	4296 	0.040287
43.09 	0.039225 	4283 	0.038541
43.11 	0.040423 	4255 	0.040010
43.13 	0.040359 	4237 	0.040082
43.15 	0.038754 	4206 	0.038336
43.17 	0.041158 	4179 	0.040597
43.19 	0.040773 	4194 	0.040214
43.21 	0.039310 	4172 	0.038748
43.23 	0.036832 	4154 	0.036550
43.25 	0.042805 	4135 	0.041955
43.27 	0.042144 	4105 	0.041430
43.29 	0.042195 	4100 	0.041029
43.31 	0.038490 	4079 	0.037915
43.33 	0.035300 	4051 	0.035300
43.35 	0.039931 	4032 	0.039059
43.37 	0.036115 	4015 	0.035677
43.39 	0.044478 	4002 	0.043600
43.41 	0.036254 	3972 	0.035959
43.43 	0.033838 	3960 	0.033838
43.45 	0.041169 	3935 	0.041020
43.47 	0.036980 	3921 	0.036682
43.49 	0.038748 	3897 	0.038597
43.51 	0.035595 	3877 	0.034688
43.53 	0.038571 	3863 	0.038116
43.55 	0.042848 	2964 	0.042057
43.57 	0.040661 	2238 	0.040400
43.59 	0.045819 	1746 	0.045148
43.61 	0.029608 	1351 	0.029174
43.63 	0.040959 	1001 	0.040374
43.65 	0.032023 	687 	0.032023
43.67 	0.043825 	502 	0.042658
43.69 	0.040872 	367 	0.040872
43.71 	0.029289 	239 	0.029289
43.73 	0.050000 	120 	0.050000
43.75 	0.000000 	16 	0.000000