File: Example_Data/25SC_s1_0023.001.dat
#F C:\frames\spec\25SC_s1_0023.001
#C title =s:23 frm:1 25SC_s1
#C wavelength =0.15406

#S 1  fr_average C:\frames\spec\25SC_s1_0023.001 C:\win32app\speccom\mask.axs chi 0 180 0 360 0.02
#C 2 theta =0.000000 to 180 deg
#C   q   =0.000000 to 81.568 nm^-1
#C  chi  =0.000000 to 360 deg
#C collumns:
#C  1 position (2theta or chi in degrees)
#C  2 average intensity (sum of all counts in the region divided with number of pixels)
#C  3 Number of pixels in region)
#C  4 error (sum of sqrt(intensity) for all pixels divided by number)
#N 4
#L TTh  Int  N_pix  Err
32.99 	0.081967 	61 	0.081967
33.01 	0.059565 	873 	0.058894
33.03 	0.050324 	1391 	0.049481
33.05 	0.057484 	1757 	0.056484
33.07 	0.064878 	2050 	0.063449
33.09 	0.058372 	2347 	0.057873
33.11 	0.065529 	2579 	0.064166
33.13 	0.059076 	2793 	0.058028
33.15 	0.059353 	2999 	0.058376
33.17 	0.054358 	3201 	0.053992
33.19 	0.061041 	3342 	0.059639
33.21 	0.058498 	3436 	0.057447
33.23 	0.055634 	3523 	0.054304
33.25 	0.059247 	3612 	0.057950
33.27 	0.065289 	3630 	0.063770
33.29 	0.059759 	3648 	0.059277
33.31 	0.057650 	3660 	0.056850
33.33 	0.058058 	3686 	0.057104
33.35 	0.048998 	3694 	0.048523
33.37 	0.065428 	3714 	0.064324
33.39 	0.061947 	3729 	0.060847
33.41 	0.057754 	3740 	0.057441
33.43 	0.063813 	3761 	0.062567
33.45 	0.059104 	3773 	0.057707
33.47 	0.058189 	3798 	0.057880
33.49 	0.060383 	3809 	0.058999
33.51 	0.054260 	3815 	0.053338
33.53 	0.057797 	3841 	0.057187
33.55 	0.062711 	3843 	0.061492
33.57 	0.057777 	3877 	0.057323
33.59 	0.057990 	3880 	0.057084
33.61 	0.056792 	3909 	0.055593
33.63 	0.056137 	3919 	0.055090
33.65 	0.061308 	3931 	0.059817
33.67 	0.064997 	3954 	0.063368
33.69 	0.061219 	3953 	0.060478
33.71 	0.054843 	3975 	0.054253
33.73 	0.064685 	4004 	0.063661
33.75 	0.057264 	3999 	0.056385
33.77 	0.058634 	4025 	0.057906
33.79 	0.061371 	4041 	0.059486
33.81 	0.058445 	4038 	0.058010
33.83 	0.057037 	4050 	0.056145
33.85 	0.062454 	4099 	0.061740
33.87 	0.060083 	4111 	0.058943
33.89 	0.057753 	4121 	0.056900
33.91 	0.058086 	4149 	0.057522
33.93 	0.067213 	4151 	0.065943
33.95 	0.061708 	4181 	0.060587
33.97 	0.058711 	4190 	0.058012
33.99 	0.061667 	4200 	0.060110
34.01 	0.059103 	4213 	0.058825
34.03 	0.052780 	4244 	0.051814
34.05 	0.053151 	4252 	0.052164
34.07 	0.056232 	4268 	0.055134
34.09 	0.056696 	4286 	0.056150
34.11 	0.059042 	4302 	0.057953
34.13 	0.059192 	4308 	0.058784
34.15 	0.056800 	4331 	0.055696
34.17 	0.054943 	4350 	0.054269
34.19 	0.065566 	4362 	0.064626
34.21 	0.059254 	4371 	0.058584
34.23 	0.064421 	4393 	0.063754
34.25 	0.062216 	4404 	0.061285
34.27 	0.059249 	4422 	0.058454
34.29 	0.049380 	4435 	0.048323
34.31 	0.060117 	4458 	0.059722
34.33 	0.058600 	4471 	0.057268
34.35 	0.052855 	4484 	0.051809
34.37 	0.057671 	4491 	0.056627
34.39 	0.066859 	4502 	0.065558
34.41 	0.058992 	4526 	0.058216
34.43 	0.052655 	4539 	0.052009
34.45 	0.059757 	4535 	0.058466
34.47 	0.057274 	4592 	0.056253
34.49 	0.051120 	4597 	0.049973
34.51 	0.061007 	4606 	0.060117
34.53 	0.064398 	4643 	0.063641
34.55 	0.055352 	4643 	0.054343
34.57 	0.056223 	4660 	0.055972
34.59 	0.060963 	4675 	0.060085
34.61 	0.054077 	4697 	0.053184
34.63 	0.060085 	4710 	0.059339
34.65 	0.050625 	4721 	0.049880
34.67 	0.060114 	4741 	0.058878
34.69 	0.057005 	4754 	0.056512
34.71 	0.054763 	4766 	0.053780
34.73 	0.053687 	4787 	0.052830
34.75 	0.056780 	4808 	0.056293
34.77 	0.059568 	4818 	0.058332
34.79 	0.054726 	4824 	0.054362
34.81 	0.055934 	4845 	0.055571
34.83 	0.053476 	4862 	0.052874
34.85 	0.054631 	4869 	0.053789
34.87 	0.054848 	4868 	0.054126
34.89 	0.057354 	4882 	0.056514
34.91 	0.055920 	4882 	0.055440
34.93 	0.058379 	4899 	0.057781
34.95 	0.059305 	4890 	0.057847
34.97 	0.057936 	4902 	0.056362
34.99 	0.064121 	4897 	0.063044
35.01 	0.062360 	4923 	0.061289
35.03 	0.058871 	4943 	0.057331
35.05 	0.054174 	4947 	0.053109
35.07 	0.059717 	4940 	0.058056
35.09 	0.061377 	4953 	0.060904
35.11 	0.060643 	4947 	0.059103
35.13 	0.054861 	4958 	0.054270
35.15 	0.055904 	4937 	0.054837
35.17 	0.060251 	4946 	0.058593
35.19 	0.064346 	4942 	0.063635
35.21 	0.054803 	4945 	0.053618
35.23 	0.058847 	4945 	0.058373
35.25 	0.059478 	4943 	0.058530
35.27 	0.055174 	4948 	0.053615
35.29 	0.059858 	4945 	0.058911
35.31 	0.064464 	4933 	0.063514
35.33 	0.058062 	4943 	0.056995
35.35 	0.059692 	4942 	0.058270
35.37 	0.057097 	4939 	0.056148
35.39 	0.059454 	4945 	0.058368
35.41 	0.052578 	4926 	0.052221
35.43 	0.063045 	4933 	0.061620
35.45 	0.053879 	4937 	0.053048
35.47 	0.055972 	4931 	0.055260
35.49 	0.058859 	4910 	0.058024
35.51 	0.068413 	4926 	0.066827
35.53 	0.059810 	4949 	0.058863
35.55 	0.055410 	4945 	0.054462
35.57 	0.057369 	4933 	0.056656
35.59 	0.057432 	4945 	0.056484
35.61 	0.056860 	4942 	0.056148
35.63 	0.053813 	4943 	0.052628
35.65 	0.057836 	4945 	0.056652
35.67 	0.053217 	4942 	0.052032
35.69 	0.058431 	4946 	0.057247
35.71 	0.063601 	4937 	0.062534
35.73 	0.049028 	4936 	0.048078
35.75 	0.054756 	4931 	0.053924
35.77 	0.059786 	4951 	0.058347
35.79 	0.055150 	4932 	0.053943
35.81 	0.047841 	4933 	0.047366
35.83 	0.060049 	4946 	0.058983
35.85 	0.060182 	4935 	0.059351
35.87 	0.056267 	4923 	0.055434
35.89 	0.054114 	4934 	0.053283
35.91 	0.056627 	4927 	0.055794
35.93 	0.055206 	4927 	0.054849
35.95 	0.058979 	4917 	0.058145
35.97 	0.055171 	4912 	0.054575
35.99 	0.058514 	4939 	0.056122
36.01 	0.067343 	4930 	0.065917
36.03 	0.055837 	4943 	0.055481
36.05 	0.061476 	4945 	0.060647
36.07 	0.055072 	4939 	0.054479
36.09 	0.055263 	4940 	0.054433
36.11 	0.053966 	4929 	0.053016
36.13 	0.061716 	4942 	0.060531
36.15 	0.055274 	4939 	0.054207
36.17 	0.060508 	4925 	0.059080
36.19 	0.058907 	4940 	0.058077
36.21 	0.053561 	4929 	0.052491
36.23 	0.058764 	4935 	0.058170
36.25 	0.054847 	4941 	0.054136
36.27 	0.056447 	4925 	0.055257
36.29 	0.062259 	4931 	0.060952
36.31 	0.059050 	4928 	0.058456
36.33 	0.060004 	4933 	0.059410
36.35 	0.062893 	4929 	0.061823
36.37 	0.058907 	4923 	0.057717
36.39 	0.056899 	4921 	0.056304
36.41 	0.063930 	4896 	0.062853
36.43 	0.054992 	4928 	0.054516
36.45 	0.059635 	4930 	0.058566
36.47 	0.051256 	4936 	0.050900
36.49 	0.056657 	4942 	0.055827
36.51 	0.052909 	4933 	0.052078
36.53 	0.059680 	4943 	0.058851
36.55 	0.059468 	4927 	0.058993
36.57 	0.058168 	4934 	0.056981
36.59 	0.061348 	4939 	0.060637
36.61 	0.055972 	4931 	0.055497
36.63 	0.053742 	4931 	0.052791
36.65 	0.057786 	4932 	0.056598
36.67 	0.060446 	4930 	0.059377
36.69 	0.058430 	4929 	0.057598
36.71 	0.053648 	4921 	0.052933
36.73 	0.054619 	4925 	0.053906
36.75 	0.050162 	4944 	0.048977
36.77 	0.053669 	4919 	0.052955
36.79 	0.060760 	4921 	0.059927
36.81 	0.053906 	4916 	0.053310
36.83 	0.055951 	4915 	0.054879
36.85 	0.055329 	4898 	0.054611
36.87 	0.056634 	4944 	0.055094
36.89 	0.051261 	4916 	0.050407
36.91 	0.059097 	4941 	0.058267
36.93 	0.056592 	4930 	0.055642
36.95 	0.059599 	4933 	0.058767
36.97 	0.055938 	4934 	0.055107
36.99 	0.060993 	4935 	0.059687
37.01 	0.054733 	4933 	0.054258
37.03 	0.059708 	4924 	0.058756
37.05 	0.060483 	4927 	0.059413
37.07 	0.057953 	4935 	0.056766
37.09 	0.060877 	4928 	0.059807
37.11 	0.056130 	4935 	0.055061
37.13 	0.057880 	4924 	0.056928
37.15 	0.053982 	4909 	0.053147
37.17 	0.054114 	4934 	0.052195
37.19 	0.054213 	4925 	0.053024
37.21 	0.056945 	4917 	0.055992
37.23 	0.059170 	4918 	0.058098
37.25 	0.059051 	4911 	0.058455
37.27 	0.054352 	4894 	0.053514
37.29 	0.054361 	4930 	0.053767
37.31 	0.061803 	4935 	0.060616
37.33 	0.063325 	4927 	0.062017
37.35 	0.056298 	4938 	0.055112
37.37 	0.059874 	4927 	0.058785
37.39 	0.048063 	4931 	0.047113
37.41 	0.062868 	4931 	0.061660
37.43 	0.056975 	4932 	0.055768
37.45 	0.055849 	4924 	0.054521
37.47 	0.053155 	4929 	0.052798
37.49 	0.058907 	4923 	0.057460
37.51 	0.055544 	4933 	0.054832
37.53 	0.056312 	4919 	0.055240
37.55 	0.053753 	4930 	0.052802
37.57 	0.054213 	4925 	0.053500
37.59 	0.056765 	4915 	0.056407
37.61 	0.052011 	4922 	0.051654
37.63 	0.048181 	4919 	0.047704
37.65 	0.054290 	4918 	0.053576
37.67 	0.057708 	4904 	0.056633
37.69 	0.050837 	4898 	0.050239
37.71 	0.058835 	4929 	0.058004
37.73 	0.054169 	4929 	0.053813
37.75 	0.048988 	4940 	0.048632
37.77 	0.053252 	4920 	0.052776
37.79 	0.057809 	4930 	0.057334
37.81 	0.058585 	4933 	0.057754
37.83 	0.051220 	4920 	0.050267
37.85 	0.056684 	4922 	0.055713
37.87 	0.056692 	4939 	0.055367
37.89 	0.053604 	4925 	0.052771
37.91 	0.054158 	4930 	0.053445
37.93 	0.050620 	4919 	0.049429
37.95 	0.057915 	4921 	0.057201
37.97 	0.059038 	4929 	0.058325
37.99 	0.056800 	4912 	0.056084
38.01 	0.055398 	4928 	0.054189
38.03 	0.058464 	4909 	0.057609
38.05 	0.061726 	4925 	0.060616
38.07 	0.054186 	4909 	0.053590
38.09 	0.051046 	4878 	0.049965
38.11 	0.048835 	4935 	0.047885
38.13 	0.054487 	4937 	0.053775
38.15 	0.057544 	4918 	0.056948
38.17 	0.058012 	4930 	0.057180
38.19 	0.052333 	4930 	0.051501
38.21 	0.054438 	4923 	0.054081
38.23 	0.049008 	4938 	0.048158
38.25 	0.057962 	4917 	0.057128
38.27 	0.061866 	4930 	0.061272
38.29 	0.057880 	4924 	0.057404
38.31 	0.060889 	4927 	0.059581
38.33 	0.067019 	4924 	0.065671
38.35 	0.061282 	4928 	0.060213
38.37 	0.060926 	4924 	0.059736
38.39 	0.058871 	4909 	0.058036
38.41 	0.068860 	4923 	0.067552
38.43 	0.065704 	4916 	0.064850
38.45 	0.068727 	4918 	0.067298
38.47 	0.069085 	4907 	0.067155
38.49 	0.070330 	4877 	0.068889
38.51 	0.075629 	4932 	0.073966
38.53 	0.074863 	4929 	0.073893
38.55 	0.071515 	4936 	0.070210
38.57 	0.068251 	4923 	0.067299
38.59 	0.068034 	4924 	0.066725
38.61 	0.071921 	4936 	0.070259
38.63 	0.071284 	4924 	0.070213
38.65 	0.075234 	4918 	0.072812
38.67 	0.070083 	4937 	0.069015
38.69 	0.066233 	4922 	0.065281
38.71 	0.066613 	4924 	0.065661
38.73 	0.071370 	4918 	0.069346
38.75 	0.068602 	4927 	0.067056
38.77 	0.065204 	4923 	0.064133
38.79 	0.064248 	4934 	0.063061
38.81 	0.061686 	4912 	0.060235
38.83 	0.062411 	4919 	0.061220
38.85 	0.060261 	4912 	0.059187
38.87 	0.055182 	4911 	0.053870
38.89 	0.058403 	4897 	0.057426
38.91 	0.056088 	4903 	0.055491
38.93 	0.055691 	4938 	0.054623
38.95 	0.051240 	4918 	0.050407
38.97 	0.055364 	4931 	0.054770
38.99 	0.048005 	4937 	0.047530
39.01 	0.049614 	4918 	0.049018
39.03 	0.052088 	4934 	0.051138
39.05 	0.050152 	4925 	0.049320
39.07 	0.051990 	4924 	0.051039
39.09 	0.045298 	4923 	0.044584
39.11 	0.051714 	4931 	0.050763
39.13 	0.042251 	4923 	0.041299
39.15 	0.051272 	4915 	0.050557
39.17 	0.050030 	4937 	0.049674
39.19 	0.045149 	4917 	0.044435
39.21 	0.045418 	4910 	0.044940
39.23 	0.037970 	4925 	0.037851
39.25 	0.040837 	4922 	0.040599
39.27 	0.048676 	4910 	0.047960
39.29 	0.048357 	4901 	0.047640
39.31 	0.048321 	4884 	0.047961
39.33 	0.048063 	4931 	0.047469
39.35 	0.045390 	4935 	0.044915
39.37 	0.044025 	4929 	0.043550
39.39 	0.047880 	4929 	0.047167
39.41 	0.043399 	4931 	0.043043
39.43 	0.048855 	4933 	0.048380
39.45 	0.048528 	4925 	0.047457
39.47 	0.045907 	4923 	0.044836
39.49 	0.051895 	4933 	0.051045
39.51 	0.050162 	4924 	0.049687
39.53 	0.045704 	4923 	0.045228
39.55 	0.047977 	4919 	0.046905
39.57 	0.048652 	4933 	0.047702
39.59 	0.046621 	4912 	0.046024
39.61 	0.047532 	4923 	0.046937
39.63 	0.049167 	4922 	0.048453
39.65 	0.047097 	4926 	0.046621
39.67 	0.048850 	4913 	0.048254
39.69 	0.043328 	4916 	0.042613
39.71 	0.051890 	4895 	0.051172
39.73 	0.042584 	4908 	0.042106
39.75 	0.052151 	4928 	0.051507
39.77 	0.050253 	4935 	0.048948
39.79 	0.043443 	4926 	0.042967
39.81 	0.049523 	4927 	0.049147
39.83 	0.038306 	4934 	0.037949
39.85 	0.044043 	4927 	0.043211
39.87 	0.044264 	4925 	0.043669
39.89 	0.045399 	4934 	0.044806
39.91 	0.046526 	4922 	0.045931
39.93 	0.055094 	4937 	0.054501
39.95 	0.047609 	4915 	0.047133
39.97 	0.043831 	4928 	0.043118
39.99 	0.040146 	4932 	0.039671
40.01 	0.044327 	4918 	0.043731
40.03 	0.044846 	4928 	0.044133
40.05 	0.040065 	4917 	0.039450
40.07 	0.045907 	4923 	0.045669
40.09 	0.039463 	4916 	0.038629
40.11 	0.047396 	4916 	0.047158
40.13 	0.050245 	4896 	0.049886
40.15 	0.044576 	4913 	0.043860
40.17 	0.041802 	4928 	0.041564
40.19 	0.040576 	4929 	0.040338
40.21 	0.044580 	4935 	0.043986
40.23 	0.043187 	4932 	0.042950
40.25 	0.040041 	4920 	0.039326
40.27 	0.045372 	4937 	0.045016
40.29 	0.041405 	4927 	0.041167
40.31 	0.045961 	4939 	0.045249
40.33 	0.045823 	4932 	0.045091
40.35 	0.045944 	4919 	0.045468
40.37 	0.041388 	4929 	0.041031
40.39 	0.044210 	4931 	0.042903
40.41 	0.039594 	4925 	0.039237
40.43 	0.044697 	4922 	0.043269
40.45 	0.045206 	4933 	0.044236
40.47 	0.044734 	4918 	0.044019
40.49 	0.039586 	4926 	0.039467
40.51 	0.041853 	4922 	0.041377
40.53 	0.036819 	4916 	0.036461
40.55 	0.041972 	4908 	0.041614
40.57 	0.042331 	4890 	0.041972
40.59 	0.044764 	4937 	0.044052
40.61 	0.045593 	4935 	0.045237
40.63 	0.043408 	4930 	0.042932
40.65 	0.044967 	4937 	0.044492
40.67 	0.042376 	4932 	0.041901
40.69 	0.046182 	4937 	0.045450
40.71 	0.045620 	4932 	0.045502
40.73 	0.038977 	4926 	0.038382
40.75 	0.036301 	4931 	0.035945
40.77 	0.043126 	4939 	0.042770
40.79 	0.041633 	4924 	0.040800
40.81 	0.038859 	4941 	0.038365
40.83 	0.044034 	4928 	0.043202
40.85 	0.038993 	4924 	0.038755
40.87 	0.043831 	4928 	0.043237
40.89 	0.043602 	4931 	0.042889
40.91 	0.045501 	4923 	0.045025
40.93 	0.045602 	4934 	0.044890
40.95 	0.039691 	4913 	0.039452
40.97 	0.040617 	4924 	0.040260
40.99 	0.043867 	4924 	0.043629
41.01 	0.047842 	4912 	0.047226
41.03 	0.039551 	4905 	0.038715
41.05 	0.043152 	4936 	0.042440
41.07 	0.038540 	4930 	0.037470
41.09 	0.041709 	4939 	0.040523
41.11 	0.039108 	4935 	0.038515
41.13 	0.042747 	4936 	0.041916
41.15 	0.040073 	4941 	0.039362
41.17 	0.042967 	4934 	0.042730
41.19 	0.042191 	4930 	0.041597
41.21 	0.041118 	4937 	0.040762
41.23 	0.040494 	4939 	0.040020
41.25 	0.041962 	4933 	0.041606
41.27 	0.037923 	4931 	0.037923
41.29 	0.037946 	4928 	0.037471
41.31 	0.041151 	4933 	0.040676
41.33 	0.044156 	4937 	0.043563
41.35 	0.043742 	4938 	0.042892
41.37 	0.041024 	4924 	0.040786
41.39 	0.041557 	4933 	0.041062
41.41 	0.045270 	4926 	0.044794
41.43 	0.037736 	4929 	0.037379
41.45 	0.041311 	4914 	0.040715
41.47 	0.035120 	4926 	0.035120
41.49 	0.038635 	4892 	0.038275
41.51 	0.043117 	4940 	0.042762
41.53 	0.046926 	4944 	0.045978
41.55 	0.047011 	4935 	0.046774
41.57 	0.042299 	4941 	0.041588
41.59 	0.043787 	4933 	0.043055
41.61 	0.039976 	4953 	0.039148
41.63 	0.040097 	4938 	0.039623
41.65 	0.038953 	4929 	0.038478
41.67 	0.040891 	4940 	0.040654
41.69 	0.042854 	4947 	0.042262
41.71 	0.041143 	4934 	0.040431
41.73 	0.040924 	4936 	0.040805
41.75 	0.044025 	4929 	0.043550
41.77 	0.041894 	4941 	0.041183
41.79 	0.050364 	4944 	0.049653
41.81 	0.038695 	4936 	0.038458
41.83 	0.043222 	4928 	0.042509
41.85 	0.038267 	4939 	0.037792
41.87 	0.038095 	4935 	0.038095
41.89 	0.038313 	4933 	0.037720
41.91 	0.038493 	4936 	0.038255
41.93 	0.039740 	4932 	0.039384
41.95 	0.040763 	4931 	0.040287
41.97 	0.036630 	4914 	0.036392
41.99 	0.034047 	4905 	0.033569
42.01 	0.034804 	4942 	0.034567
42.03 	0.045353 	4939 	0.045116
42.05 	0.039782 	4952 	0.038836
42.07 	0.042131 	4937 	0.041894
42.09 	0.036378 	4948 	0.036023
42.11 	0.034378 	4945 	0.033549
42.13 	0.044489 	4945 	0.043779
42.15 	0.040300 	4938 	0.039588
42.17 	0.042700 	4918 	0.041628
42.19 	0.041565 	4908 	0.041207
42.21 	0.043461 	4901 	0.042743
42.23 	0.039861 	4892 	0.039741
42.25 	0.037431 	4889 	0.036952
42.27 	0.037957 	4874 	0.037716
42.29 	0.038659 	4863 	0.038298
42.31 	0.040371 	4855 	0.039647
42.33 	0.037650 	4834 	0.037044
42.35 	0.043613 	4838 	0.042766
42.37 	0.039752 	4830 	0.039266
42.39 	0.043922 	4804 	0.043434
42.41 	0.032265 	4804 	0.032143
42.43 	0.039023 	4792 	0.038412
42.45 	0.037060 	4776 	0.036447
42.47 	0.037146 	4765 	0.037023
42.49 	0.037775 	4765 	0.037407
42.51 	0.038583 	4743 	0.038213
42.53 	0.036379 	4728 	0.036131
42.55 	0.039295 	4708 	0.038424
42.57 	0.036364 	4730 	0.035992
42.59 	0.034045 	4729 	0.033550
42.61 	0.039507 	4708 	0.039010
42.63 	0.038649 	4709 	0.038276
42.65 	0.038634 	4685 	0.038509
42.67 	0.039496 	4684 	0.039121
42.69 	0.037013 	4674 	0.036241
42.71 	0.042462 	4663 	0.042211
42.73 	0.036422 	4640 	0.035791
42.75 	0.038337 	4617 	0.038337
42.77 	0.036739 	4600 	0.036230
42.79 	0.036229 	4582 	0.035973
42.81 	0.036168 	4562 	0.035526
42.83 	0.038360 	4536 	0.038231
42.85 	0.036882 	4528 	0.036752
42.87 	0.038008 	4499 	0.038008
42.89 	0.034375 	4480 	0.033830
42.91 	0.039048 	4456 	0.038654
42.93 	0.035313 	4446 	0.035049
42.95 	0.037138 	4416 	0.036474
42.97 	0.036583 	4401 	0.036183
42.99 	0.037172 	4385 	0.036771
43.01 	0.042402 	4363 	0.041999
43.03 	0.033464 	4333 	0.033329
43.05 	0.040000 	4325 	0.039323
43.07 	0.044227 	4296 	0.043409
43.09 	0.034088 	4283 	0.033678
43.11 	0.035723 	4255 	0.035447
43.13 	0.041067 	4237 	0.040514
43.15 	0.035663 	4206 	0.035106
43.17 	0.037808 	4179 	0.037528
43.19 	0.042442 	4194 	0.041743
43.21 	0.038830 	4172 	0.037988
43.23 	0.034665 	4154 	0.034383
43.25 	0.033857 	4135 	0.033574
43.27 	0.039220 	4105 	0.039078
43.29 	0.039268 	4100 	0.038697
43.31 	0.032851 	4079 	0.032277
43.33 	0.035794 	4051 	0.035649
43.35 	0.031746 	4032 	0.031455
43.37 	0.040349 	4015 	0.039765
43.39 	0.038731 	4002 	0.038584
43.41 	0.036002 	3972 	0.035855
43.43 	0.035101 	3960 	0.034953
43.45 	0.033037 	3935 	0.033037
43.47 	0.037235 	3921 	0.036937
43.49 	0.040287 	3897 	0.039987
43.51 	0.037400 	3877 	0.036922
43.53 	0.036500 	3863 	0.035590
43.55 	0.032726 	2964 	0.032726
43.57 	0.034853 	2238 	0.034853
43.59 	0.037801 	1746 	0.036794
43.61 	0.034789 	1351 	0.034355
43.63 	0.043956 	1001 	0.042689
43.65 	0.032023 	687 	0.032023
43.67 	0.053785 	502 	0.053785
43.69 	0.049046 	367 	0.049046
43.71 	0.016736 	239 	0.016736
43.73 	0.041667 	120 	0.041667
43.75 	0.062500 	16 	0.062500