File: Example_Data/25SC_s1_0004.004.dat
#F C:\frames\spec\25SC_s1_0004.004
#C title =s:4 frm:4 25SC_s1
#C wavelength =0.15406

#S 1  fr_average C:\frames\spec\25SC_s1_0004.004 C:\win32app\speccom\mask.axs chi 0 180 0 360 0.02
#C 2 theta =0.000000 to 180 deg
#C   q   =0.000000 to 81.568 nm^-1
#C  chi  =0.000000 to 360 deg
#C collumns:
#C  1 position (2theta or chi in degrees)
#C  2 average intensity (sum of all counts in the region divided with number of pixels)
#C  3 Number of pixels in region)
#C  4 error (sum of sqrt(intensity) for all pixels divided by number)
#N 4
#L TTh  Int  N_pix  Err
32.99 	0.065574 	61 	0.065574
33.01 	0.049255 	873 	0.048584
33.03 	0.056075 	1391 	0.054811
33.05 	0.056346 	1757 	0.055679
33.07 	0.061463 	2050 	0.059749
33.09 	0.052833 	2347 	0.052334
33.11 	0.068244 	2579 	0.067562
33.13 	0.059076 	2793 	0.058657
33.15 	0.058019 	2999 	0.057433
33.17 	0.063105 	3201 	0.062556
33.19 	0.055356 	3342 	0.054830
33.21 	0.056461 	3436 	0.055950
33.23 	0.057905 	3523 	0.056908
33.25 	0.052049 	3612 	0.050562
33.27 	0.064187 	3630 	0.063031
33.29 	0.057018 	3648 	0.056536
33.31 	0.054098 	3660 	0.053298
33.33 	0.062670 	3686 	0.061716
33.35 	0.067948 	3694 	0.066838
33.37 	0.059774 	3714 	0.058670
33.39 	0.065165 	3729 	0.064354
33.41 	0.067914 	3740 	0.066975
33.43 	0.066206 	3761 	0.065583
33.45 	0.061490 	3773 	0.060869
33.47 	0.056345 	3798 	0.055574
33.49 	0.060908 	3809 	0.059832
33.51 	0.056356 	3815 	0.055282
33.53 	0.060661 	3841 	0.059899
33.55 	0.061150 	3843 	0.060363
33.57 	0.066546 	3877 	0.065186
33.59 	0.066753 	3880 	0.065394
33.61 	0.059606 	3909 	0.058707
33.63 	0.064557 	3919 	0.063511
33.65 	0.056729 	3931 	0.055685
33.67 	0.062215 	3954 	0.060734
33.69 	0.061219 	3953 	0.060182
33.71 	0.058616 	3975 	0.057585
33.73 	0.065934 	4004 	0.064617
33.75 	0.062516 	3999 	0.061344
33.77 	0.067578 	4025 	0.065540
33.79 	0.058154 	4041 	0.057284
33.81 	0.064141 	4038 	0.062690
33.83 	0.051605 	4050 	0.050569
33.85 	0.063430 	4099 	0.062430
33.87 	0.058380 	4111 	0.057810
33.89 	0.061150 	4121 	0.059729
33.91 	0.058086 	4149 	0.057380
33.93 	0.059504 	4151 	0.058657
33.95 	0.061229 	4181 	0.060109
33.97 	0.056802 	4190 	0.055963
33.99 	0.059762 	4200 	0.059204
34.01 	0.064325 	4213 	0.062795
34.03 	0.060085 	4244 	0.058981
34.05 	0.061853 	4252 	0.060613
34.07 	0.059747 	4268 	0.058649
34.09 	0.065329 	4286 	0.064509
34.11 	0.059507 	4302 	0.058554
34.13 	0.061281 	4308 	0.059650
34.15 	0.058185 	4331 	0.057374
34.17 	0.060920 	4350 	0.060516
34.19 	0.056625 	4362 	0.056088
34.21 	0.062000 	4371 	0.060793
34.23 	0.060779 	4393 	0.059578
34.25 	0.061081 	4404 	0.060128
34.27 	0.062641 	4422 	0.061449
34.29 	0.061556 	4435 	0.060763
34.31 	0.059444 	4458 	0.058261
34.33 	0.061955 	4471 	0.060383
34.35 	0.061552 	4484 	0.060094
34.37 	0.067914 	4491 	0.066348
34.39 	0.063527 	4502 	0.062877
34.41 	0.062307 	4526 	0.061012
34.43 	0.059264 	4539 	0.057974
34.45 	0.065050 	4535 	0.063758
34.47 	0.065984 	4592 	0.064709
34.49 	0.060474 	4597 	0.059710
34.51 	0.062527 	4606 	0.061107
34.53 	0.060952 	4643 	0.060573
34.55 	0.059444 	4643 	0.057910
34.57 	0.060086 	4660 	0.059080
34.59 	0.059893 	4675 	0.058515
34.61 	0.059187 	4697 	0.058418
34.63 	0.056263 	4710 	0.055766
34.65 	0.055073 	4721 	0.054080
34.67 	0.063278 	4741 	0.061919
34.69 	0.052587 	4754 	0.051088
34.71 	0.063156 	4766 	0.062172
34.73 	0.065594 	4787 	0.064493
34.75 	0.060108 	4808 	0.058768
34.77 	0.053134 	4818 	0.052769
34.79 	0.055970 	4824 	0.054756
34.81 	0.051600 	4845 	0.051237
34.83 	0.067051 	4862 	0.065364
34.85 	0.061820 	4869 	0.060978
34.87 	0.067379 	4868 	0.066055
34.89 	0.061860 	4882 	0.061140
34.91 	0.056944 	4882 	0.056224
34.93 	0.058788 	4899 	0.057692
34.95 	0.061350 	4890 	0.060391
34.97 	0.059976 	4902 	0.059020
34.99 	0.054319 	4897 	0.053482
35.01 	0.056876 	4923 	0.056281
35.03 	0.059073 	4943 	0.057651
35.05 	0.060239 	4947 	0.058917
35.07 	0.068826 	4940 	0.067502
35.09 	0.063598 	4953 	0.062652
35.11 	0.063271 	4947 	0.061613
35.13 	0.058088 	4958 	0.057615
35.15 	0.061778 	4937 	0.060335
35.17 	0.059442 	4946 	0.058376
35.19 	0.061514 	4942 	0.060091
35.21 	0.064105 	4945 	0.063039
35.23 	0.064105 	4945 	0.063020
35.25 	0.060490 	4943 	0.059305
35.27 	0.064875 	4948 	0.063809
35.29 	0.062690 	4945 	0.061150
35.31 	0.066896 	4933 	0.066065
35.33 	0.063726 	4943 	0.062304
35.35 	0.068191 	4942 	0.067105
35.37 	0.067625 	4939 	0.066320
35.39 	0.059050 	4945 	0.057727
35.41 	0.064961 	4926 	0.063653
35.43 	0.052706 	4933 	0.052350
35.45 	0.054081 	4937 	0.053132
35.47 	0.055972 	4931 	0.054903
35.49 	0.063747 	4910 	0.061938
35.51 	0.050954 	4926 	0.050241
35.53 	0.065872 	4949 	0.064925
35.55 	0.064105 	4945 	0.062921
35.57 	0.057774 	4933 	0.056349
35.59 	0.062083 	4945 	0.061254
35.61 	0.059085 	4942 	0.057999
35.63 	0.063929 	4943 	0.062388
35.65 	0.067745 	4945 	0.066660
35.67 	0.057062 	4942 	0.056351
35.69 	0.065710 	4946 	0.064170
35.71 	0.063601 	4937 	0.061703
35.73 	0.072123 	4936 	0.070699
35.75 	0.063882 	4931 	0.062931
35.77 	0.063825 	4951 	0.062623
35.79 	0.064477 	4932 	0.063764
35.81 	0.063653 	4933 	0.062208
35.83 	0.065507 	4946 	0.063613
35.85 	0.060588 	4935 	0.059757
35.87 	0.060126 	4923 	0.059055
35.89 	0.067694 	4934 	0.065675
35.91 	0.067790 	4927 	0.066720
35.93 	0.059265 	4927 	0.058314
35.95 	0.061013 	4917 	0.059702
35.97 	0.063518 	4912 	0.062445
35.99 	0.056489 	4939 	0.055540
36.01 	0.062880 	4930 	0.061811
36.03 	0.057455 	4943 	0.056625
36.05 	0.063094 	4945 	0.062383
36.07 	0.059729 	4939 	0.058286
36.09 	0.065992 	4940 	0.064806
36.11 	0.063096 	4929 	0.061789
36.13 	0.061514 	4942 	0.059973
36.15 	0.055679 	4939 	0.054612
36.17 	0.065787 	4925 	0.064597
36.19 	0.060931 	4940 	0.059745
36.21 	0.061270 	4929 	0.060557
36.23 	0.063830 	4935 	0.063236
36.25 	0.060919 	4941 	0.059813
36.27 	0.063959 	4925 	0.062532
36.29 	0.066518 	4931 	0.065330
36.31 	0.064732 	4928 	0.064138
36.33 	0.061220 	4933 	0.060627
36.35 	0.064719 	4929 	0.063273
36.37 	0.059110 	4923 	0.058634
36.39 	0.066653 	4921 	0.065324
36.41 	0.059436 	4896 	0.058479
36.43 	0.061891 	4928 	0.061059
36.45 	0.057404 	4930 	0.055740
36.47 	0.060170 	4936 	0.059201
36.49 	0.066572 	4942 	0.065505
36.51 	0.061220 	4933 	0.059914
36.53 	0.058062 	4943 	0.056758
36.55 	0.064136 	4927 	0.063661
36.57 	0.061208 	4934 	0.060258
36.59 	0.060741 	4939 	0.059199
36.61 	0.061854 	4931 	0.060903
36.63 	0.060434 	4931 	0.059464
36.65 	0.056367 	4932 	0.055179
36.67 	0.057201 	4930 	0.055755
36.69 	0.061879 	4929 	0.060928
36.71 	0.061166 	4921 	0.059976
36.73 	0.061117 	4925 	0.060403
36.75 	0.065534 	4944 	0.064586
36.77 	0.063631 	4919 	0.062797
36.79 	0.053851 	4921 	0.052780
36.81 	0.059601 	4916 	0.059125
36.83 	0.063072 	4915 	0.061880
36.85 	0.060637 	4898 	0.059800
36.87 	0.055825 	4944 	0.055114
36.89 	0.063263 	4916 	0.062171
36.91 	0.055859 	4941 	0.055385
36.93 	0.059229 	4930 	0.058041
36.95 	0.057369 	4933 	0.056419
36.97 	0.057560 	4934 	0.056709
36.99 	0.057345 	4935 	0.056871
37.01 	0.063856 	4933 	0.063024
37.03 	0.058489 	4924 	0.057399
37.05 	0.059062 	4927 	0.058092
37.07 	0.055927 	4935 	0.054602
37.09 	0.055195 	4928 	0.053887
37.11 	0.060588 	4935 	0.059401
37.13 	0.059911 	4924 	0.058959
37.15 	0.055612 	4909 	0.055015
37.17 	0.063235 	4934 	0.062285
37.19 	0.060711 	4925 	0.059026
37.21 	0.061216 	4917 	0.060621
37.23 	0.055714 	4918 	0.054880
37.25 	0.058847 	4911 	0.058370
37.27 	0.057417 	4894 	0.056340
37.29 	0.058621 	4930 	0.057908
37.31 	0.056738 	4935 	0.055056
37.33 	0.049726 	4927 	0.049013
37.35 	0.059741 	4938 	0.058673
37.37 	0.055409 	4927 	0.054577
37.39 	0.051916 	4931 	0.051204
37.41 	0.053133 	4931 	0.052777
37.43 	0.056367 	4932 	0.055298
37.45 	0.054833 	4924 	0.053406
37.47 	0.058835 	4929 	0.057647
37.49 	0.057688 	4923 	0.056855
37.51 	0.055747 	4933 	0.054678
37.53 	0.055906 	4919 	0.055072
37.55 	0.054361 	4930 	0.053410
37.57 	0.057868 	4925 	0.056916
37.59 	0.056765 	4915 	0.055812
37.61 	0.061764 	4922 	0.061049
37.63 	0.058345 	4919 	0.057154
37.65 	0.053680 	4918 	0.052966
37.67 	0.063622 	4904 	0.062049
37.69 	0.052675 	4898 	0.051957
37.71 	0.052546 	4929 	0.051219
37.73 	0.059444 	4929 	0.058731
37.75 	0.056478 	4940 	0.055648
37.77 	0.059959 	4920 	0.058769
37.79 	0.053550 	4930 	0.052837
37.81 	0.064058 	4933 	0.062396
37.83 	0.061585 	4920 	0.061109
37.85 	0.055668 	4922 	0.054716
37.87 	0.056489 	4939 	0.055896
37.89 	0.057462 	4925 	0.056035
37.91 	0.063895 	4930 	0.062231
37.93 	0.061395 	4919 	0.060204
37.95 	0.052835 	4921 	0.052121
37.97 	0.051532 	4929 	0.050224
37.99 	0.054967 	4912 	0.054610
38.01 	0.061282 	4928 	0.060450
38.03 	0.059686 	4909 	0.058235
38.05 	0.064975 	4925 	0.064023
38.07 	0.056631 	4909 	0.055557
38.09 	0.059246 	4878 	0.058285
38.11 	0.063222 	4935 	0.062391
38.13 	0.054487 	4937 	0.053893
38.15 	0.061407 	4918 	0.060196
38.17 	0.055172 	4930 	0.054578
38.19 	0.059229 	4930 	0.058160
38.21 	0.067235 	4923 	0.066145
38.23 	0.059133 	4938 	0.057947
38.25 	0.067928 	4917 	0.066617
38.27 	0.062069 	4930 	0.060762
38.29 	0.060317 	4924 	0.059127
38.31 	0.063528 	4927 	0.063171
38.33 	0.067222 	4924 	0.066508
38.35 	0.064529 	4928 	0.063222
38.37 	0.060723 	4924 	0.059890
38.39 	0.069668 	4909 	0.068833
38.41 	0.066626 	4923 	0.065079
38.43 	0.076892 	4916 	0.074628
38.45 	0.074420 	4918 	0.073229
38.47 	0.067862 	4907 	0.066072
38.49 	0.066639 	4877 	0.065438
38.51 	0.072993 	4932 	0.071449
38.53 	0.073443 	4929 	0.071760
38.55 	0.072326 	4936 	0.071139
38.57 	0.067642 	4923 	0.066571
38.59 	0.068846 	4924 	0.067280
38.61 	0.067261 	4936 	0.066035
38.63 	0.059708 	4924 	0.058875
38.65 	0.056527 	4918 	0.055931
38.67 	0.063601 	4937 	0.062277
38.69 	0.059529 	4922 	0.058458
38.71 	0.063160 	4924 	0.061455
38.73 	0.064457 	4918 	0.063147
38.75 	0.053785 	4927 	0.052834
38.77 	0.059313 	4923 	0.058481
38.79 	0.065869 	4934 	0.063575
38.81 	0.057003 	4912 	0.055691
38.83 	0.058955 	4919 	0.058002
38.85 	0.058632 	4912 	0.057678
38.87 	0.059662 	4911 	0.058946
38.89 	0.057586 	4897 	0.056131
38.91 	0.056496 	4903 	0.055779
38.93 	0.063183 	4938 	0.061978
38.95 	0.054087 	4918 	0.052539
38.97 	0.057189 	4931 	0.056476
38.99 	0.060361 	4937 	0.059293
39.01 	0.054290 	4918 	0.053218
39.03 	0.055938 	4934 	0.054514
39.05 	0.059086 	4925 	0.058254
39.07 	0.060114 	4924 	0.058805
39.09 	0.051391 	4923 	0.050559
39.11 	0.058609 	4931 	0.058015
39.13 	0.060126 	4923 	0.059412
39.15 	0.060224 	4915 	0.058178
39.17 	0.056715 	4937 	0.056121
39.19 	0.056539 	4917 	0.055347
39.21 	0.054379 	4910 	0.053544
39.23 	0.059898 	4925 	0.059066
39.25 	0.053434 	4922 	0.052581
39.27 	0.052749 	4910 	0.051676
39.29 	0.053254 	4901 	0.052537
39.31 	0.047912 	4884 	0.047312
39.33 	0.058000 	4931 	0.057149
39.35 	0.058967 	4935 	0.058254
39.37 	0.058024 	4929 	0.056935
39.39 	0.054575 	4929 	0.053505
39.41 	0.051105 	4931 	0.049917
39.43 	0.057166 	4933 	0.056335
39.45 	0.058071 	4925 	0.056882
39.47 	0.053626 	4923 	0.052674
39.49 	0.058585 	4933 	0.057873
39.51 	0.053615 	4924 	0.053139
39.53 	0.055657 	4923 	0.054943
39.55 	0.057125 	4919 	0.056649
39.57 	0.055544 	4933 	0.054476
39.59 	0.063925 	4912 	0.062136
39.61 	0.061548 	4923 	0.060239
39.63 	0.063795 	4922 	0.062248
39.65 	0.052984 	4926 	0.052251
39.67 	0.061470 	4913 	0.060019
39.69 	0.059194 	4916 	0.058480
39.71 	0.061287 	4895 	0.060569
39.73 	0.051752 	4908 	0.050917
39.75 	0.057630 	4928 	0.056798
39.77 	0.057953 	4935 	0.057004
39.79 	0.056435 	4926 	0.055603
39.81 	0.057439 	4927 	0.056706
39.83 	0.056141 	4934 	0.055073
39.85 	0.056018 	4927 	0.054948
39.87 	0.058680 	4925 	0.057610
39.89 	0.059789 	4934 	0.058958
39.91 	0.061357 	4922 	0.060524
39.93 	0.052866 	4937 	0.052392
39.95 	0.055341 	4915 	0.054268
39.97 	0.055195 	4928 	0.054482
39.99 	0.059002 	4932 	0.058290
40.01 	0.059170 	4918 	0.058098
40.03 	0.051745 	4928 	0.050556
40.05 	0.057555 	4917 	0.057079
40.07 	0.057282 	4923 	0.056449
40.09 	0.047803 	4916 	0.047207
40.11 	0.059398 	4916 	0.058445
40.13 	0.059641 	4896 	0.058564
40.15 	0.051496 	4913 	0.050403
40.17 	0.058239 	4928 	0.056693
40.19 	0.054372 	4929 	0.053897
40.21 	0.058967 	4935 	0.058017
40.23 	0.054745 	4932 	0.053676
40.25 	0.050407 	4920 	0.049930
40.27 	0.053676 	4937 	0.052826
40.29 	0.057236 	4927 	0.056166
40.31 	0.051022 	4939 	0.050785
40.33 	0.052920 	4932 	0.052801
40.35 	0.051230 	4919 	0.050634
40.37 	0.052140 	4929 	0.051427
40.39 	0.053133 	4931 	0.052539
40.41 	0.051777 	4925 	0.051043
40.43 	0.054653 	4922 	0.053819
40.45 	0.053720 	4933 	0.052889
40.47 	0.051647 	4918 	0.050694
40.49 	0.052781 	4926 	0.051830
40.51 	0.055059 	4922 	0.054702
40.53 	0.050041 	4916 	0.049445
40.55 	0.051752 	4908 	0.050917
40.57 	0.052761 	4890 	0.052042
40.59 	0.053879 	4937 	0.053167
40.61 	0.054509 	4935 	0.054153
40.63 	0.053550 	4930 	0.052461
40.65 	0.051853 	4937 	0.051260
40.67 	0.046837 	4932 	0.046243
40.69 	0.059145 	4937 	0.057959
40.71 	0.055150 	4932 	0.054319
40.73 	0.048518 	4926 	0.047686
40.75 	0.052930 	4931 	0.052455
40.77 	0.054667 	4939 	0.053837
40.79 	0.052803 	4924 	0.051970
40.81 	0.057073 	4941 	0.056244
40.83 	0.048498 	4928 	0.048142
40.85 	0.055037 	4924 	0.054323
40.87 	0.047890 	4928 	0.047414
40.89 	0.059014 	4931 	0.058420
40.91 	0.050985 	4923 	0.050509
40.93 	0.050669 	4934 	0.050075
40.95 	0.050478 	4913 	0.050001
40.97 	0.055849 	4924 	0.055016
40.99 	0.052803 	4924 	0.051970
41.01 	0.052932 	4912 	0.052216
41.03 	0.051988 	4905 	0.051271
41.05 	0.049838 	4936 	0.049363
41.07 	0.053753 	4930 	0.052802
41.09 	0.056084 	4939 	0.055491
41.11 	0.055117 	4935 	0.054523
41.13 	0.047812 	4936 	0.047219
41.15 	0.052621 	4941 	0.051653
41.17 	0.058979 	4934 	0.057653
41.19 	0.053347 	4930 	0.052515
41.21 	0.053069 	4937 	0.052119
41.23 	0.051022 	4939 	0.050074
41.25 	0.054733 	4933 	0.054377
41.27 	0.054350 	4931 	0.053281
41.29 	0.054789 	4928 	0.054076
41.31 	0.052301 	4933 	0.051351
41.33 	0.058132 	4937 	0.056946
41.35 	0.057108 	4938 	0.056001
41.37 	0.056661 	4924 	0.055710
41.39 	0.058788 	4933 	0.057957
41.41 	0.054405 	4926 	0.054048
41.43 	0.049503 	4929 	0.048671
41.45 	0.047619 	4914 	0.046785
41.47 	0.051360 	4926 	0.050508
41.49 	0.049264 	4892 	0.048186
41.51 	0.049595 	4940 	0.049239
41.53 	0.052184 	4944 	0.051474
41.55 	0.048835 	4935 	0.048479
41.57 	0.049990 	4941 	0.048903
41.59 	0.054531 	4933 	0.053324
41.61 	0.052493 	4953 	0.052139
41.63 	0.046780 	4938 	0.046661
41.65 	0.047880 	4929 	0.046910
41.67 	0.052429 	4940 	0.052192
41.69 	0.055994 	4947 	0.055757
41.71 	0.053506 	4934 	0.052675
41.73 	0.048622 	4936 	0.047792
41.75 	0.048489 	4929 	0.047894
41.77 	0.053430 	4941 	0.052956
41.79 	0.048746 	4944 	0.048154
41.81 	0.051459 	4936 	0.050628
41.83 	0.051948 	4928 	0.051591
41.85 	0.050618 	4939 	0.049787
41.87 	0.054711 	4935 	0.054236
41.89 	0.041760 	4933 	0.041522
41.91 	0.052472 	4936 	0.051997
41.93 	0.054947 	4932 	0.054116
41.95 	0.049686 	4931 	0.049567
41.97 	0.054335 	4914 	0.053600
41.99 	0.049949 	4905 	0.048994
42.01 	0.048159 	4942 	0.047210
42.03 	0.047783 	4939 	0.047309
42.05 	0.049273 	4952 	0.048445
42.07 	0.047600 	4937 	0.047125
42.09 	0.048302 	4948 	0.047829
42.11 	0.049343 	4945 	0.048632
42.13 	0.046309 	4945 	0.045954
42.15 	0.049008 	4938 	0.048533
42.17 	0.050630 	4918 	0.049797
42.19 	0.049715 	4908 	0.048879
42.21 	0.045297 	4901 	0.044699
42.23 	0.050695 	4892 	0.049977
42.25 	0.049908 	4889 	0.049788
42.27 	0.048625 	4874 	0.048505
42.29 	0.054493 	4863 	0.053871
42.31 	0.051699 	4855 	0.051096
42.33 	0.046545 	4834 	0.046061
42.35 	0.049607 	4838 	0.049486
42.37 	0.049896 	4830 	0.049169
42.39 	0.046628 	4804 	0.046018
42.41 	0.050583 	4804 	0.050095
42.43 	0.051962 	4792 	0.050861
42.45 	0.052554 	4776 	0.051573
42.47 	0.046590 	4765 	0.046221
42.49 	0.048478 	4765 	0.047741
42.51 	0.047438 	4743 	0.046450
42.53 	0.045051 	4728 	0.044183
42.55 	0.050977 	4708 	0.050604
42.57 	0.045877 	4730 	0.044887
42.59 	0.048848 	4729 	0.048228
42.61 	0.049490 	4708 	0.049117
42.63 	0.051391 	4709 	0.050500
42.65 	0.045464 	4685 	0.044839
42.67 	0.053800 	4684 	0.052529
42.69 	0.048994 	4674 	0.048493
42.71 	0.046322 	4663 	0.045945
42.73 	0.055172 	4640 	0.054142
42.75 	0.044834 	4617 	0.044707
42.77 	0.047826 	4600 	0.047444
42.79 	0.048014 	4582 	0.047630
42.81 	0.043402 	4562 	0.042888
42.83 	0.048060 	4536 	0.047802
42.85 	0.046820 	4528 	0.046302
42.87 	0.046010 	4499 	0.044969
42.89 	0.046875 	4480 	0.046090
42.91 	0.050269 	4456 	0.049743
42.93 	0.046784 	4446 	0.046388
42.95 	0.047328 	4416 	0.046643
42.97 	0.050216 	4401 	0.049417
42.99 	0.053592 	4385 	0.052657
43.01 	0.053633 	4363 	0.052693
43.03 	0.055620 	4333 	0.055214
43.05 	0.044624 	4325 	0.044353
43.07 	0.045391 	4296 	0.044437
43.09 	0.045762 	4283 	0.044942
43.11 	0.051469 	4255 	0.050368
43.13 	0.042011 	4237 	0.041181
43.15 	0.045887 	4206 	0.045469
43.17 	0.044508 	4179 	0.043948
43.19 	0.048402 	4194 	0.047564
43.21 	0.041707 	4172 	0.041566
43.23 	0.045498 	4154 	0.044629
43.25 	0.047158 	4135 	0.046875
43.27 	0.052862 	4105 	0.052006
43.29 	0.044390 	4100 	0.043676
43.31 	0.051974 	4079 	0.051686
43.33 	0.047889 	4051 	0.047311
43.35 	0.050347 	4032 	0.049621
43.37 	0.046077 	4015 	0.045640
43.39 	0.049725 	4002 	0.049432
43.41 	0.051863 	3972 	0.051126
43.43 	0.048737 	3960 	0.048294
43.45 	0.046252 	3935 	0.046252
43.47 	0.056873 	3921 	0.055678
43.49 	0.043880 	3897 	0.043279
43.51 	0.049265 	3877 	0.048182
43.53 	0.051773 	3863 	0.050990
43.55 	0.047233 	2964 	0.045850
43.57 	0.048257 	2238 	0.047996
43.59 	0.048683 	1746 	0.046670
43.61 	0.047372 	1351 	0.046505
43.63 	0.046953 	1001 	0.046368
43.65 	0.037846 	687 	0.037846
43.67 	0.051793 	502 	0.051793
43.69 	0.049046 	367 	0.047450
43.71 	0.029289 	239 	0.029289
43.73 	0.033333 	120 	0.033333
43.75 	0.000000 	16 	0.000000