File: Example_Data/25SC_s1_0019.004.dat
#F C:\frames\spec\25SC_s1_0019.004
#C title =s:19 frm:4 25SC_s1
#C wavelength =0.15406

#S 1  fr_average C:\frames\spec\25SC_s1_0019.004 C:\win32app\speccom\mask.axs chi 0 180 0 360 0.02
#C 2 theta =0.000000 to 180 deg
#C   q   =0.000000 to 81.568 nm^-1
#C  chi  =0.000000 to 360 deg
#C collumns:
#C  1 position (2theta or chi in degrees)
#C  2 average intensity (sum of all counts in the region divided with number of pixels)
#C  3 Number of pixels in region)
#C  4 error (sum of sqrt(intensity) for all pixels divided by number)
#N 4
#L TTh  Int  N_pix  Err
32.99 	0.065574 	61 	0.055971
33.01 	0.073310 	873 	0.072639
33.03 	0.054637 	1391 	0.054637
33.05 	0.068298 	1757 	0.067965
33.07 	0.060976 	2050 	0.060118
33.09 	0.061781 	2347 	0.061282
33.11 	0.057387 	2579 	0.056478
33.13 	0.055138 	2793 	0.054089
33.15 	0.057352 	2999 	0.056766
33.17 	0.060606 	3201 	0.059325
33.19 	0.058348 	3342 	0.056771
33.21 	0.053842 	3436 	0.053160
33.23 	0.053647 	3523 	0.052816
33.25 	0.060908 	3612 	0.059611
33.27 	0.058678 	3630 	0.057548
33.29 	0.061952 	3648 	0.060667
33.31 	0.065027 	3660 	0.064201
33.33 	0.062670 	3686 	0.061557
33.35 	0.061722 	3694 	0.060453
33.37 	0.051966 	3714 	0.051335
33.39 	0.052293 	3729 	0.050879
33.41 	0.058556 	3740 	0.058086
33.43 	0.064876 	3761 	0.064072
33.45 	0.059634 	3773 	0.058237
33.47 	0.059242 	3798 	0.058933
33.49 	0.055920 	3809 	0.054997
33.51 	0.056094 	3815 	0.055173
33.53 	0.054153 	3841 	0.053085
33.55 	0.064273 	3843 	0.063053
33.57 	0.061646 	3877 	0.060135
33.59 	0.057732 	3880 	0.056675
33.61 	0.061397 	3909 	0.060498
33.63 	0.057413 	3919 	0.056217
33.65 	0.062834 	3931 	0.061940
33.67 	0.063480 	3954 	0.062887
33.69 	0.056413 	3953 	0.055820
33.71 	0.057862 	3975 	0.056953
33.73 	0.062937 	4004 	0.062206
33.75 	0.056264 	3999 	0.055508
33.77 	0.061863 	4025 	0.060530
33.79 	0.056917 	4041 	0.056192
33.81 	0.055473 	4038 	0.053877
33.83 	0.059012 	4050 	0.058289
33.85 	0.062454 	4099 	0.061311
33.87 	0.053028 	4111 	0.052031
33.89 	0.067702 	4121 	0.066423
33.91 	0.060497 	4149 	0.059508
33.93 	0.063117 	4151 	0.061847
33.95 	0.066730 	4181 	0.065189
33.97 	0.059189 	4190 	0.057767
33.99 	0.060000 	4200 	0.058745
34.01 	0.062663 	4213 	0.061250
34.03 	0.064090 	4244 	0.062572
34.05 	0.058561 	4252 	0.057734
34.07 	0.065370 	4268 	0.064821
34.09 	0.065562 	4286 	0.063922
34.11 	0.061134 	4302 	0.060590
34.13 	0.054085 	4308 	0.053677
34.15 	0.066497 	4331 	0.065415
34.17 	0.060460 	4350 	0.059382
34.19 	0.063274 	4362 	0.061909
34.21 	0.059941 	4371 	0.058712
34.23 	0.063282 	4393 	0.062082
34.25 	0.060400 	4404 	0.059735
34.27 	0.063546 	4422 	0.062354
34.29 	0.057948 	4435 	0.057156
34.31 	0.061911 	4458 	0.061123
34.33 	0.063744 	4471 	0.062565
34.35 	0.058207 	4484 	0.057554
34.37 	0.063906 	4491 	0.063123
34.39 	0.058418 	4502 	0.057768
34.41 	0.060981 	4526 	0.059816
34.43 	0.053095 	4539 	0.052450
34.45 	0.062183 	4535 	0.061537
34.47 	0.061193 	4592 	0.060300
34.49 	0.066348 	4597 	0.065328
34.51 	0.065784 	4606 	0.064894
34.53 	0.063537 	4643 	0.062149
34.55 	0.060952 	4643 	0.059438
34.57 	0.058369 	4660 	0.057489
34.59 	0.062888 	4675 	0.062261
34.61 	0.062380 	4697 	0.061507
34.63 	0.067091 	4710 	0.066345
34.65 	0.061428 	4721 	0.060311
34.67 	0.059692 	4741 	0.058704
34.69 	0.058056 	4754 	0.057071
34.71 	0.057491 	4766 	0.056139
34.73 	0.065177 	4787 	0.064565
34.75 	0.058028 	4808 	0.057663
34.77 	0.056663 	4818 	0.055933
34.79 	0.057214 	4824 	0.055757
34.81 	0.059030 	4845 	0.057821
34.83 	0.061909 	4862 	0.060945
34.85 	0.052988 	4869 	0.051785
34.87 	0.056491 	4868 	0.055769
34.89 	0.062065 	4882 	0.059905
34.91 	0.069848 	4882 	0.068769
34.93 	0.060625 	4899 	0.059668
34.95 	0.058282 	4890 	0.057424
34.97 	0.057528 	4902 	0.056811
34.99 	0.060854 	4897 	0.059877
35.01 	0.060735 	4923 	0.059188
35.03 	0.060287 	4943 	0.059102
35.05 	0.054174 	4947 	0.053444
35.07 	0.060324 	4940 	0.059375
35.09 	0.061175 	4953 	0.059874
35.11 	0.068931 	4947 	0.067628
35.13 	0.063332 	4958 	0.062150
35.15 	0.062791 	4937 	0.061367
35.17 	0.063081 	4946 	0.061068
35.19 	0.061311 	4942 	0.060126
35.21 	0.060263 	4945 	0.059315
35.23 	0.061678 	4945 	0.060731
35.25 	0.061906 	4943 	0.060247
35.27 	0.061641 	4948 	0.060457
35.29 	0.062083 	4945 	0.061017
35.31 	0.061829 	4933 	0.060879
35.33 	0.058062 	4943 	0.057351
35.35 	0.059085 	4942 	0.057663
35.37 	0.063171 	4939 	0.061510
35.39 	0.058038 	4945 	0.056972
35.41 	0.058668 	4926 	0.057479
35.43 	0.061220 	4933 	0.060726
35.45 	0.053676 	4937 	0.052964
35.47 	0.062665 	4931 	0.061714
35.49 	0.063747 	4910 	0.062535
35.51 	0.063134 	4926 	0.061212
35.53 	0.066276 	4949 	0.065566
35.55 	0.059050 	4945 	0.058694
35.57 	0.054531 	4933 	0.053106
35.59 	0.058241 	4945 	0.057648
35.61 	0.058681 	4942 	0.058207
35.63 	0.058669 	4943 	0.057721
35.65 	0.056016 	4945 	0.054239
35.67 	0.056860 	4942 	0.055793
35.69 	0.062677 	4946 	0.061966
35.71 	0.056917 	4937 	0.055968
35.73 	0.054295 	4936 	0.053089
35.75 	0.062462 	4931 	0.061393
35.77 	0.060190 	4951 	0.059243
35.79 	0.063058 	4932 	0.061989
35.81 	0.061829 	4933 	0.060879
35.83 	0.063081 	4946 	0.061778
35.85 	0.053293 	4935 	0.052225
35.87 	0.059313 	4923 	0.058481
35.89 	0.054925 	4934 	0.053856
35.91 	0.060889 	4927 	0.059938
35.93 	0.067993 	4927 	0.066546
35.95 	0.062030 	4917 	0.060223
35.97 	0.060668 	4912 	0.059336
35.99 	0.058514 	4939 	0.057802
36.01 	0.059432 	4930 	0.058600
36.03 	0.062108 	4943 	0.060804
36.05 	0.054398 	4945 	0.053688
36.07 	0.056287 	4939 	0.054439
36.09 	0.059312 	4940 	0.058719
36.11 	0.062284 	4929 	0.061571
36.13 	0.055241 	4942 	0.054767
36.15 	0.057502 	4939 	0.056908
36.17 	0.066599 	4925 	0.064815
36.19 	0.056478 	4940 	0.055173
36.21 	0.058227 	4929 	0.057276
36.23 	0.066261 	4935 	0.064718
36.25 	0.058693 	4941 	0.057033
36.27 	0.061929 	4925 	0.060858
36.29 	0.060637 	4931 	0.059667
36.31 	0.056818 	4928 	0.056105
36.33 	0.061220 	4933 	0.059795
36.35 	0.064516 	4929 	0.063209
36.37 	0.057079 	4923 	0.055889
36.39 	0.057509 	4921 	0.056556
36.41 	0.062704 	4896 	0.061986
36.43 	0.058644 	4928 	0.057218
36.45 	0.057606 	4930 	0.056299
36.47 	0.056321 	4936 	0.055609
36.49 	0.064751 	4942 	0.062954
36.51 	0.055342 	4933 	0.054629
36.53 	0.057657 	4943 	0.056709
36.55 	0.055003 	4927 	0.053913
36.57 	0.058168 	4934 	0.057099
36.59 	0.059729 	4939 	0.058661
36.61 	0.051916 	4931 	0.051560
36.63 	0.059014 	4931 	0.058183
36.65 	0.058394 	4932 	0.056850
36.67 	0.059635 	4930 	0.058546
36.69 	0.057212 	4929 	0.055905
36.71 	0.057712 	4921 	0.057236
36.73 	0.063147 	4925 	0.061681
36.75 	0.053398 	4944 	0.052450
36.77 	0.059768 	4919 	0.059054
36.79 	0.058321 	4921 	0.057488
36.81 	0.057567 	4916 	0.056733
36.83 	0.054730 	4915 	0.053300
36.85 	0.060229 	4898 	0.059033
36.87 	0.056028 	4944 	0.055198
36.89 	0.056143 	4916 	0.054952
36.91 	0.055454 	4941 	0.054743
36.93 	0.049290 	4930 	0.048815
36.95 	0.053517 	4933 	0.052923
36.97 	0.058979 	4934 	0.057910
36.99 	0.059169 	4935 	0.057982
37.01 	0.059599 	4933 	0.058649
37.03 	0.056052 	4924 	0.055457
37.05 	0.058656 	4927 	0.058062
37.07 	0.060588 	4935 	0.059757
37.09 	0.062094 	4928 	0.060905
37.11 	0.051064 	4935 	0.050095
37.13 	0.056255 	4924 	0.055541
37.15 	0.058464 	4909 	0.057012
37.17 	0.056546 	4934 	0.055240
37.19 	0.059289 	4925 	0.057862
37.21 	0.057555 	4917 	0.055610
37.23 	0.058967 	4918 	0.058372
37.25 	0.055386 	4911 	0.054789
37.27 	0.052922 	4894 	0.052204
37.29 	0.051724 	4930 	0.050655
37.31 	0.050659 	4935 	0.050065
37.33 	0.057236 	4927 	0.055908
37.35 	0.057716 	4938 	0.056767
37.37 	0.060280 	4927 	0.059329
37.39 	0.055161 	4931 	0.054211
37.41 	0.059217 	4931 	0.058128
37.43 	0.055353 	4932 	0.054521
37.45 	0.055849 	4924 	0.055135
37.47 	0.057010 	4929 	0.055940
37.49 	0.055657 	4923 	0.054824
37.51 	0.049666 	4933 	0.049072
37.53 	0.054686 	4919 	0.053495
37.55 	0.055578 	4930 	0.054489
37.57 	0.053198 	4925 	0.052227
37.59 	0.054527 	4915 	0.053693
37.61 	0.055059 	4922 	0.054345
37.63 	0.059972 	4919 	0.059495
37.65 	0.054087 	4918 	0.052400
37.67 	0.053222 	4904 	0.052505
37.69 	0.058595 	4898 	0.058117
37.71 	0.056807 	4929 	0.055856
37.73 	0.049706 	4929 	0.048379
37.75 	0.053441 	4940 	0.052967
37.77 	0.058130 	4920 	0.056801
37.79 	0.057606 	4930 	0.056537
37.81 	0.055139 	4933 	0.053476
37.83 	0.057520 	4920 	0.056211
37.85 	0.061764 	4922 	0.060792
37.87 	0.058311 	4939 	0.057481
37.89 	0.056041 	4925 	0.055565
37.91 	0.059026 	4930 	0.057957
37.93 	0.055499 	4919 	0.054665
37.95 	0.059134 	4921 	0.058420
37.97 	0.053561 	4929 	0.053204
37.99 	0.056393 	4912 	0.055558
38.01 	0.057021 	4928 	0.055337
38.03 	0.056631 	4909 	0.055776
38.05 	0.053401 	4925 	0.052212
38.07 	0.056020 	4909 	0.055184
38.09 	0.060476 	4878 	0.059735
38.11 	0.058764 	4935 	0.058289
38.13 	0.068665 	4937 	0.067241
38.15 	0.057340 	4918 	0.056149
38.17 	0.054767 	4930 	0.053935
38.19 	0.065517 	4930 	0.063715
38.21 	0.058095 	4923 	0.056429
38.23 	0.062981 	4938 	0.061795
38.25 	0.058776 	4917 	0.057584
38.27 	0.060649 	4930 	0.060411
38.29 	0.061942 	4924 	0.060395
38.31 	0.064136 	4927 	0.063166
38.33 	0.065191 	4924 	0.063406
38.35 	0.065747 	4928 	0.065034
38.37 	0.058286 	4924 	0.057572
38.39 	0.066612 	4909 	0.065419
38.41 	0.070689 	4923 	0.068666
38.43 	0.065704 	4916 	0.064631
38.45 	0.062220 	4918 	0.061248
38.47 	0.069900 	4907 	0.068448
38.49 	0.058438 	4877 	0.058077
38.51 	0.066707 	4932 	0.065757
38.53 	0.064922 	4929 	0.063615
38.55 	0.065843 	4936 	0.064419
38.57 	0.065407 	4923 	0.064693
38.59 	0.053818 	4924 	0.053223
38.61 	0.058549 	4936 	0.057719
38.63 	0.063566 	4924 	0.063090
38.65 	0.067304 	4918 	0.065755
38.67 	0.060158 	4937 	0.059683
38.69 	0.060138 	4922 	0.059424
38.71 	0.057271 	4924 	0.055585
38.73 	0.053884 	4918 	0.052812
38.75 	0.058453 	4927 	0.056769
38.77 	0.053016 	4923 	0.051946
38.79 	0.053912 	4934 	0.052724
38.81 	0.054967 	4912 	0.054252
38.83 	0.049604 	4919 	0.049108
38.85 	0.059853 	4912 	0.058661
38.87 	0.044797 	4911 	0.043962
38.89 	0.056157 	4897 	0.055319
38.91 	0.055068 	4903 	0.054113
38.93 	0.060551 	4938 	0.059009
38.95 	0.054697 	4918 	0.053625
38.97 	0.056581 	4931 	0.055512
38.99 	0.050233 	4937 	0.049521
39.01 	0.058357 	4918 	0.057762
39.03 	0.058573 	4934 	0.057980
39.05 	0.057056 	4925 	0.056580
39.07 	0.053006 	4924 	0.052173
39.09 	0.050579 	4923 	0.049746
39.11 	0.052728 	4931 	0.052252
39.13 	0.053423 	4923 	0.052213
39.15 	0.056562 	4915 	0.055469
39.17 	0.054487 	4937 	0.053419
39.19 	0.055725 	4917 	0.054772
39.21 	0.059470 	4910 	0.058277
39.23 	0.050964 	4925 	0.050013
39.25 	0.053637 	4922 	0.052209
39.27 	0.052138 	4910 	0.051781
39.29 	0.054071 	4901 	0.053712
39.31 	0.053030 	4884 	0.052071
39.33 	0.057189 	4931 	0.056595
39.35 	0.056535 	4935 	0.055348
39.37 	0.052343 	4929 	0.051393
39.39 	0.055995 	4929 	0.055025
39.41 	0.056175 	4931 	0.055819
39.43 	0.055544 	4933 	0.055188
39.45 	0.055025 	4925 	0.054312
39.47 	0.053423 	4923 	0.053066
39.49 	0.056558 	4933 	0.055370
39.51 	0.054630 	4924 	0.054273
39.53 	0.058298 	4923 	0.057564
39.55 	0.057125 	4919 	0.056530
39.57 	0.048855 	4933 	0.048261
39.59 	0.061482 	4912 	0.060170
39.61 	0.062970 	4923 	0.061899
39.63 	0.056075 	4922 	0.055004
39.65 	0.055217 	4926 	0.054147
39.67 	0.054956 	4913 	0.054122
39.69 	0.050651 	4916 	0.050174
39.71 	0.060878 	4895 	0.059921
39.73 	0.056235 	4908 	0.054802
39.75 	0.060674 	4928 	0.059604
39.77 	0.057143 	4935 	0.056549
39.79 	0.065976 	4926 	0.064649
39.81 	0.058453 	4927 	0.057978
39.83 	0.058168 	4934 	0.056743
39.85 	0.054191 	4927 	0.052864
39.87 	0.052995 	4925 	0.052262
39.89 	0.053101 	4934 	0.052151
39.91 	0.058919 	4922 	0.057372
39.93 	0.058740 	4937 	0.057435
39.95 	0.052492 	4915 	0.051420
39.97 	0.055601 	4928 	0.055006
39.99 	0.051095 	4932 	0.050620
40.01 	0.057747 	4918 	0.057013
40.03 	0.051948 	4928 	0.051354
40.05 	0.052471 	4917 	0.051875
40.07 	0.058907 	4923 	0.057479
40.09 	0.056753 	4916 	0.055919
40.11 	0.055736 	4916 	0.055260
40.13 	0.059641 	4896 	0.059042
40.15 	0.053328 	4913 	0.052016
40.17 	0.054180 	4928 	0.052873
40.19 	0.055184 	4929 	0.054589
40.21 	0.049240 	4935 	0.048884
40.23 	0.053731 	4932 	0.052761
40.25 	0.051626 	4920 	0.051269
40.27 	0.053474 	4937 	0.053118
40.29 	0.049117 	4927 	0.048166
40.31 	0.054262 	4939 	0.053432
40.33 	0.051298 	4932 	0.050229
40.35 	0.056312 	4919 	0.055598
40.37 	0.057212 	4929 	0.056143
40.39 	0.057189 	4931 	0.056120
40.41 	0.053198 	4925 	0.052484
40.43 	0.049573 	4922 	0.049216
40.45 	0.046422 	4933 	0.045710
40.47 	0.051444 	4918 	0.050590
40.49 	0.057044 	4926 	0.056212
40.51 	0.050589 	4922 	0.049994
40.53 	0.055533 	4916 	0.054818
40.55 	0.048696 	4908 	0.048099
40.57 	0.056237 	4890 	0.054920
40.59 	0.052664 	4937 	0.052189
40.61 	0.053495 	4935 	0.053258
40.63 	0.057809 	4930 	0.057077
40.65 	0.051853 	4937 	0.051122
40.67 	0.050487 	4932 	0.049418
40.69 	0.058132 	4937 	0.057302
40.71 	0.054745 	4932 	0.054151
40.73 	0.052578 	4926 	0.051508
40.75 	0.049077 	4931 	0.048483
40.77 	0.047985 	4939 	0.047511
40.79 	0.054427 	4924 	0.052623
40.81 	0.047359 	4941 	0.046766
40.83 	0.050325 	4928 	0.049730
40.85 	0.052803 	4924 	0.052089
40.87 	0.045455 	4928 	0.044741
40.89 	0.050091 	4931 	0.049497
40.91 	0.051595 	4923 	0.051238
40.93 	0.050669 	4934 	0.049600
40.95 	0.051903 	4913 	0.051307
40.97 	0.050162 	4924 	0.048953
40.99 	0.056661 	4924 	0.055690
41.01 	0.051914 	4912 	0.050363
41.03 	0.055046 	4905 	0.053971
41.05 	0.055511 	4936 	0.055273
41.07 	0.051724 	4930 	0.050655
41.09 	0.053655 	4939 	0.053299
41.11 	0.052077 	4935 	0.051365
41.13 	0.050648 	4936 	0.049818
41.15 	0.053026 	4941 	0.052196
41.17 	0.048034 	4934 	0.047183
41.19 	0.054158 	4930 	0.053326
41.21 	0.046790 	4937 	0.045959
41.23 	0.051832 	4939 	0.051121
41.25 	0.054328 	4933 	0.053022
41.27 	0.052119 	4931 	0.051406
41.29 	0.056818 	4928 	0.056105
41.31 	0.052706 	4933 	0.051737
41.33 	0.052866 	4937 	0.052392
41.35 	0.055893 	4938 	0.055300
41.37 	0.052193 	4924 	0.051480
41.39 	0.052706 	4933 	0.051737
41.41 	0.052578 	4926 	0.051865
41.43 	0.049097 	4929 	0.048622
41.45 	0.051079 	4914 	0.050840
41.47 	0.049736 	4926 	0.048904
41.49 	0.050082 	4892 	0.049603
41.51 	0.047368 	4940 	0.046538
41.53 	0.052994 	4944 	0.052638
41.55 	0.053901 	4935 	0.052714
41.57 	0.057883 	4941 	0.056579
41.59 	0.053314 	4933 	0.052483
41.61 	0.047244 	4953 	0.046771
41.63 	0.050020 	4938 	0.048597
41.65 	0.050112 	4929 	0.049280
41.67 	0.052429 	4940 	0.051243
41.69 	0.049727 	4947 	0.049017
41.71 	0.041548 	4934 	0.040955
41.73 	0.048622 	4936 	0.048029
41.75 	0.048083 	4929 	0.047370
41.77 	0.048371 	4941 	0.047778
41.79 	0.047735 	4944 	0.047123
41.81 	0.045989 	4936 	0.045376
41.83 	0.045455 	4928 	0.045217
41.85 	0.045556 	4939 	0.044963
41.87 	0.044580 	4935 	0.044223
41.89 	0.048855 	4933 	0.048261
41.91 	0.052269 	4936 	0.051676
41.93 	0.049067 	4932 	0.048236
41.95 	0.049280 	4931 	0.048567
41.97 	0.052910 	4914 	0.052195
41.99 	0.042202 	4905 	0.041246
42.01 	0.050384 	4942 	0.050029
42.03 	0.048795 	4939 	0.047965
42.05 	0.048465 	4952 	0.047874
42.07 	0.045574 	4937 	0.045456
42.09 	0.043452 	4948 	0.043215
42.11 	0.052174 	4945 	0.051226
42.13 	0.051769 	4945 	0.051414
42.15 	0.045362 	4938 	0.044750
42.17 	0.053274 	4918 	0.052559
42.19 	0.048900 	4908 	0.048661
42.21 	0.051418 	4901 	0.050701
42.23 	0.052330 	4892 	0.050893
42.25 	0.047863 	4889 	0.047383
42.27 	0.050882 	4874 	0.050161
42.29 	0.043800 	4863 	0.043318
42.31 	0.046756 	4855 	0.046032
42.33 	0.044063 	4834 	0.042851
42.35 	0.043613 	4838 	0.043371
42.37 	0.048033 	4830 	0.047427
42.39 	0.049750 	4804 	0.048775
42.41 	0.043714 	4804 	0.042616
42.43 	0.045910 	4792 	0.045421
42.45 	0.051508 	4776 	0.050772
42.47 	0.048269 	4765 	0.048023
42.49 	0.047429 	4765 	0.046937
42.51 	0.044697 	4743 	0.043956
42.53 	0.043993 	4728 	0.043374
42.55 	0.045667 	4708 	0.045667
42.57 	0.043552 	4730 	0.042809
42.59 	0.046310 	4729 	0.045195
42.61 	0.042056 	4708 	0.041310
42.63 	0.039074 	4709 	0.038825
42.65 	0.042263 	4685 	0.041512
42.67 	0.051238 	4684 	0.049863
42.69 	0.045571 	4674 	0.044318
42.71 	0.049539 	4663 	0.049162
42.73 	0.049138 	4640 	0.048128
42.75 	0.044834 	4617 	0.044454
42.77 	0.047391 	4600 	0.046882
42.79 	0.048450 	4582 	0.047172
42.81 	0.050197 	4562 	0.049812
42.83 	0.049824 	4536 	0.049565
42.85 	0.051678 	4528 	0.050902
42.87 	0.048011 	4499 	0.047099
42.89 	0.049554 	4480 	0.048377
42.91 	0.051616 	4456 	0.050696
42.93 	0.042060 	4446 	0.041797
42.95 	0.053442 	4416 	0.052492
42.97 	0.045444 	4401 	0.044224
42.99 	0.048803 	4385 	0.048268
43.01 	0.048590 	4363 	0.047651
43.03 	0.049388 	4333 	0.048307
43.05 	0.044393 	4325 	0.043987
43.07 	0.054236 	4296 	0.053418
43.09 	0.048331 	4283 	0.046826
43.11 	0.043008 	4255 	0.042182
43.13 	0.051215 	4237 	0.050801
43.15 	0.053257 	4206 	0.052282
43.17 	0.044987 	4179 	0.044706
43.19 	0.047926 	4194 	0.046948
43.21 	0.050575 	4172 	0.050294
43.23 	0.046461 	4154 	0.045756
43.25 	0.047642 	4135 	0.046934
43.27 	0.045311 	4105 	0.044169
43.29 	0.048780 	4100 	0.048209
43.31 	0.053199 	4079 	0.052050
43.33 	0.046902 	4051 	0.046324
43.35 	0.039683 	4032 	0.039101
43.37 	0.045330 	4015 	0.044892
43.39 	0.049225 	4002 	0.048347
43.41 	0.044310 	3972 	0.043868
43.43 	0.049747 	3960 	0.048663
43.45 	0.046252 	3935 	0.045954
43.47 	0.042591 	3921 	0.041521
43.49 	0.049012 	3897 	0.048110
43.51 	0.049007 	3877 	0.048252
43.53 	0.047114 	3863 	0.046962
43.55 	0.050607 	2964 	0.050410
43.57 	0.045576 	2238 	0.045315
43.59 	0.045246 	1746 	0.044575
43.61 	0.043671 	1351 	0.043238
43.63 	0.037962 	1001 	0.037962
43.65 	0.048035 	687 	0.048035
43.67 	0.045817 	502 	0.044650
43.69 	0.065395 	367 	0.063799
43.71 	0.046025 	239 	0.043574
43.73 	0.050000 	120 	0.050000
43.75 	0.062500 	16 	0.062500