File: Example_Data/25SC_s1_0033.003.dat
#F C:\frames\spec\25SC_s1_0033.003
#C title =s:33 frm:3 25SC_s1
#C wavelength =0.15406

#S 1  fr_average C:\frames\spec\25SC_s1_0033.003 C:\win32app\speccom\mask.axs chi 0 180 0 360 0.02
#C 2 theta =0.000000 to 180 deg
#C   q   =0.000000 to 81.568 nm^-1
#C  chi  =0.000000 to 360 deg
#C collumns:
#C  1 position (2theta or chi in degrees)
#C  2 average intensity (sum of all counts in the region divided with number of pixels)
#C  3 Number of pixels in region)
#C  4 error (sum of sqrt(intensity) for all pixels divided by number)
#N 4
#L TTh  Int  N_pix  Err
32.99 	0.131148 	61 	0.121544
33.01 	0.066438 	873 	0.065096
33.03 	0.066858 	1391 	0.064683
33.05 	0.046670 	1757 	0.046670
33.07 	0.050244 	2050 	0.048815
33.09 	0.066468 	2347 	0.065969
33.11 	0.050019 	2579 	0.049338
33.13 	0.060150 	2793 	0.059311
33.15 	0.068690 	2999 	0.066314
33.17 	0.062480 	3201 	0.061199
33.19 	0.059545 	3342 	0.057968
33.21 	0.057625 	3436 	0.056773
33.23 	0.052228 	3523 	0.051397
33.25 	0.054540 	3612 	0.053081
33.27 	0.056474 	3630 	0.055506
33.29 	0.055099 	3648 	0.054296
33.31 	0.062295 	3660 	0.061015
33.33 	0.059957 	3686 	0.059162
33.35 	0.059015 	3694 	0.058063
33.37 	0.055735 	3714 	0.054946
33.39 	0.056584 	3729 	0.055144
33.41 	0.059893 	3740 	0.059110
33.43 	0.056900 	3761 	0.056121
33.45 	0.059369 	3773 	0.058127
33.47 	0.062928 	3798 	0.061823
33.49 	0.060121 	3809 	0.058711
33.51 	0.058191 	3815 	0.057577
33.53 	0.061442 	3841 	0.060222
33.55 	0.058808 	3843 	0.057869
33.57 	0.055713 	3877 	0.055109
33.59 	0.057732 	3880 	0.056524
33.61 	0.055257 	3909 	0.054508
33.63 	0.063281 	3919 	0.061637
33.65 	0.054693 	3931 	0.054246
33.67 	0.062721 	3954 	0.061388
33.69 	0.060713 	3953 	0.059824
33.71 	0.057107 	3975 	0.056075
33.73 	0.056194 	4004 	0.055462
33.75 	0.064266 	3999 	0.063534
33.77 	0.058385 	4025 	0.057803
33.79 	0.060134 	4041 	0.059119
33.81 	0.054235 	4038 	0.053074
33.83 	0.065926 	4050 	0.064913
33.85 	0.065138 	4099 	0.064566
33.87 	0.059353 	4111 	0.058213
33.89 	0.057753 	4121 	0.056758
33.91 	0.058809 	4149 	0.057821
33.93 	0.054445 	4151 	0.053010
33.95 	0.062425 	4181 	0.061304
33.97 	0.054177 	4190 	0.053198
33.99 	0.054048 	4200 	0.053629
34.01 	0.063613 	4213 	0.062917
34.03 	0.049953 	4244 	0.049539
34.05 	0.059972 	4252 	0.059145
34.07 	0.058575 	4268 	0.057752
34.09 	0.056463 	4286 	0.055370
34.11 	0.058810 	4302 	0.058265
34.13 	0.055478 	4308 	0.054526
34.15 	0.056338 	4331 	0.055121
34.17 	0.054713 	4350 	0.054039
34.19 	0.059835 	4362 	0.058358
34.21 	0.064287 	4371 	0.063081
34.23 	0.057364 	4393 	0.056564
34.25 	0.054042 	4404 	0.053776
34.27 	0.059475 	4422 	0.058681
34.29 	0.054115 	4435 	0.053587
34.31 	0.053611 	4458 	0.052823
34.33 	0.055021 	4471 	0.053973
34.35 	0.058653 	4484 	0.056955
34.37 	0.055890 	4491 	0.054716
34.39 	0.051088 	4502 	0.050178
34.41 	0.054795 	4526 	0.053889
34.43 	0.057281 	4539 	0.055991
34.45 	0.055568 	4535 	0.054255
34.47 	0.053571 	4592 	0.052678
34.49 	0.062650 	4597 	0.060972
34.51 	0.058402 	4606 	0.057130
34.53 	0.054491 	4643 	0.053607
34.55 	0.059229 	4643 	0.057967
34.57 	0.059442 	4660 	0.058436
34.59 	0.062460 	4675 	0.061207
34.61 	0.058548 	4697 	0.057550
34.63 	0.063482 	4710 	0.062363
34.65 	0.060580 	4721 	0.059464
34.67 	0.060536 	4741 	0.059424
34.69 	0.058056 	4754 	0.057687
34.71 	0.060428 	4766 	0.059445
34.73 	0.053478 	4787 	0.052601
34.75 	0.056156 	4808 	0.055547
34.77 	0.053134 	4818 	0.052161
34.79 	0.052032 	4824 	0.050696
34.81 	0.054076 	4845 	0.053472
34.83 	0.055121 	4862 	0.054037
34.85 	0.059355 	4869 	0.057911
34.87 	0.053821 	4868 	0.052497
34.89 	0.055100 	4882 	0.054241
34.91 	0.056534 	4882 	0.055814
34.93 	0.058379 	4899 	0.057781
34.95 	0.049489 	4890 	0.048890
34.97 	0.050184 	4902 	0.049467
34.99 	0.061058 	4897 	0.059622
35.01 	0.058501 	4923 	0.058025
35.03 	0.055432 	4943 	0.054602
35.05 	0.059430 	4947 	0.058601
35.07 	0.058097 	4940 	0.057267
35.09 	0.061983 	4953 	0.061155
35.11 	0.057004 	4947 	0.056175
35.13 	0.057886 	4958 	0.056587
35.15 	0.056715 	4937 	0.055765
35.17 	0.061262 	4946 	0.060196
35.19 	0.060097 	4942 	0.058793
35.21 	0.054196 	4945 	0.053248
35.23 	0.058847 	4945 	0.058255
35.25 	0.054825 	4943 	0.053995
35.27 	0.051738 	4948 	0.050791
35.29 	0.057230 	4945 	0.056282
35.31 	0.053517 	4933 	0.052923
35.33 	0.056039 	4943 	0.055091
35.35 	0.054836 	4942 	0.054362
35.37 	0.063171 	4939 	0.062578
35.39 	0.056016 	4945 	0.055542
35.41 	0.055217 	4926 	0.054742
35.43 	0.056558 	4933 	0.054895
35.45 	0.059550 	4937 	0.058245
35.47 	0.049483 	4931 	0.049126
35.49 	0.062322 	4910 	0.061129
35.51 	0.063743 	4926 	0.062654
35.53 	0.051930 	4949 	0.051082
35.55 	0.053387 	4945 	0.052558
35.57 	0.054328 	4933 	0.053497
35.59 	0.059454 	4945 	0.058388
35.61 	0.052813 	4942 	0.051864
35.63 	0.060287 	4943 	0.058628
35.65 	0.056016 	4945 	0.054832
35.67 	0.055848 	4942 	0.054762
35.69 	0.055600 	4946 	0.055008
35.71 	0.052461 	4937 	0.051749
35.73 	0.055105 	4936 	0.053919
35.75 	0.061854 	4931 	0.060903
35.77 	0.054332 	4951 	0.053504
35.79 	0.053731 	4932 	0.052305
35.81 	0.055139 	4933 	0.054783
35.83 	0.058835 	4946 	0.057750
35.85 	0.058156 	4935 	0.057325
35.87 	0.056470 	4923 	0.055518
35.89 	0.055736 	4934 	0.055142
35.91 	0.057642 	4927 	0.056809
35.93 	0.059671 	4927 	0.059077
35.95 	0.056539 	4917 	0.055585
35.97 	0.058632 	4912 	0.057658
35.99 	0.057097 	4939 	0.056741
36.01 	0.055172 	4930 	0.054816
36.03 	0.057253 	4943 	0.056423
36.05 	0.051163 	4945 	0.050452
36.07 	0.044948 	4939 	0.044474
36.09 	0.054656 	4940 	0.053944
36.11 	0.052952 	4929 	0.052120
36.13 	0.055645 	4942 	0.054934
36.15 	0.053250 	4939 	0.052657
36.17 	0.056650 	4925 	0.056055
36.19 	0.051822 	4940 	0.051110
36.21 	0.057618 	4929 	0.057024
36.23 	0.055927 	4935 	0.055215
36.25 	0.051407 	4941 	0.050577
36.27 	0.053401 	4925 	0.052687
36.29 	0.053944 	4931 	0.053232
36.31 	0.051339 	4928 	0.050864
36.33 	0.053517 	4933 	0.052686
36.35 	0.054575 	4929 	0.053387
36.37 	0.051595 	4923 	0.051357
36.39 	0.052428 	4921 	0.052190
36.41 	0.061479 	4896 	0.060163
36.43 	0.055804 	4928 	0.054971
36.45 	0.053955 	4930 	0.052886
36.47 	0.054092 	4936 	0.053380
36.49 	0.054027 	4942 	0.053197
36.51 	0.056963 	4933 	0.055895
36.53 	0.048554 	4943 	0.047842
36.55 	0.052365 	4927 	0.051532
36.57 	0.052696 	4934 	0.052458
36.59 	0.055274 	4939 	0.054444
36.61 	0.053539 	4931 	0.052807
36.63 	0.051714 	4931 	0.050882
36.65 	0.057786 	4932 	0.056598
36.67 	0.051521 	4930 	0.050571
36.69 	0.054372 	4929 	0.053184
36.71 	0.048161 	4921 	0.047804
36.73 	0.056650 	4925 	0.055460
36.75 	0.054005 	4944 	0.053531
36.77 	0.053466 	4919 	0.052752
36.79 	0.052835 	4921 	0.052002
36.81 	0.054312 	4916 	0.053240
36.83 	0.052899 	4915 	0.051946
36.85 	0.054920 	4898 	0.054083
36.87 	0.054005 	4944 	0.053294
36.89 	0.054719 	4916 	0.053885
36.91 	0.049990 	4941 	0.049516
36.93 	0.049899 	4930 	0.049542
36.95 	0.050476 	4933 	0.050001
36.97 	0.053912 	4934 	0.053437
36.99 	0.054914 	4935 	0.053608
37.01 	0.053314 	4933 	0.051771
37.03 	0.054630 	4924 	0.054036
37.05 	0.051756 	4927 	0.051161
37.07 	0.051064 	4935 	0.049620
37.09 	0.057021 	4928 	0.056189
37.11 	0.050861 	4935 	0.050149
37.13 	0.048944 	4924 	0.048349
37.15 	0.051334 	4909 	0.050141
37.17 	0.047223 	4934 	0.046986
37.19 	0.054619 	4925 	0.053549
37.21 	0.046573 	4917 	0.046097
37.23 	0.053477 	4918 	0.052643
37.25 	0.046426 	4911 	0.045949
37.27 	0.052922 	4894 	0.051945
37.29 	0.050507 	4930 	0.049913
37.31 	0.053698 	4935 	0.052511
37.33 	0.051756 	4927 	0.050923
37.35 	0.048805 	4938 	0.047856
37.37 	0.052770 	4927 	0.052057
37.39 	0.047049 	4931 	0.046218
37.41 	0.046035 	4931 	0.045679
37.43 	0.048256 	4932 	0.047544
37.45 	0.044476 	4924 	0.044000
37.47 	0.051532 	4929 	0.051056
37.49 	0.047532 	4923 	0.047175
37.51 	0.049666 	4933 	0.049428
37.53 	0.056312 	4919 	0.055697
37.55 	0.053550 	4930 	0.052599
37.57 	0.050355 	4925 	0.048809
37.59 	0.047609 	4915 	0.047133
37.61 	0.047542 	4922 	0.046947
37.63 	0.053263 	4919 	0.052667
37.65 	0.051037 	4918 	0.050322
37.67 	0.057708 	4904 	0.057230
37.69 	0.052470 	4898 	0.051633
37.71 	0.054169 	4929 	0.053337
37.73 	0.046865 	4929 	0.046152
37.75 	0.045547 	4940 	0.044954
37.77 	0.047967 	4920 	0.046876
37.79 	0.050304 	4930 	0.049948
37.81 	0.047638 	4933 	0.046807
37.83 	0.050407 	4920 	0.049673
37.85 	0.049370 	4922 	0.048656
37.87 	0.051427 	4939 	0.050597
37.89 	0.054416 	4925 	0.053940
37.91 	0.048884 	4930 	0.048053
37.93 	0.054076 	4919 	0.053362
37.95 	0.050803 	4921 	0.049612
37.97 	0.049300 	4929 	0.048825
37.99 	0.047028 	4912 	0.045954
38.01 	0.052963 	4928 	0.051893
38.03 	0.049297 	4909 	0.048820
38.05 	0.049949 	4925 	0.049473
38.07 	0.056834 	4909 	0.055880
38.09 	0.055146 	4878 	0.054185
38.11 	0.052482 	4935 	0.051632
38.13 	0.053676 	4937 	0.053439
38.15 	0.051850 	4918 	0.051493
38.17 	0.051521 	4930 	0.050432
38.19 	0.054361 	4930 	0.054005
38.21 	0.052813 	4923 	0.051861
38.23 	0.054881 	4938 	0.054050
38.25 	0.055318 	4917 	0.054127
38.27 	0.050913 	4930 	0.049725
38.29 	0.054021 	4924 	0.052950
38.31 	0.059874 	4927 	0.059161
38.33 	0.058489 	4924 	0.057161
38.35 	0.058442 	4928 	0.057253
38.37 	0.057880 	4924 	0.057523
38.39 	0.065594 	4909 	0.064043
38.41 	0.060329 	4923 	0.059258
38.43 	0.058584 	4916 	0.057869
38.45 	0.063847 	4918 	0.062894
38.47 	0.051355 	4907 	0.050639
38.49 	0.055772 	4877 	0.055171
38.51 	0.056367 	4932 	0.055654
38.53 	0.061879 	4929 	0.060809
38.55 	0.058752 	4936 	0.058040
38.57 	0.048954 	4923 	0.048716
38.59 	0.052803 	4924 	0.052565
38.61 	0.051864 	4936 	0.051033
38.63 	0.054630 	4924 	0.053679
38.65 	0.052054 	4918 	0.051220
38.67 	0.053474 	4937 	0.052881
38.69 	0.049573 	4922 	0.049454
38.71 	0.050569 	4924 	0.049974
38.73 	0.053477 	4918 	0.052762
38.75 	0.047290 	4927 	0.046696
38.77 	0.049157 	4923 	0.048086
38.79 	0.049453 	4934 	0.048978
38.81 	0.053135 	4912 	0.052062
38.83 	0.053466 	4919 	0.052613
38.85 	0.044992 	4912 	0.044753
38.87 	0.053553 	4911 	0.052341
38.89 	0.048805 	4897 	0.048327
38.91 	0.055884 	4903 	0.054809
38.93 	0.046983 	4938 	0.046152
38.95 	0.048394 	4918 	0.047441
38.97 	0.044616 	4931 	0.043765
38.99 	0.048613 	4937 	0.048138
39.01 	0.050630 	4918 	0.049916
39.03 	0.050263 	4934 	0.049888
39.05 	0.048528 	4925 	0.048052
39.07 	0.053615 	4924 	0.053377
39.09 	0.051188 	4923 	0.050474
39.11 	0.043196 	4931 	0.042721
39.13 	0.045298 	4923 	0.044465
39.15 	0.050458 	4915 	0.050100
39.17 	0.051043 	4937 	0.050331
39.19 	0.042302 	4917 	0.041826
39.21 	0.043788 	4910 	0.043311
39.23 	0.047107 	4925 	0.046750
39.25 	0.049980 	4922 	0.048790
39.27 	0.047251 	4910 	0.046057
39.29 	0.045093 	4901 	0.044137
39.31 	0.052826 	4884 	0.052586
39.33 	0.052322 	4931 	0.051372
39.35 	0.043161 	4935 	0.042449
39.37 	0.050112 	4929 	0.049517
39.39 	0.045242 	4929 	0.044411
39.41 	0.043196 	4931 	0.042840
39.43 	0.045408 	4933 	0.044577
39.45 	0.046497 	4925 	0.046022
39.47 	0.048548 	4923 	0.048310
39.49 	0.048247 	4933 	0.047415
39.51 	0.046304 	4924 	0.045828
39.53 	0.040626 	4923 	0.040388
39.55 	0.051027 	4919 	0.050788
39.57 	0.051085 	4933 	0.050372
39.59 	0.047638 	4912 	0.046684
39.61 	0.042454 	4923 	0.041958
39.63 	0.048761 	4922 	0.048285
39.65 	0.044661 	4926 	0.043947
39.67 	0.045186 	4913 	0.044948
39.69 	0.047803 	4916 	0.047207
39.71 	0.044535 	4895 	0.044176
39.73 	0.052771 	4908 	0.051816
39.75 	0.050731 	4928 	0.050612
39.77 	0.053293 	4935 	0.052462
39.79 	0.049939 	4926 	0.048631
39.81 	0.051959 	4927 	0.051483
39.83 	0.048642 	4934 	0.048286
39.85 	0.052770 	4927 	0.051919
39.87 	0.038985 	4925 	0.038628
39.89 	0.043373 	4934 	0.042898
39.91 	0.046932 	4922 	0.046456
39.93 	0.048815 	4937 	0.048340
39.95 	0.050661 	4915 	0.049211
39.97 	0.048498 	4928 	0.048261
39.99 	0.049676 	4932 	0.048963
40.01 	0.046564 	4918 	0.046068
40.03 	0.047078 	4928 	0.046365
40.05 	0.044539 	4917 	0.044301
40.07 	0.044891 	4923 	0.044653
40.09 	0.051668 	4916 	0.051072
40.11 	0.047396 	4916 	0.046800
40.13 	0.047794 	4896 	0.047316
40.15 	0.046407 	4913 	0.045334
40.17 	0.043222 	4928 	0.042628
40.19 	0.044634 	4929 	0.043545
40.21 	0.044377 	4935 	0.044258
40.23 	0.045823 	4932 	0.045229
40.25 	0.040650 	4920 	0.040055
40.27 	0.044967 	4937 	0.044492
40.29 	0.043434 	4927 	0.043077
40.31 	0.042114 	4939 	0.041758
40.33 	0.045823 	4932 	0.045467
40.35 	0.040455 	4919 	0.040098
40.37 	0.045445 	4929 	0.044970
40.39 	0.050294 	4931 	0.049700
40.41 	0.047310 	4925 	0.046358
40.43 	0.047948 	4922 	0.047591
40.45 	0.048652 	4933 	0.047702
40.47 	0.044937 	4918 	0.043865
40.49 	0.039586 	4926 	0.039467
40.51 	0.049777 	4922 	0.048824
40.53 	0.048820 	4916 	0.048224
40.55 	0.038305 	4908 	0.037947
40.57 	0.040900 	4890 	0.040181
40.59 	0.041523 	4937 	0.041049
40.61 	0.044580 	4935 	0.044105
40.63 	0.045842 	4930 	0.045485
40.65 	0.043346 	4937 	0.042872
40.67 	0.050487 	4932 	0.049497
40.69 	0.047600 	4937 	0.047362
40.71 	0.041363 	4932 	0.040769
40.73 	0.049330 	4926 	0.048478
40.75 	0.042385 	4931 	0.042266
40.77 	0.044948 	4939 	0.044118
40.79 	0.042648 	4924 	0.042529
40.81 	0.043311 	4941 	0.042837
40.83 	0.045049 	4928 	0.044335
40.85 	0.042851 	4924 	0.042257
40.87 	0.044643 	4928 	0.044286
40.89 	0.037315 	4931 	0.037315
40.91 	0.043876 	4923 	0.043519
40.93 	0.041346 	4934 	0.041227
40.95 	0.046204 	4913 	0.045489
40.97 	0.044273 	4924 	0.043678
40.99 	0.042445 	4924 	0.041969
41.01 	0.042752 	4912 	0.042275
41.03 	0.043221 	4905 	0.042624
41.05 	0.048015 	4936 	0.047065
41.07 	0.045436 	4930 	0.044723
41.09 	0.043734 	4939 	0.043141
41.11 	0.041743 	4935 	0.041505
41.13 	0.037075 	4936 	0.036600
41.15 	0.044930 	4941 	0.044100
41.17 	0.044791 	4934 	0.044059
41.19 	0.042596 	4930 	0.042240
41.21 	0.039093 	4937 	0.038855
41.23 	0.042114 	4939 	0.041639
41.25 	0.043787 	4933 	0.043430
41.27 	0.047455 	4931 	0.047217
41.29 	0.045860 	4928 	0.045504
41.31 	0.041354 	4933 	0.040879
41.33 	0.043144 	4937 	0.042550
41.35 	0.036249 	4938 	0.035775
41.37 	0.039399 	4924 	0.039280
41.39 	0.041557 	4933 	0.041319
41.41 	0.043646 	4926 	0.042932
41.43 	0.038953 	4929 	0.038121
41.45 	0.037241 	4914 	0.036883
41.47 	0.039789 	4926 	0.039194
41.49 	0.040270 	4892 	0.039551
41.51 	0.043320 	4940 	0.042846
41.53 	0.044701 	4944 	0.044464
41.55 	0.040527 	4935 	0.039320
41.57 	0.044525 	4941 	0.044051
41.59 	0.040543 	4933 	0.039950
41.61 	0.044216 	4953 	0.043388
41.63 	0.044350 	4938 	0.043757
41.65 	0.036721 	4929 	0.036603
41.67 	0.042713 	4940 	0.042120
41.69 	0.039418 	4947 	0.038707
41.71 	0.038306 	4934 	0.037831
41.73 	0.041532 	4936 	0.040938
41.75 	0.043619 	4929 	0.042649
41.77 	0.040882 	4941 	0.040527
41.79 	0.038835 	4944 	0.038243
41.81 	0.041734 	4936 	0.041378
41.83 	0.040179 	4928 	0.039703
41.85 	0.041506 	4939 	0.041151
41.87 	0.043161 	4935 	0.042686
41.89 	0.047638 	4933 	0.047401
41.91 	0.043760 	4936 	0.043285
41.93 	0.043187 	4932 	0.042336
41.95 	0.040763 	4931 	0.040287
41.97 	0.044974 	4914 	0.044258
41.99 	0.040163 	4905 	0.039327
42.01 	0.045730 	4942 	0.044664
42.03 	0.041101 	4939 	0.040390
42.05 	0.041599 	4952 	0.041481
42.07 	0.040308 	4937 	0.040071
42.09 	0.036176 	4948 	0.035821
42.11 	0.041254 	4945 	0.040543
42.13 	0.041860 	4945 	0.041268
42.15 	0.044350 	4938 	0.043875
42.17 	0.038227 	4918 	0.037989
42.19 	0.040139 	4908 	0.039303
42.21 	0.044073 	4901 	0.043575
42.23 	0.038021 	4892 	0.037423
42.25 	0.038249 	4889 	0.037530
42.27 	0.039598 	4874 	0.038877
42.29 	0.039276 	4863 	0.038915
42.31 	0.040165 	4855 	0.039561
42.33 	0.043235 	4834 	0.042872
42.35 	0.042786 	4838 	0.042181
42.37 	0.039752 	4830 	0.039266
42.39 	0.038718 	4804 	0.037986
42.41 	0.039550 	4804 	0.038941
42.43 	0.037145 	4792 	0.036636
42.45 	0.038735 	4776 	0.038613
42.47 	0.039035 	4765 	0.038420
42.49 	0.036097 	4765 	0.036097
42.51 	0.044276 	4743 	0.043535
42.53 	0.040609 	4728 	0.040217
42.55 	0.044605 	4708 	0.043610
42.57 	0.038478 	4730 	0.038106
42.59 	0.041658 	4729 	0.041410
42.61 	0.041631 	4708 	0.041238
42.63 	0.040773 	4709 	0.040649
42.65 	0.041836 	4685 	0.041065
42.67 	0.039496 	4684 	0.038850
42.69 	0.039795 	4674 	0.039419
42.71 	0.036457 	4663 	0.036332
42.73 	0.037069 	4640 	0.036690
42.75 	0.041802 	4617 	0.041421
42.77 	0.043261 	4600 	0.042751
42.79 	0.037756 	4582 	0.037373
42.81 	0.041648 	4562 	0.041114
42.83 	0.040564 	4536 	0.039919
42.85 	0.041078 	4528 	0.040172
42.87 	0.038675 	4499 	0.038154
42.89 	0.037946 	4480 	0.037554
42.91 	0.042415 	4456 	0.041889
42.93 	0.042285 	4446 	0.041363
42.95 	0.040308 	4416 	0.040175
42.97 	0.041581 	4401 	0.040783
42.99 	0.042645 	4385 	0.042245
43.01 	0.041485 	4363 	0.041351
43.03 	0.039695 	4333 	0.039019
43.05 	0.037225 	4325 	0.036819
43.07 	0.042598 	4296 	0.041780
43.09 	0.042494 	4283 	0.041787
43.11 	0.040658 	4255 	0.039832
43.13 	0.039179 	4237 	0.038626
43.15 	0.038754 	4206 	0.038754
43.17 	0.040201 	4179 	0.039921
43.19 	0.045780 	4194 	0.044802
43.21 	0.037152 	4172 	0.036450
43.23 	0.041647 	4154 	0.041083
43.25 	0.042563 	4135 	0.042280
43.27 	0.038246 	4105 	0.038103
43.29 	0.041951 	4100 	0.041665
43.31 	0.036283 	4079 	0.035996
43.33 	0.040484 	4051 	0.040339
43.35 	0.035714 	4032 	0.034843
43.37 	0.039601 	4015 	0.039456
43.39 	0.042979 	4002 	0.042832
43.41 	0.038268 	3972 	0.037973
43.43 	0.043182 	3960 	0.041850
43.45 	0.037865 	3935 	0.037245
43.47 	0.036980 	3921 	0.036682
43.49 	0.039261 	3897 	0.038810
43.51 	0.038174 	3877 	0.037721
43.53 	0.043231 	3863 	0.042321
43.55 	0.041835 	2964 	0.041440
43.57 	0.041108 	2238 	0.041108
43.59 	0.042955 	1746 	0.042284
43.61 	0.039230 	1351 	0.039230
43.63 	0.038961 	1001 	0.038961
43.65 	0.034934 	687 	0.034082
43.67 	0.057769 	502 	0.056602
43.69 	0.038147 	367 	0.036551
43.71 	0.029289 	239 	0.029289
43.73 	0.033333 	120 	0.033333
43.75 	0.000000 	16 	0.000000