File: Example_Data/25SC_s1_0006.000.dat
#F C:\frames\spec\25SC_s1_0006.000
#C title =s:6 frm:0 25SC_s1
#C wavelength =0.15406

#S 1  fr_average C:\frames\spec\25SC_s1_0006.000 C:\win32app\speccom\mask.axs chi 0 180 0 360 0.02
#C 2 theta =0.000000 to 180 deg
#C   q   =0.000000 to 81.568 nm^-1
#C  chi  =0.000000 to 360 deg
#C collumns:
#C  1 position (2theta or chi in degrees)
#C  2 average intensity (sum of all counts in the region divided with number of pixels)
#C  3 Number of pixels in region)
#C  4 error (sum of sqrt(intensity) for all pixels divided by number)
#N 4
#L TTh  Int  N_pix  Err
32.99 	0.098361 	61 	0.088758
33.01 	0.075601 	873 	0.074259
33.03 	0.069015 	1391 	0.065646
33.05 	0.065452 	1757 	0.062785
33.07 	0.058049 	2050 	0.057477
33.09 	0.058372 	2347 	0.056875
33.11 	0.049632 	2579 	0.048723
33.13 	0.063015 	2793 	0.061547
33.15 	0.061354 	2999 	0.059986
33.17 	0.062168 	3201 	0.061802
33.19 	0.056852 	3342 	0.056326
33.21 	0.067520 	3436 	0.066327
33.23 	0.055351 	3523 	0.054353
33.25 	0.059801 	3612 	0.059152
33.27 	0.057851 	3630 	0.057206
33.29 	0.067160 	3648 	0.066197
33.31 	0.064754 	3660 	0.063474
33.33 	0.059957 	3686 	0.058685
33.35 	0.065512 	3694 	0.064243
33.37 	0.057351 	3714 	0.055931
33.39 	0.062751 	3729 	0.061495
33.41 	0.070321 	3740 	0.069068
33.43 	0.056102 	3761 	0.055168
33.45 	0.059369 	3773 	0.058127
33.47 	0.062665 	3798 	0.061585
33.49 	0.056708 	3809 	0.056400
33.51 	0.065531 	3815 	0.064124
33.53 	0.056756 	3841 	0.055358
33.55 	0.067655 	3843 	0.065826
33.57 	0.060872 	3877 	0.059135
33.59 	0.060052 	3880 	0.058995
33.61 	0.065234 	3909 	0.064035
33.63 	0.065578 	3919 	0.064681
33.65 	0.057237 	3931 	0.056045
33.67 	0.073849 	3954 	0.073257
33.69 	0.055148 	3953 	0.054407
33.71 	0.055849 	3975 	0.055112
33.73 	0.059441 	4004 	0.058124
33.75 	0.055764 	3999 	0.054739
33.77 	0.062360 	4025 	0.061196
33.79 	0.058154 	4041 	0.057429
33.81 	0.059683 	4038 	0.058232
33.83 	0.067654 	4050 	0.066642
33.85 	0.056599 	4099 	0.055742
33.87 	0.067380 	4111 	0.066525
33.89 	0.063819 	4121 	0.062256
33.91 	0.055435 	4149 	0.054729
33.93 	0.060226 	4151 	0.058956
33.95 	0.052619 	4181 	0.051778
33.97 	0.059666 	4190 	0.059246
33.99 	0.062619 	4200 	0.062201
34.01 	0.065274 	4213 	0.064000
34.03 	0.059378 	4244 	0.057664
34.05 	0.054563 	4252 	0.053598
34.07 	0.061387 	4268 	0.060266
34.09 	0.057396 	4286 	0.056166
34.11 	0.059275 	4302 	0.058185
34.13 	0.064299 	4308 	0.062803
34.15 	0.059340 	4331 	0.058663
34.17 	0.059310 	4350 	0.059176
34.19 	0.058230 	4362 	0.057693
34.21 	0.054907 	4371 	0.054237
34.23 	0.048714 	4393 	0.047647
34.25 	0.062443 	4404 	0.062044
34.27 	0.063094 	4422 	0.062564
34.29 	0.056144 	4435 	0.055484
34.31 	0.056752 	4458 	0.056095
34.33 	0.064639 	4471 	0.063722
34.35 	0.055085 	4484 	0.053909
34.37 	0.055222 	4491 	0.054439
34.39 	0.060640 	4502 	0.059208
34.41 	0.064074 	4526 	0.062909
34.43 	0.062789 	4539 	0.061757
34.45 	0.059316 	4535 	0.058283
34.47 	0.055531 	4592 	0.053873
34.49 	0.060257 	4597 	0.059365
34.51 	0.061224 	4606 	0.059677
34.53 	0.059229 	4643 	0.058220
34.55 	0.057506 	4643 	0.056244
34.57 	0.053648 	4660 	0.053145
34.59 	0.060749 	4675 	0.059621
34.61 	0.055354 	4697 	0.053733
34.63 	0.052229 	4710 	0.051359
34.65 	0.061004 	4721 	0.060135
34.67 	0.058426 	4741 	0.057809
34.69 	0.058056 	4754 	0.057050
34.71 	0.054343 	4766 	0.053606
34.73 	0.056612 	4787 	0.055877
34.75 	0.055324 	4808 	0.053964
34.77 	0.057285 	4818 	0.055583
34.79 	0.064677 	4824 	0.063948
34.81 	0.056553 	4845 	0.055324
34.83 	0.054504 	4862 	0.053661
34.85 	0.058944 	4869 	0.058463
34.87 	0.056697 	4868 	0.055474
34.89 	0.059812 	4882 	0.058612
34.91 	0.060631 	4882 	0.059191
34.93 	0.060420 	4899 	0.059823
34.95 	0.061350 	4890 	0.060132
34.97 	0.065687 	4902 	0.064373
34.99 	0.051868 	4897 	0.051151
35.01 	0.067235 	4923 	0.066383
35.03 	0.061703 	4943 	0.060992
35.05 	0.057004 	4947 	0.056175
35.07 	0.054453 	4940 	0.053861
35.09 	0.055724 	4953 	0.054778
35.11 	0.059228 	4947 	0.058024
35.13 	0.057886 	4958 	0.056941
35.15 	0.057322 	4937 	0.056610
35.17 	0.057420 	4946 	0.056828
35.19 	0.060704 	4942 	0.059400
35.21 	0.057230 	4945 	0.056519
35.23 	0.057836 	4945 	0.057481
35.25 	0.066559 	4943 	0.065137
35.27 	0.062449 	4948 	0.061384
35.29 	0.056016 	4945 	0.054664
35.31 	0.053923 	4933 	0.053091
35.33 	0.057860 	4943 	0.056517
35.35 	0.057264 	4942 	0.056079
35.37 	0.060539 	4939 	0.059590
35.39 	0.062285 	4945 	0.061673
35.41 	0.054405 	4926 	0.053434
35.43 	0.065072 	4933 	0.063528
35.45 	0.055904 	4937 	0.055192
35.47 	0.057798 	4931 	0.056946
35.49 	0.059267 	4910 	0.057954
35.51 	0.055826 	4926 	0.054875
35.53 	0.056981 	4949 	0.056034
35.55 	0.057836 	4945 	0.056632
35.57 	0.064869 	4933 	0.062950
35.59 	0.063903 	4945 	0.062244
35.61 	0.066370 	4942 	0.065303
35.63 	0.057050 	4943 	0.055984
35.65 	0.062083 	4945 	0.060287
35.67 	0.056455 	4942 	0.055270
35.69 	0.062879 	4946 	0.062168
35.71 	0.059955 	4937 	0.059481
35.73 	0.063209 	4936 	0.062497
35.75 	0.062259 	4931 	0.061071
35.77 	0.065037 	4951 	0.063736
35.79 	0.056975 	4932 	0.055906
35.81 	0.060207 	4933 	0.059613
35.83 	0.063688 	4946 	0.062740
35.85 	0.054509 	4935 	0.053678
35.87 	0.054032 	4923 	0.053080
35.89 	0.059384 	4934 	0.058790
35.91 	0.061092 	4927 	0.060497
35.93 	0.058250 	4927 	0.057180
35.95 	0.057352 	4917 	0.056280
35.97 	0.061075 	4912 	0.060002
35.99 	0.062968 	4939 	0.061545
36.01 	0.060243 	4930 	0.059055
36.03 	0.059883 	4943 	0.059172
36.05 	0.057836 	4945 	0.056514
36.07 	0.058109 	4939 	0.057378
36.09 	0.061336 	4940 	0.060743
36.11 	0.060256 	4929 	0.059067
36.13 	0.062930 	4942 	0.062081
36.15 	0.056692 	4939 	0.055506
36.17 	0.062132 	4925 	0.061180
36.19 	0.067814 	4940 	0.066628
36.21 	0.057415 	4929 	0.056583
36.23 	0.048835 	4935 	0.047767
36.25 	0.056264 	4941 	0.055197
36.27 	0.064162 	4925 	0.062735
36.29 	0.057798 	4931 	0.056610
36.31 	0.054586 	4928 	0.054111
36.33 	0.058788 	4933 	0.058313
36.35 	0.063907 	4929 	0.062600
36.37 	0.062767 	4923 	0.061577
36.39 	0.055070 	4921 	0.054594
36.41 	0.060049 	4896 	0.058733
36.43 	0.061080 	4928 	0.059653
36.45 	0.062677 	4930 	0.061608
36.47 	0.058955 	4936 	0.057768
36.49 	0.067584 	4942 	0.065786
36.51 	0.061423 	4933 	0.060097
36.53 	0.061501 	4943 	0.060672
36.55 	0.060483 	4927 	0.059770
36.57 	0.058776 	4934 	0.057826
36.59 	0.069245 	4939 	0.068415
36.61 	0.071385 	4931 	0.069841
36.63 	0.060028 	4931 	0.059434
36.65 	0.059002 	4932 	0.057320
36.67 	0.056187 	4930 	0.055355
36.69 	0.060864 	4929 	0.059914
36.71 	0.062386 	4921 	0.061076
36.73 	0.057868 	4925 	0.056916
36.75 	0.064523 	4944 	0.063456
36.77 	0.061191 	4919 	0.060120
36.79 	0.060150 	4921 	0.059079
36.81 	0.070179 	4916 	0.068987
36.83 	0.062665 	4915 	0.061096
36.85 	0.061249 	4898 	0.060153
36.87 	0.060477 	4944 	0.059411
36.89 	0.067738 	4916 	0.066904
36.91 	0.056466 	4941 	0.055399
36.93 	0.056998 	4930 	0.055929
36.95 	0.059801 	4933 	0.058970
36.97 	0.056749 	4934 	0.056393
36.99 	0.063627 	4935 	0.062559
37.01 	0.063856 	4933 	0.062193
37.03 	0.065394 	4924 	0.064085
37.05 	0.067181 	4927 	0.065735
37.07 	0.062209 	4935 	0.060784
37.09 	0.060674 	4928 	0.059010
37.11 	0.060790 	4935 	0.059841
37.13 	0.056661 	4924 	0.055828
37.15 	0.061316 	4909 	0.060361
37.17 	0.058776 	4934 	0.057945
37.19 	0.060711 	4925 	0.059640
37.21 	0.061826 	4917 	0.060873
37.23 	0.055510 	4918 	0.054915
37.25 	0.058237 	4911 	0.057163
37.27 	0.058848 	4894 	0.058010
37.29 	0.058012 	4930 	0.057418
37.31 	0.065248 	4935 	0.064299
37.33 	0.055815 	4927 	0.054626
37.35 	0.062778 	4938 	0.061098
37.37 	0.055409 	4927 	0.054220
37.39 	0.055770 	4931 	0.054819
37.41 	0.062462 	4931 	0.061868
37.43 	0.063463 	4932 	0.063107
37.45 	0.058286 	4924 	0.056977
37.47 	0.065531 	4929 	0.064104
37.49 	0.061954 	4923 	0.061359
37.51 	0.062031 	4933 	0.061319
37.53 	0.062614 	4919 	0.061543
37.55 	0.055781 	4930 	0.054474
37.57 	0.064162 	4925 	0.062953
37.59 	0.058800 	4915 	0.057965
37.61 	0.060544 	4922 	0.059354
37.63 	0.059362 	4919 	0.058171
37.65 	0.053884 	4918 	0.052405
37.67 	0.057912 	4904 	0.056001
37.69 	0.057575 	4898 	0.056259
37.71 	0.055995 	4929 	0.055520
37.73 	0.055589 	4929 	0.054619
37.75 	0.052632 	4940 	0.052039
37.77 	0.056301 	4920 	0.055825
37.79 	0.064300 	4930 	0.063330
37.81 	0.059599 	4933 	0.058767
37.83 	0.054268 	4920 	0.053554
37.85 	0.055262 	4922 	0.054905
37.87 	0.056489 	4939 	0.055659
37.89 	0.051980 	4925 	0.051028
37.91 	0.052941 	4930 	0.052228
37.93 	0.056719 	4919 	0.055747
37.95 	0.057509 	4921 	0.056418
37.97 	0.057010 	4929 	0.056178
37.99 	0.057614 	4912 	0.056898
38.01 	0.063312 	4928 	0.061866
38.03 	0.054594 	4909 	0.053878
38.05 	0.053604 	4925 	0.052534
38.07 	0.051538 	4909 	0.050345
38.09 	0.056991 	4878 	0.056010
38.11 	0.061601 	4935 	0.060295
38.13 	0.052056 	4937 	0.051463
38.15 	0.056120 	4918 	0.055763
38.17 	0.056998 	4930 	0.056047
38.19 	0.056187 	4930 	0.055236
38.21 	0.059923 	4923 	0.059209
38.23 	0.060956 	4938 	0.059414
38.25 	0.052471 	4917 	0.051756
38.27 	0.055172 	4930 	0.054103
38.29 	0.062348 	4924 	0.061634
38.31 	0.060686 	4927 	0.059616
38.33 	0.059708 	4924 	0.058637
38.35 	0.065341 	4928 	0.063914
38.37 	0.071690 	4924 	0.069667
38.39 	0.069057 	4909 	0.067386
38.41 	0.072923 	4923 	0.071614
38.43 	0.070179 	4916 	0.068710
38.45 	0.080724 	4918 	0.078441
38.47 	0.075402 	4907 	0.073234
38.49 	0.075046 	4877 	0.072604
38.51 	0.084955 	4932 	0.082699
38.53 	0.083181 	4929 	0.082230
38.55 	0.085900 	4936 	0.083506
38.57 	0.082064 	4923 	0.080021
38.59 	0.082453 	4924 	0.081145
38.61 	0.082455 	4936 	0.080774
38.63 	0.082047 	4924 	0.079787
38.65 	0.087231 	4918 	0.086020
38.67 	0.082641 	4937 	0.079893
38.69 	0.080455 	4922 	0.079027
38.71 	0.075548 	4924 	0.073407
38.73 	0.072794 	4918 	0.071603
38.75 	0.068805 	4927 	0.067735
38.77 	0.078001 	4923 	0.076335
38.79 	0.069923 	4934 	0.068142
38.81 	0.062704 	4912 	0.061273
38.83 	0.057329 	4919 	0.056019
38.85 	0.058632 	4912 	0.058393
38.87 	0.058847 	4911 	0.058251
38.89 	0.061466 	4897 	0.059911
38.91 	0.055068 	4903 	0.054571
38.93 	0.052045 	4938 	0.051195
38.95 	0.054494 	4918 	0.053422
38.97 	0.054350 	4931 	0.053994
38.99 	0.052258 	4937 	0.051072
39.01 	0.053274 	4918 	0.052678
39.03 	0.052088 	4934 	0.051138
39.05 	0.053604 	4925 	0.052296
39.07 	0.057474 	4924 	0.056641
39.09 	0.047329 	4923 	0.046734
39.11 	0.047658 	4931 	0.046826
39.13 	0.048954 	4923 	0.048478
39.15 	0.050458 	4915 	0.049504
39.17 	0.050030 	4937 	0.048844
39.19 	0.053488 	4917 	0.052892
39.21 	0.045418 	4910 	0.044940
39.23 	0.046904 	4925 	0.046190
39.25 	0.052621 	4922 	0.051431
39.27 	0.043177 	4910 	0.042819
39.29 	0.053458 	4901 	0.052363
39.31 	0.044021 	4884 	0.043422
39.33 	0.044413 	4931 	0.044057
39.35 	0.046809 	4935 	0.046571
39.37 	0.049909 	4929 	0.049077
39.39 	0.045040 	4929 	0.044802
39.41 	0.044413 	4931 	0.043819
39.43 	0.042976 	4933 	0.042263
39.45 	0.050152 	4925 	0.049558
39.47 	0.049157 	4923 	0.048324
39.49 	0.041354 	4933 	0.040404
39.51 	0.047116 	4924 	0.046164
39.53 	0.047532 	4923 	0.047056
39.55 	0.051433 	4919 	0.051195
39.57 	0.045611 	4933 	0.045136
39.59 	0.047435 	4912 	0.046958
39.61 	0.045094 	4923 	0.044737
39.63 	0.045307 	4922 	0.043998
39.65 	0.044255 	4926 	0.043898
39.67 	0.046204 	4913 	0.045369
39.69 	0.044548 	4916 	0.044191
39.71 	0.046374 	4895 	0.045656
39.73 	0.044621 	4908 	0.043666
39.75 	0.047078 	4928 	0.046721
39.77 	0.043769 	4935 	0.043057
39.79 	0.044458 	4926 	0.043863
39.81 	0.042419 	4927 	0.042063
39.83 	0.041954 	4934 	0.041241
39.85 	0.043028 	4927 	0.042672
39.87 	0.046497 	4925 	0.046260
39.89 	0.043373 	4934 	0.043135
39.91 	0.045510 	4922 	0.045034
39.93 	0.051853 	4937 	0.051497
39.95 	0.047609 	4915 	0.046537
39.97 	0.045860 	4928 	0.045623
39.99 	0.041971 	4932 	0.041377
40.01 	0.049004 	4918 	0.048646
40.03 	0.050122 	4928 	0.048914
40.05 	0.051047 	4917 	0.050452
40.07 	0.046516 	4923 	0.045683
40.09 	0.044752 	4916 	0.044037
40.11 	0.046379 	4916 	0.045783
40.13 	0.043505 	4896 	0.043146
40.15 	0.042337 	4913 	0.041979
40.17 	0.047078 	4928 	0.046484
40.19 	0.046257 	4929 	0.045663
40.21 	0.041135 	4935 	0.040897
40.23 	0.045012 	4932 	0.044181
40.25 	0.042073 	4920 	0.041597
40.27 	0.041928 	4937 	0.041454
40.29 	0.044246 	4927 	0.043414
40.31 	0.046973 	4939 	0.046380
40.33 	0.046229 	4932 	0.045516
40.35 	0.045944 	4919 	0.045349
40.37 	0.047474 	4929 	0.046642
40.39 	0.044210 	4931 	0.043616
40.41 	0.044873 	4925 	0.043922
40.43 	0.046729 	4922 	0.046015
40.45 	0.049666 	4933 	0.049072
40.47 	0.044327 	4918 	0.043255
40.49 	0.047909 	4926 	0.046839
40.51 	0.042462 	4922 	0.042224
40.53 	0.041090 	4916 	0.040495
40.55 	0.042380 	4908 	0.041425
40.57 	0.044990 	4890 	0.044511
40.59 	0.044359 	4937 	0.043647
40.61 	0.042351 	4935 	0.041994
40.63 	0.046045 	4930 	0.045094
40.65 	0.048815 	4937 	0.048578
40.67 	0.043796 	4932 	0.043439
40.69 	0.047397 	4937 	0.046804
40.71 	0.050081 	4932 	0.049606
40.73 	0.043849 	4926 	0.043492
40.75 	0.042993 	4931 	0.042399
40.77 	0.041506 	4939 	0.040913
40.79 	0.044882 	4924 	0.044525
40.81 	0.046347 	4941 	0.045398
40.83 	0.040787 	4928 	0.040431
40.85 	0.040414 	4924 	0.040057
40.87 	0.047078 	4928 	0.046840
40.89 	0.039749 	4931 	0.039511
40.91 	0.042657 	4923 	0.042181
40.93 	0.040332 	4934 	0.039719
40.95 	0.047222 	4913 	0.046625
40.97 	0.041633 	4924 	0.040919
40.99 	0.044882 	4924 	0.044287
41.01 	0.042956 	4912 	0.042598
41.03 	0.047503 	4905 	0.046905
41.05 	0.043760 	4936 	0.043523
41.07 	0.041988 	4930 	0.041394
41.09 	0.044341 	4939 	0.043629
41.11 	0.042351 	4935 	0.041757
41.13 	0.044773 	4936 	0.043942
41.15 	0.043918 	4941 	0.043325
41.17 	0.041548 	4934 	0.041192
41.19 	0.042596 	4930 	0.042359
41.21 	0.044359 	4937 	0.043766
41.23 	0.047783 	4939 	0.046834
41.25 	0.046422 	4933 	0.046066
41.27 	0.043602 	4931 	0.042533
41.29 	0.038555 	4928 	0.037723
41.31 	0.041354 	4933 	0.041117
41.33 	0.041321 	4937 	0.040846
41.35 	0.045160 	4938 	0.044567
41.37 	0.041227 	4924 	0.040989
41.39 	0.043584 	4933 	0.043109
41.41 	0.044052 	4926 	0.043576
41.43 	0.041793 	4929 	0.041437
41.45 	0.041718 	4914 	0.041598
41.47 	0.049939 	4926 	0.048631
41.49 	0.041087 	4892 	0.040609
41.51 	0.045142 	4940 	0.044292
41.53 	0.041869 	4944 	0.041632
41.55 	0.042351 	4935 	0.041757
41.57 	0.043716 	4941 	0.043005
41.59 	0.042976 	4933 	0.042263
41.61 	0.042197 	4953 	0.041724
41.63 	0.040300 	4938 	0.040181
41.65 	0.040576 	4929 	0.040101
41.67 	0.040081 	4940 	0.039844
41.69 	0.040226 	4947 	0.039871
41.71 	0.043373 	4934 	0.042779
41.73 	0.040721 	4936 	0.040128
41.75 	0.042605 	4929 	0.041773
41.77 	0.039263 	4941 	0.038908
41.79 	0.039037 	4944 	0.038188
41.81 	0.047204 	4936 	0.046136
41.83 	0.036932 	4928 	0.036932
41.85 	0.039279 	4939 	0.039042
41.87 	0.042148 	4935 	0.041198
41.89 	0.041557 	4933 	0.041082
41.91 	0.045381 	4936 	0.045144
41.93 	0.047040 	4932 	0.046208
41.95 	0.038937 	4931 	0.038819
41.97 	0.036427 	4914 	0.036188
41.99 	0.042406 	4905 	0.041689
42.01 	0.041076 	4942 	0.040839
42.03 	0.037052 	4939 	0.036933
42.05 	0.044023 	4952 	0.042958
42.07 	0.043144 	4937 	0.042669
42.09 	0.043250 	4948 	0.042658
42.11 	0.042063 	4945 	0.041826
42.13 	0.044489 	4945 	0.043779
42.15 	0.038680 	4938 	0.038324
42.17 	0.041277 	4918 	0.040543
42.19 	0.044417 	4908 	0.043940
42.21 	0.041012 	4901 	0.040414
42.23 	0.040065 	4892 	0.039706
42.25 	0.040908 	4889 	0.040189
42.27 	0.038367 	4874 	0.037646
42.29 	0.041127 	4863 	0.040645
42.31 	0.048404 	4855 	0.048042
42.33 	0.042615 	4834 	0.042494
42.35 	0.037826 	4838 	0.037341
42.37 	0.037681 	4830 	0.036711
42.39 	0.038926 	4804 	0.038194
42.41 	0.035179 	4804 	0.035057
42.43 	0.042988 	4792 	0.042499
42.45 	0.038735 	4776 	0.038367
42.47 	0.040294 	4765 	0.040048
42.49 	0.038195 	4765 	0.038195
42.51 	0.041324 	4743 	0.040954
42.53 	0.043782 	4728 	0.043410
42.55 	0.039507 	4708 	0.039010
42.57 	0.038478 	4730 	0.038106
42.59 	0.038486 	4729 	0.038362
42.61 	0.043118 	4708 	0.042745
42.63 	0.043534 	4709 	0.043409
42.65 	0.036286 	4685 	0.035661
42.67 	0.039283 	4684 	0.039033
42.69 	0.035730 	4674 	0.034727
42.71 	0.041175 	4663 	0.040798
42.73 	0.043103 	4640 	0.042472
42.75 	0.038120 	4617 	0.037866
42.77 	0.037826 	4600 	0.037444
42.79 	0.039721 	4582 	0.039465
42.81 	0.038141 	4562 	0.037242
42.83 	0.038360 	4536 	0.037585
42.85 	0.047924 	4528 	0.046889
42.87 	0.037119 	4499 	0.036599
42.89 	0.039286 	4480 	0.038632
42.91 	0.038375 	4456 	0.038112
42.93 	0.035987 	4446 	0.035065
42.95 	0.040534 	4416 	0.040004
42.97 	0.041354 	4401 	0.040556
42.99 	0.041049 	4385 	0.040782
43.01 	0.042402 	4363 	0.042133
43.03 	0.041311 	4333 	0.041040
43.05 	0.039538 	4325 	0.039267
43.07 	0.034451 	4296 	0.033769
43.09 	0.039925 	4283 	0.039652
43.11 	0.035488 	4255 	0.035212
43.13 	0.042011 	4237 	0.041734
43.15 	0.042320 	4206 	0.041346
43.17 	0.040680 	4179 	0.040259
43.19 	0.038627 	4194 	0.038487
43.21 	0.041707 	4172 	0.041285
43.23 	0.046221 	4154 	0.045374
43.25 	0.039661 	4135 	0.039236
43.27 	0.033374 	4105 	0.032946
43.29 	0.044634 	4100 	0.044063
43.31 	0.037754 	4079 	0.037324
43.33 	0.037275 	4051 	0.036841
43.35 	0.034474 	4032 	0.034329
43.37 	0.035118 	4015 	0.034827
43.39 	0.040730 	4002 	0.040291
43.41 	0.037009 	3972 	0.036567
43.43 	0.042424 	3960 	0.041980
43.45 	0.037865 	3935 	0.037716
43.47 	0.034430 	3921 	0.034131
43.49 	0.033102 	3897 	0.032651
43.51 	0.036626 	3877 	0.036173
43.53 	0.040124 	3863 	0.040124
43.55 	0.038799 	2964 	0.038008
43.57 	0.035746 	2238 	0.035484
43.59 	0.035510 	1746 	0.035510
43.61 	0.045892 	1351 	0.045458
43.63 	0.032967 	1001 	0.032967
43.65 	0.039301 	687 	0.039301
43.67 	0.033865 	502 	0.032698
43.69 	0.029973 	367 	0.029973
43.71 	0.037657 	239 	0.037657
43.73 	0.041667 	120 	0.041667
43.75 	0.062500 	16 	0.062500