File: Example_Data/25SC_s1_0017.000.dat
#F C:\frames\spec\25SC_s1_0017.000
#C title =s:17 frm:0 25SC_s1
#C wavelength =0.15406

#S 1  fr_average C:\frames\spec\25SC_s1_0017.000 C:\win32app\speccom\mask.axs chi 0 180 0 360 0.02
#C 2 theta =0.000000 to 180 deg
#C   q   =0.000000 to 81.568 nm^-1
#C  chi  =0.000000 to 360 deg
#C collumns:
#C  1 position (2theta or chi in degrees)
#C  2 average intensity (sum of all counts in the region divided with number of pixels)
#C  3 Number of pixels in region)
#C  4 error (sum of sqrt(intensity) for all pixels divided by number)
#N 4
#L TTh  Int  N_pix  Err
32.99 	0.098361 	61 	0.098361
33.01 	0.058419 	873 	0.057748
33.03 	0.058950 	1391 	0.056845
33.05 	0.067729 	1757 	0.066729
33.07 	0.065366 	2050 	0.063651
33.09 	0.057520 	2347 	0.056272
33.11 	0.052734 	2579 	0.052052
33.13 	0.064805 	2793 	0.064176
33.15 	0.064355 	2999 	0.063769
33.17 	0.064355 	3201 	0.063074
33.19 	0.061939 	3342 	0.060858
33.21 	0.061700 	3436 	0.060506
33.23 	0.063014 	3523 	0.061684
33.25 	0.060354 	3612 	0.059381
33.27 	0.061983 	3630 	0.061015
33.29 	0.058114 	3648 	0.056455
33.31 	0.057923 	3660 	0.056323
33.33 	0.060770 	3686 	0.058863
33.35 	0.061451 	3694 	0.059839
33.37 	0.065697 	3714 	0.064436
33.39 	0.065433 	3729 	0.064176
33.41 	0.059626 	3740 	0.058373
33.43 	0.062483 	3761 	0.061860
33.45 	0.052743 	3773 	0.052433
33.47 	0.059505 	3798 	0.057808
33.49 	0.061696 	3809 	0.060927
33.51 	0.058453 	3815 	0.057532
33.53 	0.059099 	3841 	0.057879
33.55 	0.064793 	3843 	0.063269
33.57 	0.056745 	3877 	0.055989
33.59 	0.061340 	3880 	0.060434
33.61 	0.061653 	3909 	0.060903
33.63 	0.060219 	3919 	0.059173
33.65 	0.052913 	3931 	0.051870
33.67 	0.059433 	3954 	0.058100
33.69 	0.053883 	3953 	0.053587
33.71 	0.057610 	3975 	0.056431
33.73 	0.061688 	4004 	0.060640
33.75 	0.059515 	3999 	0.058343
33.77 	0.059627 	4025 	0.059021
33.79 	0.056422 	4041 	0.054392
33.81 	0.063150 	4038 	0.062280
33.83 	0.061235 	4050 	0.060801
33.85 	0.061966 	4099 	0.060966
33.87 	0.065434 	4111 	0.064722
33.89 	0.057268 	4121 	0.055562
33.91 	0.056399 	4149 	0.055834
33.93 	0.059986 	4151 	0.058269
33.95 	0.062664 	4181 	0.061403
33.97 	0.052029 	4190 	0.051469
33.99 	0.056905 	4200 	0.056068
34.01 	0.048184 	4213 	0.046933
34.03 	0.064797 	4244 	0.064245
34.05 	0.061853 	4252 	0.060751
34.07 	0.059278 	4268 	0.058981
34.09 	0.062063 	4286 	0.060832
34.11 	0.060437 	4302 	0.059291
34.13 	0.062674 	4308 	0.061994
34.15 	0.058878 	4331 	0.057796
34.17 	0.060920 	4350 	0.059842
34.19 	0.058689 	4362 	0.057749
34.21 	0.059254 	4371 	0.058316
34.23 	0.061461 	4393 	0.059861
34.25 	0.060400 	4404 	0.059203
34.27 	0.059701 	4422 	0.058509
34.29 	0.058174 	4435 	0.057117
34.31 	0.054733 	4458 	0.054339
34.33 	0.057034 	4471 	0.056248
34.35 	0.051963 	4484 	0.051048
34.37 	0.060120 	4491 	0.058294
34.39 	0.059085 	4502 	0.058695
34.41 	0.060539 	4526 	0.059504
34.43 	0.053095 	4539 	0.052450
34.45 	0.061080 	4535 	0.060155
34.47 	0.058798 	4592 	0.057119
34.49 	0.060257 	4597 	0.059237
34.51 	0.057968 	4606 	0.056950
34.53 	0.059660 	4643 	0.059281
34.55 	0.059229 	4643 	0.058093
34.57 	0.058155 	4660 	0.056897
34.59 	0.056257 	4675 	0.055630
34.61 	0.054290 	4697 	0.053168
34.63 	0.052229 	4710 	0.050716
34.65 	0.056768 	4721 	0.055651
34.67 	0.055474 	4741 	0.054094
34.69 	0.056584 	4754 	0.056214
34.71 	0.063366 	4766 	0.062382
34.73 	0.058492 	4787 	0.057635
34.75 	0.056364 	4808 	0.055633
34.77 	0.056247 	4818 	0.055396
34.79 	0.060116 	4824 	0.058659
34.81 	0.057379 	4845 	0.056895
34.83 	0.058001 	4862 	0.057278
34.85 	0.052167 	4869 	0.051445
34.87 	0.064708 	4868 	0.064107
34.89 	0.054281 	4882 	0.052721
34.91 	0.054281 	4882 	0.053561
34.93 	0.053684 	4899 	0.053326
34.95 	0.059714 	4890 	0.058755
34.97 	0.050184 	4902 	0.048989
34.99 	0.056565 	4897 	0.055967
35.01 	0.059110 	4923 	0.058634
35.03 	0.058871 	4943 	0.057430
35.05 	0.054579 	4947 	0.053612
35.07 	0.064980 	4940 	0.063893
35.09 	0.055926 	4953 	0.055453
35.11 	0.060239 	4947 	0.059528
35.13 	0.051230 	4958 	0.050266
35.15 	0.051651 	4937 	0.051295
35.17 	0.057825 	4946 	0.057232
35.19 	0.057467 	4942 	0.056163
35.21 	0.057836 	4945 	0.056770
35.23 	0.055410 	4945 	0.054343
35.25 	0.060085 	4943 	0.059137
35.27 	0.062045 	4948 	0.060625
35.29 	0.059050 	4945 	0.058457
35.31 	0.061829 	4933 	0.060997
35.33 	0.059883 	4943 	0.059290
35.35 	0.056455 	4942 	0.055388
35.37 	0.055679 	4939 	0.054968
35.39 	0.055814 	4945 	0.055340
35.41 	0.059480 	4926 	0.058172
35.43 	0.055950 	4933 	0.054129
35.45 	0.059550 	4937 	0.058245
35.47 	0.054756 	4931 	0.053805
35.49 	0.058045 	4910 	0.057329
35.51 	0.060698 	4926 	0.060104
35.53 	0.055163 	4949 	0.053979
35.55 	0.052983 	4945 	0.052134
35.57 	0.057774 	4933 	0.056943
35.59 	0.058443 	4945 	0.057851
35.61 	0.060704 	4942 	0.059519
35.63 	0.061703 	4943 	0.061111
35.65 	0.057432 	4945 	0.056247
35.67 	0.056657 	4942 	0.055590
35.69 	0.060453 	4946 	0.059742
35.71 	0.056512 	4937 	0.055800
35.73 	0.061183 	4936 	0.059996
35.75 	0.055161 	4931 	0.053973
35.77 	0.056150 	4951 	0.055559
35.79 	0.057380 	4932 	0.056668
35.81 	0.051895 	4933 	0.051302
35.83 	0.061464 	4946 	0.060398
35.85 	0.056738 	4935 	0.056025
35.87 	0.063376 	4923 	0.061810
35.89 	0.056952 	4934 	0.056477
35.91 	0.060077 	4927 	0.059007
35.93 	0.056830 	4927 	0.055760
35.95 	0.053895 	4917 	0.052465
35.97 	0.061889 	4912 	0.060697
35.99 	0.061753 	4939 	0.060686
36.01 	0.063286 	4930 	0.062098
36.03 	0.056646 	4943 	0.055323
36.05 	0.056825 	4945 	0.055739
36.07 	0.066815 	4939 	0.066341
36.09 	0.057895 	4940 	0.056946
36.11 	0.054981 	4929 	0.053892
36.13 	0.061109 	4942 	0.060279
36.15 	0.055679 	4939 	0.054849
36.17 	0.063147 	4925 	0.061720
36.19 	0.061134 	4940 	0.060304
36.21 	0.057010 	4929 	0.055940
36.23 	0.059574 	4935 	0.058862
36.25 	0.061121 	4941 	0.060291
36.27 	0.052995 	4925 	0.051568
36.29 	0.062868 	4931 	0.061917
36.31 	0.063515 	4928 	0.063039
36.33 	0.060409 	4933 	0.058628
36.35 	0.056401 	4929 	0.055569
36.37 	0.050579 	4923 	0.049845
36.39 	0.065840 	4921 	0.064769
36.41 	0.066585 	4896 	0.065628
36.43 	0.059659 	4928 	0.058213
36.45 	0.059432 	4930 	0.058600
36.47 	0.056726 	4936 	0.055382
36.49 	0.057467 	4942 	0.056281
36.51 	0.057369 	4933 	0.056656
36.53 	0.054623 	4943 	0.053793
36.55 	0.055003 	4927 	0.053933
36.57 	0.056546 	4934 	0.054983
36.59 	0.056287 	4939 	0.055338
36.61 	0.064693 	4931 	0.063267
36.63 	0.061854 	4931 	0.060666
36.65 	0.060219 	4932 	0.059150
36.67 	0.057201 	4930 	0.055993
36.69 	0.063096 	4929 	0.061670
36.71 	0.065840 	4921 	0.065007
36.73 	0.057462 	4925 	0.056610
36.75 	0.063107 	4944 	0.061922
36.77 	0.065054 	4919 	0.064101
36.79 	0.061776 	4921 	0.060943
36.81 	0.060822 	4916 	0.059253
36.83 	0.050865 	4915 	0.049435
36.85 	0.058595 	4898 	0.057639
36.87 	0.061691 	4944 	0.060250
36.89 	0.059805 	4916 	0.058832
36.91 	0.059907 	4941 	0.058129
36.93 	0.064503 	4930 	0.063434
36.95 	0.052909 	4933 	0.052315
36.97 	0.056749 	4934 	0.055799
36.99 	0.060385 	4935 	0.060029
37.01 	0.062031 	4933 	0.060606
37.03 	0.060926 	4924 	0.060093
37.05 	0.054191 	4927 	0.053597
37.07 	0.060790 	4935 	0.060315
37.09 	0.058442 	4928 	0.057728
37.11 	0.059169 	4935 	0.058457
37.13 	0.063160 	4924 	0.061594
37.15 	0.068853 	4909 	0.067660
37.17 	0.061208 	4934 	0.060614
37.19 	0.061523 	4925 	0.060195
37.21 	0.055115 	4917 	0.054380
37.23 	0.056730 	4918 	0.055371
37.25 	0.055793 	4911 	0.055197
37.27 	0.054352 	4894 	0.053395
37.29 	0.052130 	4930 	0.050942
37.31 	0.060790 	4935 	0.060315
37.33 	0.056627 	4927 	0.056032
37.35 	0.059943 	4938 	0.059350
37.37 	0.052162 	4927 	0.051567
37.39 	0.059826 	4931 	0.059113
37.41 	0.053539 	4931 	0.053064
37.43 	0.057178 	4932 	0.056584
37.45 	0.058083 	4924 	0.057468
37.47 	0.058430 	4929 	0.057479
37.49 	0.055048 	4923 	0.054076
37.51 	0.058788 	4933 	0.058075
37.53 	0.061191 	4919 	0.060239
37.55 	0.057809 	4930 	0.056839
37.57 	0.055025 	4925 	0.054173
37.59 	0.051068 	4915 	0.050333
37.61 	0.058919 	4922 	0.057253
37.63 	0.054076 	4919 	0.052647
37.65 	0.061814 	4918 	0.060623
37.67 	0.058931 	4904 	0.058334
37.69 	0.056758 	4898 	0.056040
37.71 	0.054372 	4929 	0.053540
37.73 	0.053155 	4929 	0.052679
37.75 	0.060324 	4940 	0.059612
37.77 	0.048780 	4920 	0.048185
37.79 	0.059838 	4930 	0.058511
37.81 	0.057977 	4933 	0.056671
37.83 	0.054268 	4920 	0.053792
37.85 	0.054856 	4922 	0.054023
37.87 	0.057704 	4939 	0.056637
37.89 	0.058274 	4925 	0.057323
37.91 	0.051521 	4930 	0.051046
37.93 	0.053263 	4919 	0.052429
37.95 	0.056899 	4921 	0.055709
37.97 	0.055995 	4929 	0.054906
37.99 	0.059650 	4912 	0.059173
38.01 	0.058239 	4928 	0.057268
38.03 	0.050723 	4909 	0.050485
38.05 	0.061320 	4925 	0.060487
38.07 	0.060705 	4909 	0.059273
38.09 	0.060476 	4878 	0.059395
38.11 	0.060385 	4935 	0.059317
38.13 	0.057322 	4937 	0.056254
38.15 	0.056730 	4918 	0.056373
38.17 	0.055984 	4930 	0.055271
38.19 	0.055984 	4930 	0.055390
38.21 	0.060329 	4923 	0.059358
38.23 	0.058931 	4938 	0.057389
38.25 	0.058776 	4917 	0.057823
38.27 	0.050507 	4930 	0.049913
38.29 	0.056052 	4924 	0.055338
38.31 	0.053582 	4927 	0.052750
38.33 	0.061129 	4924 	0.060177
38.35 	0.057630 	4928 	0.056798
38.37 	0.061535 	4924 	0.060465
38.39 	0.061723 	4909 	0.060849
38.41 	0.064595 	4923 	0.063266
38.43 	0.060415 	4916 	0.059223
38.45 	0.070964 	4918 	0.069158
38.47 	0.059099 	4907 	0.058383
38.49 	0.076481 	4877 	0.074680
38.51 	0.074412 	4932 	0.072868
38.53 	0.070603 	4929 	0.069058
38.55 	0.075365 	4936 	0.073941
38.57 	0.066017 	4923 	0.065303
38.59 	0.073924 	4924 	0.072258
38.61 	0.074352 	4936 	0.072928
38.63 	0.076564 	4924 	0.074403
38.65 	0.075844 	4918 	0.073918
38.67 	0.077375 	4937 	0.075576
38.69 	0.079846 	4922 	0.077822
38.71 	0.075142 	4924 	0.073239
38.73 	0.074420 	4918 	0.072852
38.75 	0.081997 	4927 	0.080214
38.77 	0.076782 	4923 	0.075474
38.79 	0.076611 	4934 	0.074949
38.81 	0.076547 	4912 	0.074977
38.83 	0.073186 	4919 	0.071380
38.85 	0.086116 	4912 	0.085023
38.87 	0.075748 	4911 	0.074078
38.89 	0.069634 	4897 	0.068558
38.91 	0.068326 	4903 	0.067011
38.93 	0.066019 	4938 	0.065188
38.95 	0.059577 	4918 	0.057652
38.97 	0.063679 	4931 	0.063204
38.99 	0.060158 	4937 	0.058734
39.01 	0.058560 	4918 	0.058084
39.03 	0.059587 	4934 	0.058637
39.05 	0.058680 	4925 	0.057967
39.07 	0.054224 	4924 	0.053867
39.09 	0.053829 	4923 	0.052996
39.11 	0.058406 	4931 	0.057555
39.13 	0.048751 	4923 	0.048037
39.15 	0.048830 	4915 	0.047757
39.17 	0.051246 	4937 	0.050890
39.19 	0.048200 	4917 	0.047843
39.21 	0.045418 	4910 	0.044702
39.23 	0.049746 	4925 	0.048795
39.25 	0.047948 	4922 	0.047234
39.27 	0.049898 	4910 	0.048824
39.29 	0.047133 	4901 	0.045818
39.31 	0.045045 	4884 	0.044086
39.33 	0.043805 	4931 	0.042973
39.35 	0.044377 	4935 	0.043526
39.37 	0.046865 	4929 	0.046152
39.39 	0.045242 	4929 	0.044411
39.41 	0.043196 	4931 	0.042721
39.43 	0.048044 	4933 	0.047213
39.45 	0.042030 	4925 	0.041317
39.47 	0.046923 	4923 	0.046447
39.49 	0.045408 	4933 	0.044577
39.51 	0.052600 	4924 	0.051767
39.53 	0.046719 	4923 	0.046125
39.55 	0.045538 	4919 	0.045300
39.57 	0.038922 	4933 	0.038209
39.59 	0.050692 	4912 	0.050334
39.61 	0.046110 	4923 	0.045277
39.63 	0.051605 	4922 	0.050891
39.65 	0.046691 	4926 	0.045740
39.67 	0.049664 	4913 	0.048949
39.69 	0.046989 	4916 	0.046036
39.71 	0.056384 	4895 	0.055068
39.73 	0.042991 	4908 	0.042394
39.75 	0.044643 	4928 	0.044049
39.77 	0.049645 	4935 	0.049171
39.79 	0.049533 	4926 	0.049176
39.81 	0.048305 	4927 	0.048067
39.83 	0.047223 	4934 	0.046511
39.85 	0.046276 	4927 	0.045562
39.87 	0.038985 	4925 	0.038509
39.89 	0.047629 	4934 	0.046916
39.91 	0.045510 	4922 	0.044558
39.93 	0.049423 	4937 	0.048592
39.95 	0.044354 	4915 	0.043758
39.97 	0.045252 	4928 	0.044420
39.99 	0.043593 	4932 	0.042999
40.01 	0.039244 	4918 	0.039124
40.03 	0.051339 	4928 	0.050864
40.05 	0.041895 	4917 	0.041776
40.07 	0.048954 	4923 	0.047883
40.09 	0.042514 	4916 	0.042038
40.11 	0.043735 	4916 	0.043496
40.13 	0.045752 	4896 	0.045273
40.15 	0.042744 	4913 	0.042386
40.17 	0.043425 	4928 	0.042474
40.19 	0.043214 	4929 	0.042501
40.21 	0.039311 	4935 	0.038718
40.23 	0.039740 	4932 	0.039384
40.25 	0.045325 	4920 	0.044968
40.27 	0.043144 	4937 	0.042669
40.29 	0.046276 	4927 	0.045919
40.31 	0.039887 	4939 	0.038938
40.33 	0.044201 	4932 	0.043964
40.35 	0.040862 	4919 	0.040505
40.37 	0.048083 	4929 	0.047489
40.39 	0.044210 	4931 	0.043022
40.41 	0.042234 	4925 	0.041520
40.43 	0.043478 	4922 	0.042883
40.45 	0.046625 	4933 	0.045537
40.47 	0.043107 	4918 	0.042750
40.49 	0.041007 	4926 	0.040412
40.51 	0.047338 	4922 	0.046981
40.53 	0.042921 	4916 	0.042325
40.55 	0.045232 	4908 	0.044874
40.57 	0.037832 	4890 	0.037593
40.59 	0.046587 	4937 	0.046112
40.61 	0.041945 	4935 	0.041352
40.63 	0.043205 	4930 	0.042373
40.65 	0.041118 	4937 	0.040881
40.67 	0.040552 	4932 	0.040314
40.69 	0.042333 	4937 	0.042096
40.71 	0.048054 	4932 	0.047222
40.73 	0.046082 	4926 	0.044854
40.75 	0.042993 	4931 	0.042399
40.77 	0.047783 	4939 	0.046953
40.79 	0.044679 	4924 	0.044322
40.81 	0.039668 	4941 	0.039075
40.83 	0.044034 	4928 	0.043321
40.85 	0.042851 	4924 	0.042851
40.87 	0.040584 	4928 	0.039990
40.89 	0.044007 	4931 	0.043770
40.91 	0.044891 	4923 	0.044296
40.93 	0.039116 	4934 	0.038641
40.95 	0.047018 	4913 	0.046422
40.97 	0.043664 	4924 	0.043188
40.99 	0.039805 	4924 	0.039448
41.01 	0.042956 	4912 	0.042479
41.03 	0.049134 	4905 	0.048298
41.05 	0.038493 	4936 	0.038255
41.07 	0.046653 	4930 	0.045584
41.09 	0.041304 	4939 	0.040711
41.11 	0.036879 	4935 	0.036405
41.13 	0.044976 	4936 	0.044382
41.15 	0.046752 	4941 	0.046515
41.17 	0.041548 	4934 	0.041074
41.19 	0.043611 	4930 	0.042403
41.21 	0.045777 	4937 	0.045539
41.23 	0.040696 	4939 	0.040222
41.25 	0.042773 	4933 	0.042417
41.27 	0.038532 	4931 	0.038057
41.29 	0.044237 	4928 	0.043643
41.31 	0.040341 	4933 	0.039866
41.33 	0.041321 	4937 	0.040965
41.35 	0.039692 	4938 	0.039099
41.37 	0.045085 	4924 	0.044471
41.39 	0.041962 	4933 	0.041250
41.41 	0.044255 	4926 	0.043898
41.43 	0.039968 	4929 	0.039492
41.45 	0.046805 	4914 	0.046447
41.47 	0.044052 	4926 	0.043576
41.49 	0.040270 	4892 	0.039551
41.51 	0.046964 	4940 	0.046608
41.53 	0.041060 	4944 	0.040586
41.55 	0.039919 	4935 	0.039444
41.57 	0.043109 	4941 	0.042634
41.59 	0.045408 	4933 	0.044340
41.61 	0.040380 	4953 	0.040025
41.63 	0.038680 	4938 	0.038205
41.65 	0.041591 	4929 	0.040996
41.67 	0.042308 	4940 	0.041478
41.69 	0.042046 	4947 	0.041572
41.71 	0.039319 	4934 	0.038844
41.73 	0.042747 	4936 	0.042391
41.75 	0.042605 	4929 	0.042011
41.77 	0.042299 	4941 	0.041469
41.79 	0.042678 	4944 	0.042323
41.81 	0.043963 	4936 	0.043251
41.83 	0.049107 	4928 	0.048156
41.85 	0.038064 	4939 	0.037590
41.87 	0.033840 	4935 	0.033365
41.89 	0.042570 	4933 	0.042333
41.91 	0.039506 	4936 	0.039031
41.93 	0.039335 	4932 	0.039335
41.95 	0.042791 	4931 	0.042315
41.97 	0.041311 	4914 	0.040357
41.99 	0.043629 	4905 	0.042893
42.01 	0.041481 	4942 	0.041007
42.03 	0.042721 	4939 	0.042010
42.05 	0.041801 	4952 	0.041565
42.07 	0.042131 	4937 	0.041637
42.09 	0.041835 	4948 	0.041362
42.11 	0.037614 	4945 	0.037258
42.13 	0.035592 	4945 	0.035236
42.15 	0.038477 	4938 	0.037864
42.17 	0.044530 	4918 	0.044173
42.19 	0.041769 	4908 	0.041291
42.21 	0.035911 	4901 	0.035433
42.23 	0.035977 	4892 	0.035857
42.25 	0.040704 	4889 	0.040224
42.27 	0.043086 	4874 	0.042605
42.29 	0.039276 	4863 	0.039035
42.31 	0.037075 	4855 	0.036713
42.33 	0.042822 	4834 	0.042458
42.35 	0.034518 	4838 	0.033913
42.37 	0.040994 	4830 	0.040873
42.39 	0.042048 	4804 	0.041561
42.41 	0.042256 	4804 	0.041525
42.43 	0.041945 	4792 	0.041069
42.45 	0.039363 	4776 	0.039118
42.47 	0.037985 	4765 	0.037739
42.49 	0.040504 	4765 	0.040258
42.51 	0.040902 	4743 	0.040161
42.53 	0.044205 	4728 	0.043461
42.55 	0.041631 	4708 	0.041382
42.57 	0.042072 	4730 	0.041824
42.59 	0.043138 	4729 	0.042374
42.61 	0.035684 	4708 	0.035311
42.63 	0.041410 	4709 	0.040664
42.65 	0.044184 	4685 	0.043308
42.67 	0.041418 	4684 	0.040917
42.69 	0.037869 	4674 	0.037618
42.71 	0.037101 	4663 	0.036724
42.73 	0.040733 	4640 	0.040354
42.75 	0.035954 	4617 	0.035193
42.77 	0.039565 	4600 	0.039183
42.79 	0.043867 	4582 	0.043484
42.81 	0.042306 	4562 	0.042049
42.83 	0.035714 	4536 	0.035327
42.85 	0.040857 	4528 	0.040598
42.87 	0.038231 	4499 	0.037710
42.89 	0.046205 	4480 	0.046075
42.91 	0.041517 	4456 	0.040991
42.93 	0.036212 	4446 	0.035554
42.95 	0.041440 	4416 	0.041042
42.97 	0.037037 	4401 	0.036771
42.99 	0.041277 	4385 	0.040743
43.01 	0.036214 	4363 	0.036079
43.03 	0.039234 	4333 	0.038536
43.05 	0.042081 	4325 	0.041133
43.07 	0.037011 	4296 	0.036875
43.09 	0.041793 	4283 	0.040836
43.11 	0.033137 	4255 	0.033000
43.13 	0.038943 	4237 	0.037975
43.15 	0.033048 	4206 	0.032909
43.17 	0.034937 	4179 	0.034656
43.19 	0.044826 	4194 	0.044407
43.21 	0.038111 	4172 	0.037690
43.23 	0.037795 	4154 	0.036949
43.25 	0.040629 	4135 	0.040345
43.27 	0.041657 	4105 	0.040658
43.29 	0.036098 	4100 	0.035669
43.31 	0.040696 	4079 	0.040265
43.33 	0.037768 	4051 	0.037190
43.35 	0.039187 	4032 	0.038896
43.37 	0.039851 	4015 	0.039413
43.39 	0.039730 	4002 	0.039584
43.41 	0.038771 	3972 	0.038329
43.43 	0.032323 	3960 	0.031732
43.45 	0.038628 	3935 	0.038330
43.47 	0.034175 	3921 	0.033727
43.49 	0.037721 	3897 	0.037571
43.51 	0.037400 	3877 	0.037098
43.53 	0.043490 	3863 	0.042883
43.55 	0.037112 	2964 	0.037112
43.57 	0.035746 	2238 	0.034961
43.59 	0.048683 	1746 	0.047676
43.61 	0.042931 	1351 	0.042931
43.63 	0.027972 	1001 	0.027972
43.65 	0.037846 	687 	0.037846
43.67 	0.029880 	502 	0.029880
43.69 	0.040872 	367 	0.040872
43.71 	0.046025 	239 	0.046025
43.73 	0.025000 	120 	0.025000
43.75 	0.125000 	16 	0.125000