File: Example_Data/25SC_s1_0008.003.dat
#F C:\frames\spec\25SC_s1_0008.003
#C title =s:8 frm:3 25SC_s1
#C wavelength =0.15406

#S 1  fr_average C:\frames\spec\25SC_s1_0008.003 C:\win32app\speccom\mask.axs chi 0 180 0 360 0.02
#C 2 theta =0.000000 to 180 deg
#C   q   =0.000000 to 81.568 nm^-1
#C  chi  =0.000000 to 360 deg
#C collumns:
#C  1 position (2theta or chi in degrees)
#C  2 average intensity (sum of all counts in the region divided with number of pixels)
#C  3 Number of pixels in region)
#C  4 error (sum of sqrt(intensity) for all pixels divided by number)
#N 4
#L TTh  Int  N_pix  Err
32.99 	0.065574 	61 	0.055971
33.01 	0.064147 	873 	0.062134
33.03 	0.065421 	1391 	0.064157
33.05 	0.071144 	1757 	0.069144
33.07 	0.066341 	2050 	0.065484
33.09 	0.069450 	2347 	0.067662
33.11 	0.066693 	2579 	0.065784
33.13 	0.060866 	2793 	0.060028
33.15 	0.068356 	2999 	0.067379
33.17 	0.050297 	3201 	0.049565
33.19 	0.061341 	3342 	0.060114
33.21 	0.060827 	3436 	0.059435
33.23 	0.055634 	3523 	0.055136
33.25 	0.060908 	3612 	0.059773
33.27 	0.067218 	3630 	0.066411
33.29 	0.054550 	3648 	0.054229
33.31 	0.057923 	3660 	0.057123
33.33 	0.057515 	3686 	0.056561
33.35 	0.063617 	3694 	0.062507
33.37 	0.058158 	3714 	0.057186
33.39 	0.058461 	3729 	0.057361
33.41 	0.063636 	3740 	0.061913
33.43 	0.058495 	3761 	0.057405
33.45 	0.066260 	3773 	0.065148
33.47 	0.063718 	3798 	0.062021
33.49 	0.067734 	3809 	0.066196
33.51 	0.056881 	3815 	0.055652
33.53 	0.059620 	3841 	0.058400
33.55 	0.054645 	3843 	0.053730
33.57 	0.062161 	3877 	0.061255
33.59 	0.065722 	3880 	0.064212
33.61 	0.067792 	3909 	0.066593
33.63 	0.058433 	3919 	0.057387
33.65 	0.063343 	3931 	0.061852
33.67 	0.058675 	3954 	0.057638
33.69 	0.063243 	3953 	0.061909
33.71 	0.053082 	3975 	0.052198
33.73 	0.061688 	4004 	0.060811
33.75 	0.059265 	3999 	0.058239
33.77 	0.067081 	4025 	0.065334
33.79 	0.061371 	4041 	0.060042
33.81 	0.060674 	4038 	0.059658
33.83 	0.060741 	4050 	0.060018
33.85 	0.062210 	4099 	0.061353
33.87 	0.055218 	4111 	0.054363
33.89 	0.056782 	4121 	0.056072
33.91 	0.064835 	4149 	0.063141
33.93 	0.056613 	4151 	0.056048
33.95 	0.057403 	4181 	0.055721
33.97 	0.063007 	4190 	0.061609
33.99 	0.060476 	4200 	0.059639
34.01 	0.064562 	4213 	0.063033
34.03 	0.060556 	4244 	0.059452
34.05 	0.064205 	4252 	0.063241
34.07 	0.062090 	4268 	0.061266
34.09 	0.057163 	4286 	0.056206
34.11 	0.062529 	4302 	0.061167
34.13 	0.063835 	4308 	0.062883
34.15 	0.061418 	4331 	0.060741
34.17 	0.054483 	4350 	0.053809
34.19 	0.055479 	4362 	0.054405
34.21 	0.062000 	4371 	0.061329
34.23 	0.065786 	4393 	0.064320
34.25 	0.064260 	4404 	0.062797
34.27 	0.067616 	4422 	0.066159
34.29 	0.065163 	4435 	0.064371
34.31 	0.055406 	4458 	0.055275
34.33 	0.060837 	4471 	0.059112
34.35 	0.058653 	4484 	0.058130
34.37 	0.063238 	4491 	0.062455
34.39 	0.057308 	4502 	0.056397
34.41 	0.059213 	4526 	0.058178
34.43 	0.053977 	4539 	0.053589
34.45 	0.061963 	4535 	0.060800
34.47 	0.056838 	4592 	0.056200
34.49 	0.064390 	4597 	0.062861
34.51 	0.058185 	4606 	0.057168
34.53 	0.060090 	4643 	0.059081
34.55 	0.067629 	4643 	0.066746
34.57 	0.055579 	4660 	0.054825
34.59 	0.060321 	4675 	0.059193
34.61 	0.060464 	4697 	0.059466
34.63 	0.056900 	4710 	0.056278
34.65 	0.057827 	4721 	0.057206
34.67 	0.061379 	4741 	0.060020
34.69 	0.071308 	4754 	0.070199
34.71 	0.061687 	4766 	0.060581
34.73 	0.066639 	4787 	0.065537
34.75 	0.063644 	4808 	0.062913
34.77 	0.059153 	4818 	0.058424
34.79 	0.059080 	4824 	0.058351
34.81 	0.063983 	4845 	0.062875
34.83 	0.058412 	4862 	0.057810
34.85 	0.058739 	4869 	0.057897
34.87 	0.063270 	4868 	0.062288
34.89 	0.060836 	4882 	0.059876
34.91 	0.058378 	4882 	0.057298
34.93 	0.066136 	4899 	0.064701
34.95 	0.060327 	4890 	0.059249
34.97 	0.063647 	4902 	0.061855
34.99 	0.060854 	4897 	0.059777
35.01 	0.060329 	4923 	0.059734
35.03 	0.058669 	4943 	0.058076
35.05 	0.062664 	4947 	0.061480
35.07 	0.062753 	4940 	0.061686
35.09 	0.059358 	4953 	0.058057
35.11 	0.055994 	4947 	0.055264
35.13 	0.060307 	4958 	0.059480
35.15 	0.059348 	4937 	0.058636
35.17 	0.068945 	4946 	0.067523
35.19 	0.057264 	4942 	0.055842
35.21 	0.063701 	4945 	0.062497
35.23 	0.059858 	4945 	0.058536
35.25 	0.060692 	4943 	0.059744
35.27 	0.064268 	4948 	0.062828
35.29 	0.061274 	4945 	0.060445
35.31 	0.058585 	4933 	0.057873
35.33 	0.060692 	4943 	0.060099
35.35 	0.062525 	4942 	0.061221
35.37 	0.063171 	4939 	0.062222
35.39 	0.061881 	4945 	0.060933
35.41 	0.060089 	4926 	0.059257
35.43 	0.060409 	4933 	0.059934
35.45 	0.064412 	4937 	0.062869
35.47 	0.063070 	4931 	0.062120
35.49 	0.061507 	4910 	0.060553
35.51 	0.050751 	4926 	0.049800
35.53 	0.061022 	4949 	0.059227
35.55 	0.062083 	4945 	0.060543
35.57 	0.059801 	4933 	0.058476
35.59 	0.061881 	4945 	0.061288
35.61 	0.062930 	4942 	0.061508
35.63 	0.061906 	4943 	0.060820
35.65 	0.059252 	4945 	0.057949
35.67 	0.064751 	4942 	0.063921
35.69 	0.064092 	4946 	0.063244
35.71 	0.060766 	4937 	0.059816
35.73 	0.067464 	4936 	0.066039
35.75 	0.056175 	4931 	0.055106
35.77 	0.063624 	4951 	0.062204
35.79 	0.061436 	4932 	0.060248
35.81 	0.056355 	4933 	0.055405
35.83 	0.057622 	4946 	0.056675
35.85 	0.056940 	4935 	0.055971
35.87 	0.057892 	4923 	0.057178
35.89 	0.055330 	4934 	0.054381
35.91 	0.057033 	4927 	0.055725
35.93 	0.060280 	4927 	0.059428
35.95 	0.059386 	4917 	0.058194
35.97 	0.052321 	4912 	0.051844
35.99 	0.052237 	4939 	0.051288
36.01 	0.066734 	4930 	0.066021
36.03 	0.059680 	4943 	0.058495
36.05 	0.060263 	4945 	0.058841
36.07 	0.057299 	4939 	0.056469
36.09 	0.065587 	4940 	0.064401
36.11 	0.066545 	4929 	0.065000
36.13 	0.052206 	4942 	0.050665
36.15 	0.059121 	4939 	0.057916
36.17 	0.064365 	4925 	0.063057
36.19 	0.061336 	4940 	0.060387
36.21 	0.059444 	4929 	0.057661
36.23 	0.065248 	4935 	0.064061
36.25 	0.058490 	4941 	0.057779
36.27 	0.063553 	4925 	0.062463
36.29 	0.053336 	4931 	0.052386
36.31 	0.060065 	4928 	0.059114
36.33 	0.059801 	4933 	0.059089
36.35 	0.061473 	4929 	0.060760
36.37 	0.057079 	4923 	0.056484
36.39 	0.053038 	4921 	0.052205
36.41 	0.059436 	4896 	0.059077
36.43 	0.061891 	4928 	0.060683
36.45 	0.060852 	4930 	0.059307
36.47 	0.061791 	4936 	0.060229
36.49 	0.059490 	4942 	0.058542
36.51 	0.059396 	4933 	0.058446
36.53 	0.061299 	4943 	0.060588
36.55 	0.060889 	4927 	0.060176
36.57 	0.059181 	4934 	0.058231
36.59 	0.060741 	4939 	0.059318
36.61 	0.059623 	4931 	0.059029
36.63 	0.059623 	4931 	0.058653
36.65 	0.061233 	4932 	0.060263
36.67 	0.056998 	4930 	0.056760
36.69 	0.058835 	4929 	0.057528
36.71 	0.060557 	4921 	0.059604
36.73 	0.060711 	4925 	0.060096
36.75 	0.059871 	4944 	0.058567
36.77 	0.058955 	4919 	0.058121
36.79 	0.054867 	4921 	0.053677
36.81 	0.061839 	4916 	0.060647
36.83 	0.055341 	4915 	0.054249
36.85 	0.057779 	4898 	0.056822
36.87 	0.067961 	4944 	0.066539
36.89 	0.056347 	4916 	0.055274
36.91 	0.056669 	4941 	0.056076
36.93 	0.055172 	4930 	0.054459
36.95 	0.053112 	4933 	0.052755
36.97 	0.058573 	4934 	0.057861
36.99 	0.058156 	4935 	0.057206
37.01 	0.059599 	4933 	0.058035
37.03 	0.068440 	4924 	0.067112
37.05 	0.057439 	4927 	0.056487
37.07 	0.058156 	4935 	0.057444
37.09 	0.058036 	4928 	0.057323
37.11 	0.048835 	4935 	0.048123
37.13 	0.050772 	4924 	0.050058
37.15 	0.051131 	4909 	0.050534
37.17 	0.055938 	4934 	0.054989
37.19 	0.050355 	4925 	0.048571
37.21 	0.061013 	4917 	0.060536
37.23 	0.054087 	4918 	0.052757
37.25 	0.061291 	4911 	0.060337
37.27 	0.053126 	4894 	0.052408
37.29 	0.058215 	4930 	0.057740
37.31 	0.055319 	4935 	0.054825
37.33 	0.056830 	4927 	0.055879
37.35 	0.055488 	4938 	0.053946
37.37 	0.054597 	4927 	0.053884
37.39 	0.052525 	4931 	0.051456
37.41 	0.049888 	4931 	0.049057
37.43 	0.053933 	4932 	0.052865
37.45 	0.058286 	4924 	0.056739
37.47 	0.056807 	4929 	0.055975
37.49 	0.059110 	4923 	0.058039
37.51 	0.057977 	4933 	0.057502
37.53 	0.056312 	4919 	0.055360
37.55 	0.060446 	4930 	0.059733
37.57 	0.051777 	4925 	0.050349
37.59 	0.055748 	4915 	0.055390
37.61 	0.051199 	4922 	0.050128
37.63 	0.054076 	4919 	0.053242
37.65 	0.053884 	4918 	0.053526
37.67 	0.057504 	4904 	0.055951
37.69 	0.053083 	4898 	0.052126
37.71 	0.056807 	4929 	0.055618
37.73 	0.058227 	4929 	0.057870
37.75 	0.052632 	4940 	0.051802
37.77 	0.055285 	4920 	0.054332
37.79 	0.063489 	4930 	0.062400
37.81 	0.056152 	4933 	0.055163
37.83 	0.050610 	4920 	0.050134
37.85 	0.053637 	4922 	0.053042
37.87 	0.053655 	4939 	0.053299
37.89 	0.050355 	4925 	0.049880
37.91 	0.052333 	4930 	0.051026
37.93 	0.054483 	4919 	0.053887
37.95 	0.056899 	4921 	0.056066
37.97 	0.054169 	4929 	0.053337
37.99 	0.054764 	4912 	0.054168
38.01 	0.057021 	4928 	0.055951
38.03 	0.055205 	4909 	0.054727
38.05 	0.059086 	4925 	0.058611
38.07 	0.054797 	4909 	0.054201
38.09 	0.052686 	4878 	0.051965
38.11 	0.047822 	4935 	0.047090
38.13 	0.057120 	4937 	0.055577
38.15 	0.051240 	4918 	0.050168
38.17 	0.053753 	4930 	0.053040
38.19 	0.059838 	4930 	0.058887
38.21 	0.051188 	4923 	0.050355
38.23 	0.054881 	4938 	0.053813
38.25 	0.055115 	4917 	0.054043
38.27 	0.052941 	4930 	0.052090
38.29 	0.057067 	4924 	0.056235
38.31 	0.060686 	4927 	0.059953
38.33 	0.059708 	4924 	0.058756
38.35 	0.054586 	4928 	0.053754
38.37 	0.065597 	4924 	0.064288
38.39 	0.061316 	4909 	0.060103
38.41 	0.064189 	4923 	0.062523
38.43 	0.062042 	4916 	0.060255
38.45 	0.057544 	4918 	0.056710
38.47 	0.061545 	4907 	0.059873
38.49 	0.061103 	4877 	0.060022
38.51 	0.065085 	4932 	0.064135
38.53 	0.064516 	4929 	0.062733
38.55 	0.066045 	4936 	0.064503
38.57 	0.064595 	4923 	0.062810
38.59 	0.063160 	4924 	0.062089
38.61 	0.061588 	4936 	0.059907
38.63 	0.057271 	4924 	0.056676
38.65 	0.065677 	4918 	0.064486
38.67 	0.061171 	4937 	0.060103
38.69 	0.057091 	4922 	0.056139
38.71 	0.051990 	4924 	0.051039
38.73 	0.056120 	4918 	0.055167
38.75 	0.057642 	4927 	0.057404
38.77 	0.055657 	4923 	0.054348
38.79 	0.053709 	4934 	0.052759
38.81 	0.054357 	4912 	0.053641
38.83 	0.055499 	4919 	0.054904
38.85 	0.052321 	4912 	0.051725
38.87 	0.058033 	4911 	0.056721
38.89 	0.043700 	4897 	0.043461
38.91 	0.050377 	4903 	0.049660
38.93 	0.048603 	4938 	0.047535
38.95 	0.055307 	4918 	0.055069
38.97 	0.055567 	4931 	0.054022
38.99 	0.048815 	4937 	0.047985
39.01 	0.050020 	4918 	0.049306
39.03 	0.048034 	4934 	0.047322
39.05 	0.048731 	4925 	0.047779
39.07 	0.051584 	4924 	0.049741
39.09 	0.050985 	4923 	0.050509
39.11 	0.052930 	4931 	0.051980
39.13 	0.052407 	4923 	0.051693
39.15 	0.056765 	4915 	0.056169
39.17 	0.047195 	4937 	0.046483
39.19 	0.049014 	4917 	0.048537
39.21 	0.046232 	4910 	0.045397
39.23 	0.050964 	4925 	0.050132
39.25 	0.050996 	4922 	0.049924
39.27 	0.051120 	4910 	0.049927
39.29 	0.046317 	4901 	0.045580
39.31 	0.049959 	4884 	0.049000
39.33 	0.054147 	4931 	0.052840
39.35 	0.048430 	4935 	0.047480
39.37 	0.051532 	4929 	0.050343
39.39 	0.051735 	4929 	0.051259
39.41 	0.042791 	4931 	0.042315
39.43 	0.051490 	4933 	0.050659
39.45 	0.047310 	4925 	0.046834
39.47 	0.045094 	4923 	0.044618
39.49 	0.046827 	4933 	0.046352
39.51 	0.044882 	4924 	0.044406
39.53 	0.056267 	4923 	0.055077
39.55 	0.047977 	4919 	0.047620
39.57 	0.050071 	4933 	0.048883
39.59 	0.047638 	4912 	0.047042
39.61 	0.053626 	4923 	0.052793
39.63 	0.047338 	4922 	0.046624
39.65 	0.052984 	4926 	0.052033
39.67 	0.050682 	4913 	0.050086
39.69 	0.056550 	4916 	0.055835
39.71 	0.053524 	4895 	0.053165
39.73 	0.049104 	4908 	0.048507
39.75 	0.048701 	4928 	0.047750
39.77 	0.050253 	4935 	0.049778
39.79 	0.051360 	4926 	0.051003
39.81 	0.055815 	4927 	0.055201
39.83 	0.049250 	4934 	0.048162
39.85 	0.053176 	4927 	0.052463
39.87 	0.048528 	4925 	0.047914
39.89 	0.053912 	4934 	0.053437
39.91 	0.048354 	4922 	0.047878
39.93 	0.044156 	4937 	0.043326
39.95 	0.051475 	4915 	0.050879
39.97 	0.054383 	4928 	0.053551
39.99 	0.045418 	4932 	0.044705
40.01 	0.047377 	4918 	0.046524
40.03 	0.052354 	4928 	0.051997
40.05 	0.048810 	4917 	0.047976
40.07 	0.049766 	4923 	0.049052
40.09 	0.048820 	4916 	0.048224
40.11 	0.052278 	4916 	0.051563
40.13 	0.045752 	4896 	0.045393
40.15 	0.046407 	4913 	0.045573
40.17 	0.050325 	4928 	0.049374
40.19 	0.045648 	4929 	0.045411
40.21 	0.045187 	4935 	0.044950
40.23 	0.042376 	4932 	0.041782
40.25 	0.048374 	4920 	0.048255
40.27 	0.049625 	4937 	0.049507
40.29 	0.050538 	4927 	0.049548
40.31 	0.047580 	4939 	0.046394
40.33 	0.051906 	4932 	0.050599
40.35 	0.051433 	4919 	0.050719
40.37 	0.047474 	4929 	0.046999
40.39 	0.040560 	4931 	0.039966
40.41 	0.049137 	4925 	0.048661
40.43 	0.050386 	4922 	0.049315
40.45 	0.049463 	4933 	0.048869
40.47 	0.046564 	4918 	0.046068
40.49 	0.049127 	4926 	0.048532
40.51 	0.047135 	4922 	0.046421
40.53 	0.055330 	4916 	0.054734
40.55 	0.048900 	4908 	0.048542
40.57 	0.048262 	4890 	0.047902
40.59 	0.049220 	4937 	0.049102
40.61 	0.039514 	4935 	0.039276
40.63 	0.050101 	4930 	0.049032
40.65 	0.046790 	4937 	0.046078
40.67 	0.045620 	4932 	0.044789
40.69 	0.049625 	4937 	0.049151
40.71 	0.041768 	4932 	0.041293
40.73 	0.044458 	4926 	0.043744
40.75 	0.045427 	4931 	0.044952
40.77 	0.043126 	4939 	0.042059
40.79 	0.047522 	4924 	0.047165
40.81 	0.048168 	4941 	0.047457
40.83 	0.049716 	4928 	0.049122
40.85 	0.051787 	4924 	0.050835
40.87 	0.047890 	4928 	0.047295
40.89 	0.054553 	4931 	0.053127
40.91 	0.047126 	4923 	0.046412
40.93 	0.052493 	4934 	0.051068
40.95 	0.044576 	4913 	0.043741
40.97 	0.050366 	4924 	0.049176
40.99 	0.049350 	4924 	0.048755
41.01 	0.046621 	4912 	0.045666
41.03 	0.053211 	4905 	0.051897
41.05 	0.045178 	4936 	0.044585
41.07 	0.052130 	4930 	0.051160
41.09 	0.048998 	4939 	0.048168
41.11 	0.047822 	4935 	0.047466
41.13 	0.045989 	4936 	0.045870
41.15 	0.044728 	4941 	0.044135
41.17 	0.044386 	4934 	0.044030
41.19 	0.043205 	4930 	0.042373
41.21 	0.051853 	4937 	0.051497
41.23 	0.049200 	4939 	0.048133
41.25 	0.049260 	4933 	0.048291
41.27 	0.044413 	4931 	0.043819
41.29 	0.042817 	4928 	0.042341
41.31 	0.044395 	4933 	0.043188
41.33 	0.046182 	4937 	0.045707
41.35 	0.046375 	4938 	0.046138
41.37 	0.049553 	4924 	0.048344
41.39 	0.048855 	4933 	0.048142
41.41 	0.045067 	4926 	0.044472
41.43 	0.047880 	4929 	0.047523
41.45 	0.043753 	4914 	0.043276
41.47 	0.043443 	4926 	0.043086
41.49 	0.042314 	4892 	0.041456
41.51 	0.045951 	4940 	0.045359
41.53 	0.047330 	4944 	0.046856
41.55 	0.048024 	4935 	0.047550
41.57 	0.041490 	4941 	0.041371
41.59 	0.049666 	4933 	0.048834
41.61 	0.047244 	4953 	0.046416
41.63 	0.046375 	4938 	0.045881
41.65 	0.046865 	4929 	0.045796
41.67 	0.046356 	4940 	0.045507
41.69 	0.041237 	4947 	0.040763
41.71 	0.043575 	4934 	0.042744
41.73 	0.047407 	4936 	0.047051
41.75 	0.050923 	4929 	0.050329
41.77 	0.046145 	4941 	0.045552
41.79 	0.046319 	4944 	0.045963
41.81 	0.047812 	4936 	0.046507
41.83 	0.047281 	4928 	0.046805
41.85 	0.044948 	4939 	0.044237
41.87 	0.046403 	4935 	0.045928
41.89 	0.043989 	4933 	0.043277
41.91 	0.047002 	4936 	0.046408
41.93 	0.044607 	4932 	0.043419
41.95 	0.043805 	4931 	0.042854
41.97 	0.049654 	4914 	0.048681
41.99 	0.045260 	4905 	0.044543
42.01 	0.047956 	4942 	0.046890
42.03 	0.040089 	4939 	0.039733
42.05 	0.047456 	4952 	0.046864
42.07 	0.043346 	4937 	0.042516
42.09 	0.045675 	4948 	0.044728
42.11 	0.044894 	4945 	0.044164
42.13 	0.045096 	4945 	0.044859
42.15 	0.043337 	4938 	0.043100
42.17 	0.040057 	4918 	0.039580
42.19 	0.042176 	4908 	0.041699
42.21 	0.048357 	4901 	0.047521
42.23 	0.040270 	4892 	0.040150
42.25 	0.049499 	4889 	0.048780
42.27 	0.044727 	4874 	0.044106
42.29 	0.042978 	4863 	0.042115
42.31 	0.043872 	4855 	0.042887
42.33 	0.047166 	4834 	0.046802
42.35 	0.043200 	4838 	0.042332
42.37 	0.042650 	4830 	0.041559
42.39 	0.044963 	4804 	0.044597
42.41 	0.040383 	4804 	0.039895
42.43 	0.048205 	4792 	0.047227
42.45 	0.044389 	4776 	0.044143
42.47 	0.040714 	4765 	0.040591
42.49 	0.044701 	4765 	0.044086
42.51 	0.044065 	4743 	0.043571
42.53 	0.045685 	4728 	0.045561
42.55 	0.043118 	4708 	0.042869
42.57 	0.048837 	4730 	0.047846
42.59 	0.042504 	4729 	0.042008
42.61 	0.042693 	4708 	0.042071
42.63 	0.044595 	4709 	0.043849
42.65 	0.039488 	4685 	0.038863
42.67 	0.051025 	4684 	0.049899
42.69 	0.043004 	4674 	0.042628
42.71 	0.045250 	4663 	0.044999
42.73 	0.040948 	4640 	0.040570
42.75 	0.044401 	4617 	0.043640
42.77 	0.039783 	4600 	0.039401
42.79 	0.040157 	4582 	0.039518
42.81 	0.044936 	4562 	0.044423
42.83 	0.043651 	4536 	0.043263
42.85 	0.045053 	4528 	0.044147
42.87 	0.043343 	4499 	0.043083
42.89 	0.040179 	4480 	0.039525
42.91 	0.035233 	4456 	0.034839
42.93 	0.038686 	4446 	0.038028
42.95 	0.048687 	4416 	0.047073
42.97 	0.039764 	4401 	0.039497
42.99 	0.043786 	4385 	0.043251
43.01 	0.044465 	4363 	0.043659
43.03 	0.036464 	4333 	0.036329
43.05 	0.044393 	4325 	0.043716
43.07 	0.043063 	4296 	0.042109
43.09 	0.040392 	4283 	0.039845
43.11 	0.042538 	4255 	0.041414
43.13 	0.043899 	4237 	0.043208
43.15 	0.043747 	4206 	0.043468
43.17 	0.042594 	4179 	0.042173
43.19 	0.044111 	4194 	0.043552
43.21 	0.046261 	4172 	0.045418
43.23 	0.042128 	4154 	0.041705
43.25 	0.044498 	4135 	0.043790
43.27 	0.043605 	4105 	0.042749
43.29 	0.041707 	4100 	0.041279
43.31 	0.045109 	4079 	0.044678
43.33 	0.041965 	4051 	0.041242
43.35 	0.042411 	4032 	0.041830
43.37 	0.037858 	4015 	0.037129
43.39 	0.046227 	4002 	0.045788
43.41 	0.042800 	3972 	0.042505
43.43 	0.042677 	3960 	0.042381
43.45 	0.042186 	3935 	0.041441
43.47 	0.045397 	3921 	0.044500
43.49 	0.042853 	3897 	0.042703
43.51 	0.039721 	3877 	0.039268
43.53 	0.045560 	3863 	0.045257
43.55 	0.036100 	2964 	0.035902
43.57 	0.042449 	2238 	0.042187
43.59 	0.036082 	1746 	0.036082
43.61 	0.043671 	1351 	0.043238
43.63 	0.042957 	1001 	0.042372
43.65 	0.024745 	687 	0.024745
43.67 	0.047809 	502 	0.047809
43.69 	0.043597 	367 	0.043597
43.71 	0.037657 	239 	0.037657
43.73 	0.025000 	120 	0.025000
43.75 	0.000000 	16 	0.000000