File: Example_Data/25SC_s1_0041.000.dat
#F C:\frames\spec\25SC_s1_0041.000
#C title =s:41 frm:0 25SC_s1
#C wavelength =0.15406

#S 1  fr_average C:\frames\spec\25SC_s1_0041.000 C:\win32app\speccom\mask.axs chi 0 180 0 360 0.02
#C 2 theta =0.000000 to 180 deg
#C   q   =0.000000 to 81.568 nm^-1
#C  chi  =0.000000 to 360 deg
#C collumns:
#C  1 position (2theta or chi in degrees)
#C  2 average intensity (sum of all counts in the region divided with number of pixels)
#C  3 Number of pixels in region)
#C  4 error (sum of sqrt(intensity) for all pixels divided by number)
#N 4
#L TTh  Int  N_pix  Err
32.99 	0.049180 	61 	0.049180
33.01 	0.081329 	873 	0.080658
33.03 	0.066858 	1391 	0.066437
33.05 	0.063176 	1757 	0.063176
33.07 	0.056585 	2050 	0.056300
33.09 	0.063911 	2347 	0.062913
33.11 	0.059325 	2579 	0.057508
33.13 	0.056928 	2793 	0.056089
33.15 	0.053685 	2999 	0.052513
33.17 	0.054358 	3201 	0.053809
33.19 	0.057750 	3342 	0.057224
33.21 	0.060827 	3436 	0.060656
33.23 	0.056202 	3523 	0.055204
33.25 	0.054264 	3612 	0.052804
33.27 	0.059229 	3630 	0.058906
33.29 	0.066338 	3648 	0.064893
33.31 	0.062842 	3660 	0.061881
33.33 	0.059957 	3686 	0.059003
33.35 	0.052247 	3694 	0.051454
33.37 	0.060312 	3714 	0.059524
33.39 	0.059802 	3729 	0.058676
33.41 	0.064973 	3740 	0.063381
33.43 	0.061686 	3761 	0.059947
33.45 	0.060429 	3773 	0.059498
33.47 	0.057925 	3798 	0.056691
33.49 	0.060646 	3809 	0.059877
33.51 	0.055046 	3815 	0.054432
33.53 	0.060401 	3841 	0.059181
33.55 	0.054645 	3843 	0.053578
33.57 	0.063451 	3877 	0.062091
33.59 	0.062371 	3880 	0.060559
33.61 	0.069327 	3909 	0.068578
33.63 	0.060475 	3919 	0.059727
33.65 	0.056220 	3931 	0.055028
33.67 	0.057916 	3954 	0.057323
33.69 	0.056666 	3953 	0.056518
33.71 	0.067421 	3975 	0.066390
33.73 	0.059690 	4004 	0.058813
33.75 	0.062266 	3999 	0.060947
33.77 	0.056149 	4025 	0.055421
33.79 	0.061618 	4041 	0.060314
33.81 	0.064141 	4038 	0.062980
33.83 	0.057037 	4050 	0.056145
33.85 	0.064406 	4099 	0.063548
33.87 	0.055947 	4111 	0.054808
33.89 	0.060180 	4121 	0.059327
33.91 	0.061702 	4149 	0.060572
33.93 	0.060467 	4151 	0.059338
33.95 	0.052380 	4181 	0.051096
33.97 	0.065632 	4190 	0.063955
33.99 	0.061190 	4200 	0.060493
34.01 	0.059103 	4213 	0.057573
34.03 	0.058200 	4244 	0.056543
34.05 	0.057385 	4252 	0.056420
34.07 	0.058575 	4268 	0.057889
34.09 	0.059963 	4286 	0.059393
34.11 	0.052069 	4302 	0.051116
34.13 	0.056871 	4308 	0.055919
34.15 	0.054953 	4331 	0.054141
34.17 	0.049195 	4350 	0.047983
34.19 	0.056167 	4362 	0.055093
34.21 	0.061771 	4371 	0.061235
34.23 	0.055543 	4393 	0.055143
34.25 	0.055404 	4404 	0.054340
34.27 	0.058118 	4422 	0.056507
34.29 	0.055017 	4435 	0.054224
34.31 	0.065725 	4458 	0.064673
34.33 	0.060166 	4471 	0.059248
34.35 	0.057538 	4484 	0.056341
34.37 	0.060788 	4491 	0.059745
34.39 	0.063305 	4502 	0.061853
34.41 	0.065842 	4526 	0.064548
34.43 	0.056620 	4539 	0.055846
34.45 	0.052922 	4535 	0.051867
34.47 	0.058798 	4592 	0.056694
34.49 	0.059169 	4597 	0.058404
34.51 	0.063830 	4606 	0.062685
34.53 	0.055137 	4643 	0.053981
34.55 	0.063321 	4643 	0.062438
34.57 	0.058155 	4660 	0.057526
34.59 	0.054545 	4675 	0.054295
34.61 	0.059400 	4697 	0.058527
34.63 	0.051805 	4710 	0.050810
34.65 	0.053590 	4721 	0.052701
34.67 	0.049989 	4741 	0.049372
34.69 	0.057636 	4754 	0.056773
34.71 	0.056232 	4766 	0.055125
34.73 	0.055567 	4787 	0.054711
34.75 	0.056780 	4808 	0.055664
34.77 	0.054172 	4818 	0.053078
34.79 	0.057836 	4824 	0.056986
34.81 	0.059649 	4845 	0.058561
34.83 	0.058001 	4862 	0.056916
34.85 	0.057507 	4869 	0.056544
34.87 	0.062654 	4868 	0.061932
34.89 	0.059197 	4882 	0.058717
34.91 	0.058583 	4882 	0.057363
34.93 	0.058583 	4899 	0.057986
34.95 	0.060123 	4890 	0.058685
34.97 	0.058548 	4902 	0.057950
34.99 	0.053094 	4897 	0.052017
35.01 	0.058298 	4923 	0.057227
35.03 	0.055230 	4943 	0.054282
35.05 	0.058621 	4947 	0.057793
35.07 	0.055263 	4940 	0.054670
35.09 	0.061377 	4953 	0.059839
35.11 	0.054376 	4947 	0.053548
35.13 	0.060912 	4958 	0.059376
35.15 	0.055297 	4937 	0.054091
35.17 	0.059240 	4946 	0.058628
35.19 	0.055038 	4942 	0.054209
35.21 	0.060870 	4945 	0.059784
35.23 	0.062690 	4945 	0.061387
35.25 	0.053004 	4943 	0.052274
35.27 	0.056993 	4948 	0.056401
35.29 	0.053994 	4945 	0.052691
35.31 	0.056761 	4933 	0.055692
35.33 	0.060894 	4943 	0.059591
35.35 	0.060299 	4942 	0.059588
35.37 	0.054464 	4939 	0.053990
35.39 	0.061476 	4945 	0.060410
35.41 	0.057044 	4926 	0.055598
35.43 	0.057571 	4933 	0.056621
35.45 	0.058538 	4937 	0.058182
35.47 	0.054350 	4931 	0.053281
35.49 	0.055193 	4910 	0.054100
35.51 	0.060089 	4926 	0.058900
35.53 	0.061427 	4949 	0.060598
35.55 	0.053387 	4945 	0.052440
35.57 	0.060409 	4933 	0.059460
35.59 	0.055410 	4945 	0.054936
35.61 	0.059692 	4942 	0.059337
35.63 	0.057455 	4943 	0.056744
35.65 	0.062892 	4945 	0.062063
35.67 	0.053420 	4942 	0.052590
35.69 	0.057218 	4946 	0.055896
35.71 	0.056715 	4937 	0.055528
35.73 	0.058549 	4936 	0.057837
35.75 	0.054756 	4931 	0.054043
35.77 	0.057766 	4951 	0.056800
35.79 	0.058800 	4932 	0.057612
35.81 	0.063045 	4933 	0.061857
35.83 	0.054387 	4946 	0.053558
35.85 	0.059980 	4935 	0.058773
35.87 	0.057485 	4923 	0.056771
35.89 	0.056546 	4934 	0.055715
35.91 	0.055206 	4927 	0.054255
35.93 	0.055612 	4927 	0.054780
35.95 	0.054708 	4917 	0.053259
35.97 	0.056800 	4912 	0.055130
35.99 	0.052035 	4939 	0.051086
36.01 	0.056795 	4930 	0.055726
36.03 	0.057657 	4943 	0.056591
36.05 	0.060465 	4945 	0.059517
36.07 	0.057502 	4939 	0.056553
36.09 	0.056275 	4940 	0.055445
36.11 	0.051532 	4929 	0.050700
36.13 	0.056657 	4942 	0.055571
36.15 	0.050820 	4939 	0.050227
36.17 	0.062944 	4925 	0.061993
36.19 	0.056478 	4940 	0.055529
36.21 	0.058835 	4929 	0.057647
36.23 	0.055117 	4935 	0.054286
36.25 	0.055252 	4941 	0.054304
36.27 	0.060305 	4925 	0.059234
36.29 	0.050497 	4931 	0.049784
36.31 	0.064529 	4928 	0.063697
36.33 	0.049868 	4933 	0.049156
36.35 	0.059038 	4929 	0.058088
36.37 	0.057079 	4923 	0.056365
36.39 	0.056289 	4921 	0.055337
36.41 	0.049632 	4896 	0.049632
36.43 	0.061485 	4928 	0.060416
36.45 	0.058621 	4930 	0.057908
36.47 	0.060373 	4936 	0.059423
36.49 	0.059288 	4942 	0.058458
36.51 	0.059193 	4933 	0.058124
36.53 	0.058871 	4943 	0.057667
36.55 	0.054597 	4927 	0.053408
36.57 	0.057154 	4934 	0.055967
36.59 	0.057704 	4939 	0.056637
36.61 	0.059623 	4931 	0.058316
36.63 	0.053336 	4931 	0.052267
36.65 	0.060624 	4932 	0.059655
36.67 	0.058012 	4930 	0.057062
36.69 	0.054778 	4929 	0.053708
36.71 	0.062182 	4921 	0.060754
36.73 	0.057259 	4925 	0.055812
36.75 	0.047532 	4944 	0.047058
36.77 	0.058955 	4919 	0.057883
36.79 	0.057712 	4921 	0.056502
36.81 	0.055533 	4916 	0.055056
36.83 	0.058393 	4915 	0.057678
36.85 	0.056554 	4898 	0.055477
36.87 	0.058455 	4944 	0.057270
36.89 	0.057364 	4916 	0.056291
36.91 	0.054442 	4941 	0.054087
36.93 	0.055578 	4930 	0.054865
36.95 	0.051287 	4933 	0.050694
36.97 	0.055533 	4934 	0.054702
36.99 	0.058359 	4935 	0.057765
37.01 	0.054531 	4933 	0.053462
37.03 	0.057880 	4924 	0.057047
37.05 	0.052365 	4927 	0.051275
37.07 	0.054306 	4935 	0.053356
37.09 	0.054180 	4928 	0.053348
37.11 	0.056738 	4935 	0.056500
37.13 	0.055037 	4924 	0.053609
37.15 	0.056427 	4909 	0.056069
37.17 	0.058979 	4934 	0.057910
37.19 	0.051371 	4925 	0.050776
37.21 	0.060199 	4917 	0.059365
37.23 	0.061000 	4918 	0.059928
37.25 	0.053960 	4911 	0.053126
37.27 	0.055374 	4894 	0.054656
37.29 	0.057809 	4930 	0.057215
37.31 	0.052077 	4935 	0.051127
37.33 	0.053785 	4927 	0.052477
37.35 	0.053058 	4938 	0.052208
37.37 	0.056424 	4927 	0.055235
37.39 	0.058000 	4931 	0.057387
37.41 	0.051714 	4931 	0.050644
37.43 	0.057786 	4932 	0.057073
37.45 	0.058895 	4924 	0.058062
37.47 	0.056807 	4929 	0.055975
37.49 	0.048954 	4923 	0.048478
37.51 	0.062031 	4933 	0.060962
37.53 	0.057532 	4919 	0.056341
37.55 	0.054970 	4930 	0.054257
37.57 	0.052183 	4925 	0.051588
37.59 	0.055951 	4915 	0.055236
37.61 	0.060544 	4922 	0.060049
37.63 	0.059768 	4919 	0.059173
37.65 	0.056730 	4918 	0.055539
37.67 	0.055261 	4904 	0.054286
37.69 	0.055941 	4898 	0.055324
37.71 	0.054981 	4929 	0.054010
37.73 	0.054372 	4929 	0.053421
37.75 	0.056275 	4940 	0.054714
37.77 	0.051626 	4920 	0.051150
37.79 	0.058012 	4930 	0.057042
37.81 	0.059396 	4933 	0.058802
37.83 	0.059350 	4920 	0.058159
37.85 	0.056887 	4922 	0.056054
37.87 	0.059931 	4939 	0.058508
37.89 	0.050355 	4925 	0.049404
37.91 	0.056795 	4930 	0.056201
37.93 	0.052450 	4919 	0.051259
37.95 	0.055273 	4921 	0.054678
37.97 	0.055995 	4929 	0.055163
37.99 	0.057410 	4912 	0.056198
38.01 	0.053571 	4928 	0.053096
38.03 	0.056631 	4909 	0.055676
38.05 	0.058274 	4925 	0.057085
38.07 	0.055612 	4909 	0.054777
38.09 	0.061296 	4878 	0.059955
38.11 	0.058764 	4935 	0.058052
38.13 	0.060158 	4937 	0.058971
38.15 	0.056324 	4918 	0.055609
38.17 	0.064097 	4930 	0.063028
38.19 	0.059026 	4930 	0.057719
38.21 	0.059517 	4923 	0.058327
38.23 	0.067841 	4938 	0.067248
38.25 	0.064063 	4917 	0.062991
38.27 	0.066531 	4930 	0.065343
38.29 	0.068440 	4924 	0.067370
38.31 	0.079562 	4927 	0.077501
38.33 	0.076361 	4924 	0.074338
38.35 	0.078125 	4928 	0.075629
38.37 	0.081032 	4924 	0.079009
38.39 	0.078835 	4909 	0.077045
38.41 	0.079626 	4923 	0.078079
38.43 	0.082587 	4916 	0.080800
38.45 	0.081334 	4918 	0.078952
38.47 	0.082331 	4907 	0.080899
38.49 	0.082428 	4877 	0.080866
38.51 	0.087794 	4932 	0.085379
38.53 	0.081964 	4929 	0.080181
38.55 	0.079417 	4936 	0.077617
38.57 	0.073736 	4923 	0.072427
38.59 	0.076970 	4924 	0.074710
38.61 	0.075162 	4936 	0.072789
38.63 	0.079001 	4924 	0.077554
38.65 	0.070354 	4918 	0.068924
38.67 	0.070083 	4937 	0.068897
38.69 	0.072125 	4922 	0.070201
38.71 	0.066816 	4924 	0.065983
38.73 	0.063644 	4918 	0.062334
38.75 	0.060483 	4927 	0.059156
38.77 	0.056470 	4923 	0.055022
38.79 	0.062627 	4934 	0.061914
38.81 	0.057003 	4912 	0.055811
38.83 	0.053263 	4919 	0.052429
38.85 	0.057003 	4912 	0.056049
38.87 	0.054979 	4911 	0.053786
38.89 	0.048193 	4897 	0.047834
38.91 	0.054049 	4903 	0.053451
38.93 	0.055488 	4938 	0.054065
38.95 	0.051647 	4918 	0.050813
38.97 	0.051511 	4931 	0.050798
38.99 	0.049828 	4937 	0.049235
39.01 	0.048800 	4918 	0.047490
39.03 	0.049453 	4934 	0.048384
39.05 	0.051168 	4925 	0.050930
39.07 	0.050366 	4924 	0.050128
39.09 	0.056267 	4923 	0.054601
39.11 	0.044007 	4931 	0.043295
39.13 	0.045094 	4923 	0.043528
39.15 	0.046185 	4915 	0.045112
39.17 	0.045979 	4937 	0.045623
39.19 	0.053081 	4917 	0.052247
39.21 	0.046436 	4910 	0.045959
39.23 	0.045482 	4925 	0.044888
39.25 	0.044697 	4922 	0.044459
39.27 	0.049084 	4910 	0.048726
39.29 	0.043256 	4901 	0.042898
39.31 	0.045250 	4884 	0.044650
39.33 	0.051511 	4931 	0.050679
39.35 	0.048024 	4935 	0.047550
39.37 	0.046865 	4929 	0.046271
39.39 	0.050517 	4929 	0.049329
39.41 	0.048266 	4931 	0.047434
39.43 	0.042976 	4933 	0.042738
39.45 	0.047513 	4925 	0.047156
39.47 	0.045094 	4923 	0.044500
39.49 	0.050679 	4933 	0.050204
39.51 	0.044273 	4924 	0.044035
39.53 	0.047126 	4923 	0.046650
39.55 	0.040659 	4919 	0.040063
39.57 	0.044395 	4933 	0.043920
39.59 	0.043160 	4912 	0.042086
39.61 	0.045094 	4923 	0.044856
39.63 	0.048151 	4922 	0.047556
39.65 	0.045270 	4926 	0.044794
39.67 	0.048850 	4913 	0.048612
39.69 	0.041294 	4916 	0.040936
39.71 	0.048417 	4895 	0.047938
39.73 	0.051956 	4908 	0.051001
39.75 	0.045860 	4928 	0.045147
39.77 	0.051266 	4935 	0.050910
39.79 	0.044052 	4926 	0.043101
39.81 	0.042419 	4927 	0.041825
39.83 	0.043981 	4934 	0.043506
39.85 	0.043434 	4927 	0.042602
39.87 	0.049137 	4925 	0.048661
39.89 	0.040332 	4934 	0.039601
39.91 	0.040431 	4922 	0.039836
39.93 	0.042131 	4937 	0.041300
39.95 	0.049034 	4915 	0.048557
39.97 	0.041802 	4928 	0.041326
39.99 	0.044809 	4932 	0.044097
40.01 	0.039650 	4918 	0.039174
40.03 	0.043425 	4928 	0.042950
40.05 	0.047590 	4917 	0.046975
40.07 	0.043063 	4923 	0.042111
40.09 	0.044752 	4916 	0.044394
40.11 	0.045362 	4916 	0.044528
40.13 	0.040645 	4896 	0.039928
40.15 	0.047629 	4913 	0.047271
40.17 	0.044440 	4928 	0.044083
40.19 	0.039968 	4929 	0.039611
40.21 	0.041540 	4935 	0.041421
40.23 	0.039132 	4932 	0.038776
40.25 	0.037398 	4920 	0.036803
40.27 	0.040510 	4937 	0.040392
40.29 	0.037751 	4927 	0.037394
40.31 	0.043126 	4939 	0.042770
40.33 	0.045620 	4932 	0.045264
40.35 	0.046148 	4919 	0.045671
40.37 	0.040373 	4929 	0.039660
40.39 	0.042993 	4931 	0.042637
40.41 	0.037563 	4925 	0.037207
40.43 	0.044088 	4922 	0.043136
40.45 	0.037300 	4933 	0.036944
40.47 	0.041684 	4918 	0.040850
40.49 	0.042225 	4926 	0.041630
40.51 	0.043885 	4922 	0.043528
40.53 	0.041090 	4916 	0.040375
40.55 	0.044214 	4908 	0.043736
40.57 	0.047444 	4890 	0.046605
40.59 	0.039903 	4937 	0.039310
40.61 	0.041743 	4935 	0.041030
40.63 	0.041785 	4930 	0.041547
40.65 	0.044561 	4937 	0.043731
40.67 	0.041768 	4932 	0.041174
40.69 	0.042941 	4937 	0.042941
40.71 	0.043796 	4932 	0.043202
40.73 	0.043849 	4926 	0.043611
40.75 	0.045224 	4931 	0.044017
40.77 	0.046366 	4939 	0.045417
40.79 	0.039399 	4924 	0.039042
40.81 	0.038859 	4941 	0.038621
40.83 	0.041599 	4928 	0.040886
40.85 	0.043054 	4924 	0.042579
40.87 	0.044440 	4928 	0.043964
40.89 	0.040763 	4931 	0.040287
40.91 	0.044079 	4923 	0.043484
40.93 	0.040940 	4934 	0.040466
40.95 	0.042337 	4913 	0.041721
40.97 	0.041633 	4924 	0.041038
40.99 	0.040008 	4924 	0.039513
41.01 	0.036034 	4912 	0.035676
41.03 	0.046891 	4905 	0.046652
41.05 	0.041532 	4936 	0.041294
41.07 	0.042191 	4930 	0.041715
41.09 	0.039887 	4939 	0.039531
41.11 	0.044174 	4935 	0.043462
41.13 	0.039506 	4936 	0.038912
41.15 	0.042704 	4941 	0.042467
41.17 	0.038711 	4934 	0.037999
41.19 	0.041379 	4930 	0.040666
41.21 	0.042333 	4937 	0.041503
41.23 	0.040899 	4939 	0.040780
41.25 	0.038313 	4933 	0.038076
41.27 	0.041979 	4931 	0.041979
41.29 	0.037744 	4928 	0.037149
41.31 	0.044395 	4933 	0.043564
41.33 	0.041523 	4937 	0.040811
41.35 	0.042730 	4938 	0.042255
41.37 	0.046507 	4924 	0.045912
41.39 	0.044395 	4933 	0.043564
41.41 	0.045067 	4926 	0.044116
41.43 	0.043011 	4929 	0.042892
41.45 	0.038055 	4914 	0.037816
41.47 	0.043849 	4926 	0.043254
41.49 	0.040065 	4892 	0.039946
41.51 	0.040486 	4940 	0.040012
41.53 	0.040858 	4944 	0.040147
41.55 	0.041135 	4935 	0.040660
41.57 	0.040275 	4941 	0.039682
41.59 	0.032840 	4933 	0.032484
41.61 	0.047850 	4953 	0.047022
41.63 	0.039085 	4938 	0.038492
41.65 	0.038344 	4929 	0.037750
41.67 	0.041700 	4940 	0.041226
41.69 	0.040226 	4947 	0.039378
41.71 	0.041954 	4934 	0.041123
41.73 	0.041126 	4936 	0.040652
41.75 	0.037127 	4929 	0.036771
41.77 	0.038049 	4941 	0.037693
41.79 	0.046117 	4944 	0.045761
41.81 	0.033833 	4936 	0.033240
41.83 	0.037744 	4928 	0.036793
41.85 	0.036445 	4939 	0.036089
41.87 	0.045998 	4935 	0.045523
41.89 	0.036084 	4933 	0.035846
41.91 	0.044773 	4936 	0.044417
41.93 	0.037916 	4932 	0.037084
41.95 	0.042182 	4931 	0.041826
41.97 	0.037851 	4914 	0.037136
41.99 	0.044241 	4905 	0.043643
42.01 	0.036220 	4942 	0.035865
42.03 	0.044138 	4939 	0.043783
42.05 	0.036955 	4952 	0.036462
42.07 	0.042536 	4937 	0.042180
42.09 	0.039612 	4948 	0.038902
42.11 	0.040849 	4945 	0.040376
42.13 	0.042063 	4945 	0.041826
42.15 	0.037667 	4938 	0.037193
42.17 	0.041074 	4918 	0.040597
42.19 	0.037490 	4908 	0.037251
42.21 	0.035911 	4901 	0.035294
42.23 	0.038635 	4892 	0.038515
42.25 	0.045204 	4889 	0.044485
42.27 	0.030776 	4874 	0.030655
42.29 	0.037014 	4863 	0.036272
42.31 	0.037281 	4855 	0.036557
42.33 	0.036202 	4834 	0.035596
42.35 	0.046300 	4838 	0.045695
42.37 	0.039959 	4830 	0.039352
42.39 	0.042048 	4804 	0.041682
42.41 	0.040383 	4804 	0.040261
42.43 	0.039649 	4792 	0.039160
42.45 	0.043342 	4776 	0.042728
42.47 	0.036726 	4765 	0.036480
42.49 	0.037985 	4765 	0.037248
42.51 	0.038162 	4743 	0.038038
42.53 	0.035956 	4728 	0.035956
42.55 	0.041419 	4708 	0.040299
42.57 	0.039323 	4730 	0.039076
42.59 	0.037217 	4729 	0.036598
42.61 	0.031648 	4708 	0.031399
42.63 	0.037163 	4709 	0.036292
42.65 	0.041836 	4685 	0.041461
42.67 	0.036507 	4684 	0.036257
42.69 	0.037227 	4674 	0.036455
42.71 	0.038816 	4663 	0.038188
42.73 	0.035345 	4640 	0.034840
42.75 	0.034655 	4617 	0.034147
42.77 	0.038261 	4600 	0.037624
42.79 	0.037756 	4582 	0.037245
42.81 	0.040991 	4562 	0.040734
42.83 	0.037037 	4536 	0.036391
42.85 	0.036219 	4528 	0.035572
42.87 	0.037564 	4499 	0.037434
42.89 	0.036384 	4480 	0.035861
42.91 	0.038600 	4456 	0.038074
42.93 	0.044085 	4446 	0.043009
42.95 	0.037364 	4416 	0.036701
42.97 	0.037719 	4401 	0.037319
42.99 	0.037628 	4385 	0.037228
43.01 	0.039193 	4363 	0.039059
43.03 	0.039234 	4333 	0.038828
43.05 	0.040231 	4325 	0.039689
43.07 	0.039804 	4296 	0.039123
43.09 	0.038291 	4283 	0.037881
43.11 	0.037368 	4255 	0.036817
43.13 	0.043663 	4237 	0.043110
43.15 	0.037565 	4206 	0.037148
43.17 	0.037808 	4179 	0.037107
43.19 	0.036719 	4194 	0.036160
43.21 	0.033797 	4172 	0.033656
43.23 	0.035147 	4154 	0.034865
43.25 	0.035308 	4135 	0.035167
43.27 	0.032400 	4105 	0.031948
43.29 	0.039268 	4100 	0.038697
43.31 	0.037509 	4079 	0.037509
43.33 	0.034559 	4051 	0.034415
43.35 	0.037698 	4032 	0.036972
43.37 	0.043337 	4015 	0.043046
43.39 	0.035482 	4002 	0.035043
43.41 	0.039527 	3972 	0.039527
43.43 	0.035859 	3960 	0.035267
43.45 	0.033799 	3935 	0.033650
43.47 	0.036980 	3921 	0.036532
43.49 	0.033872 	3897 	0.033722
43.51 	0.038690 	3877 	0.038388
43.53 	0.038830 	3863 	0.038072
43.55 	0.040486 	2964 	0.040091
43.57 	0.027256 	2238 	0.026995
43.59 	0.048110 	1746 	0.048110
43.61 	0.033309 	1351 	0.032875
43.63 	0.025974 	1001 	0.025389
43.65 	0.023290 	687 	0.023290
43.67 	0.037849 	502 	0.036682
43.69 	0.043597 	367 	0.042001
43.71 	0.025105 	239 	0.025105
43.73 	0.016667 	120 	0.016667
43.75 	0.125000 	16 	0.125000