File: Example_Data/25SC_s1_0010.003.dat
#F C:\frames\spec\25SC_s1_0010.003
#C title =s:10 frm:3 25SC_s1
#C wavelength =0.15406

#S 1  fr_average C:\frames\spec\25SC_s1_0010.003 C:\win32app\speccom\mask.axs chi 0 180 0 360 0.02
#C 2 theta =0.000000 to 180 deg
#C   q   =0.000000 to 81.568 nm^-1
#C  chi  =0.000000 to 360 deg
#C collumns:
#C  1 position (2theta or chi in degrees)
#C  2 average intensity (sum of all counts in the region divided with number of pixels)
#C  3 Number of pixels in region)
#C  4 error (sum of sqrt(intensity) for all pixels divided by number)
#N 4
#L TTh  Int  N_pix  Err
32.99 	0.065574 	61 	0.065574
33.01 	0.046964 	873 	0.046964
33.03 	0.061826 	1391 	0.061405
33.05 	0.059192 	1757 	0.058858
33.07 	0.069756 	2050 	0.068327
33.09 	0.049851 	2347 	0.049601
33.11 	0.054672 	2579 	0.053991
33.13 	0.059076 	2793 	0.057818
33.15 	0.059687 	2999 	0.057929
33.17 	0.058419 	3201 	0.057138
33.19 	0.058648 	3342 	0.057567
33.21 	0.065483 	3436 	0.064290
33.23 	0.053080 	3523 	0.051916
33.25 	0.056755 	3612 	0.055944
33.27 	0.063912 	3630 	0.062944
33.29 	0.055099 	3648 	0.053814
33.31 	0.055738 	3660 	0.054137
33.33 	0.058329 	3686 	0.057693
33.35 	0.052788 	3694 	0.052471
33.37 	0.058428 	3714 	0.057797
33.39 	0.057388 	3729 	0.056760
33.41 	0.066578 	3740 	0.065325
33.43 	0.056900 	3761 	0.055654
33.45 	0.056719 	3773 	0.055787
33.47 	0.062138 	3798 	0.060750
33.49 	0.054345 	3809 	0.053705
33.51 	0.063434 	3815 	0.062359
33.53 	0.058578 	3841 	0.057511
33.55 	0.059589 	3843 	0.058522
33.57 	0.066288 	3877 	0.065231
33.59 	0.060309 	3880 	0.059705
33.61 	0.056792 	3909 	0.054994
33.63 	0.067109 	3919 	0.065913
33.65 	0.059527 	3931 	0.058335
33.67 	0.059686 	3954 	0.058797
33.69 	0.057425 	3953 	0.056387
33.71 	0.062893 	3975 	0.061567
33.73 	0.054446 	4004 	0.053568
33.75 	0.060515 	3999 	0.059343
33.77 	0.059130 	4025 	0.058548
33.79 	0.059886 	4041 	0.058244
33.81 	0.063150 	4038 	0.061095
33.83 	0.064198 	4050 	0.062751
33.85 	0.067333 	4099 	0.065904
33.87 	0.069813 	4111 	0.067960
33.89 	0.058724 	4121 	0.057255
33.91 	0.056881 	4149 	0.056034
33.93 	0.059022 	4151 	0.058034
33.95 	0.062664 	4181 	0.061824
33.97 	0.057757 	4190 	0.057477
33.99 	0.057857 	4200 	0.056462
34.01 	0.057679 	4213 	0.056705
34.03 	0.057257 	4244 	0.056291
34.05 	0.058090 	4252 	0.057126
34.07 	0.057873 	4268 	0.056912
34.09 	0.062996 	4286 	0.062176
34.11 	0.061599 	4302 	0.059807
34.13 	0.057335 	4308 	0.056247
34.15 	0.064188 	4331 	0.063242
34.17 	0.058621 	4350 	0.057409
34.19 	0.061210 	4362 	0.059599
34.21 	0.058568 	4371 	0.057764
34.23 	0.058047 	4393 	0.057092
34.25 	0.063351 	4404 	0.062287
34.27 	0.055405 	4422 	0.055007
34.29 	0.062232 	4435 	0.060779
34.31 	0.057649 	4458 	0.057124
34.33 	0.060389 	4471 	0.059450
34.35 	0.064451 	4484 	0.063145
34.37 	0.061902 	4491 	0.060728
34.39 	0.062639 	4502 	0.061728
34.41 	0.061202 	4526 	0.060425
34.43 	0.063450 	4539 	0.062418
34.45 	0.054906 	4535 	0.054131
34.47 	0.056402 	4592 	0.056147
34.49 	0.056124 	4597 	0.055486
34.51 	0.060356 	4606 	0.059466
34.53 	0.054275 	4643 	0.053771
34.55 	0.064183 	4643 	0.062669
34.57 	0.057940 	4660 	0.057186
34.59 	0.056257 	4675 	0.055380
34.61 	0.061954 	4697 	0.061206
34.63 	0.060510 	4710 	0.059494
34.65 	0.057191 	4721 	0.056199
34.67 	0.063700 	4741 	0.062464
34.69 	0.056584 	4754 	0.055968
34.71 	0.059169 	4766 	0.058677
34.73 	0.057865 	4787 	0.057253
34.75 	0.052413 	4808 	0.051560
34.77 	0.055210 	4818 	0.053386
34.79 	0.059080 	4824 	0.057724
34.81 	0.056553 	4845 	0.056070
34.83 	0.063554 	4862 	0.062711
34.85 	0.058944 	4869 	0.057741
34.87 	0.061832 	4868 	0.060509
34.89 	0.069234 	4882 	0.068634
34.91 	0.056944 	4882 	0.056464
34.93 	0.063278 	4899 	0.062302
34.95 	0.054397 	4890 	0.053199
34.97 	0.059772 	4902 	0.058816
34.99 	0.059424 	4897 	0.058587
35.01 	0.057079 	4923 	0.056484
35.03 	0.062715 	4943 	0.061767
35.05 	0.057409 	4947 	0.056461
35.07 	0.059919 	4940 	0.059563
35.09 	0.058954 	4953 	0.058245
35.11 	0.060441 	4947 	0.058546
35.13 	0.062929 	4958 	0.061629
35.15 	0.054284 	4937 	0.053809
35.17 	0.063890 	4946 	0.062824
35.19 	0.057264 	4942 	0.056553
35.21 	0.059252 	4945 	0.058304
35.23 	0.067341 	4945 	0.066748
35.25 	0.065547 	4943 	0.064718
35.27 	0.058812 	4948 	0.057746
35.29 	0.063498 	4945 	0.062669
35.31 	0.054733 	4933 	0.054140
35.33 	0.058264 	4943 	0.056961
35.35 	0.064144 	4942 	0.062248
35.37 	0.058311 	4939 	0.057600
35.39 	0.057027 	4945 	0.055843
35.41 	0.060901 	4926 	0.059831
35.43 	0.060815 	4933 	0.059865
35.45 	0.060563 	4937 	0.059120
35.47 	0.062868 	4931 	0.061660
35.49 	0.060489 	4910 	0.059276
35.51 	0.065570 	4926 	0.064500
35.53 	0.056577 	4949 	0.055867
35.55 	0.058443 	4945 	0.057495
35.57 	0.066491 	4933 	0.064947
35.59 	0.061678 	4945 	0.060119
35.61 	0.054431 	4942 	0.053602
35.63 	0.060085 	4943 	0.058900
35.65 	0.057027 	4945 	0.056080
35.67 	0.061918 	4942 	0.060713
35.69 	0.061059 	4946 	0.060112
35.71 	0.057525 	4937 	0.056694
35.73 	0.057334 	4936 	0.056622
35.75 	0.065098 	4931 	0.063534
35.77 	0.057362 	4951 	0.056061
35.79 	0.057583 	4932 	0.055901
35.81 	0.057369 	4933 	0.056656
35.83 	0.056814 	4946 	0.055965
35.85 	0.063222 	4935 	0.061560
35.87 	0.056267 	4923 	0.055672
35.89 	0.059587 	4934 	0.058399
35.91 	0.060889 	4927 	0.059581
35.93 	0.057845 	4927 	0.056616
35.95 	0.059182 	4917 	0.057733
35.97 	0.058021 	4912 	0.057067
35.99 	0.057906 	4939 	0.056720
36.01 	0.058621 	4930 	0.058264
36.03 	0.056646 	4943 	0.055441
36.05 	0.061881 	4945 	0.060440
36.07 	0.061753 	4939 	0.060567
36.09 	0.060324 	4940 	0.059237
36.11 	0.065733 	4929 	0.064525
36.13 	0.058276 	4942 	0.057565
36.15 	0.065195 	4939 	0.063990
36.17 	0.054213 	4925 	0.053381
36.19 	0.053846 	4940 	0.052641
36.21 	0.058430 	4929 	0.056865
36.23 	0.059372 	4935 	0.058778
36.25 	0.055859 	4941 	0.054792
36.27 	0.058680 	4925 	0.057610
36.29 	0.059217 	4931 	0.058267
36.31 	0.061485 	4928 	0.061010
36.33 	0.061829 	4933 	0.060879
36.35 	0.055386 	4929 	0.054317
36.37 	0.063579 	4923 	0.062389
36.39 	0.057305 	4921 	0.056353
36.41 	0.058824 	4896 	0.058106
36.43 	0.057021 	4928 	0.055951
36.45 	0.060041 	4930 	0.059090
36.47 	0.058955 	4936 	0.057768
36.49 	0.049980 	4942 	0.049150
36.51 	0.054531 	4933 	0.053818
36.53 	0.062715 	4943 	0.061767
36.55 	0.059874 	4927 	0.058566
36.57 	0.059992 	4934 	0.059042
36.59 	0.061146 	4939 	0.060079
36.61 	0.058000 	4931 	0.057525
36.63 	0.061448 	4931 	0.059646
36.65 	0.054542 	4932 	0.053829
36.67 	0.055172 	4930 	0.054459
36.69 	0.056604 	4929 	0.055534
36.71 	0.057509 	4921 	0.056556
36.73 	0.062944 	4925 	0.062349
36.75 	0.060073 	4944 	0.059006
36.77 	0.060581 	4919 	0.059986
36.79 	0.060963 	4921 	0.060011
36.81 	0.059805 	4916 	0.058375
36.83 	0.052899 	4915 	0.051827
36.85 	0.053287 	4898 	0.052809
36.87 	0.056432 	4944 	0.055958
36.89 	0.062653 	4916 	0.061699
36.91 	0.055050 	4941 	0.054101
36.93 	0.061663 	4930 	0.060475
36.95 	0.052504 	4933 	0.051672
36.97 	0.053709 	4934 	0.052878
36.99 	0.063627 	4935 	0.062321
37.01 	0.059801 	4933 	0.058851
37.03 	0.058895 	4924 	0.058062
37.05 	0.057439 	4927 	0.056369
37.07 	0.055117 	4935 	0.054404
37.09 	0.059862 	4928 	0.058792
37.11 	0.062614 	4935 	0.061071
37.13 	0.057271 	4924 	0.056319
37.15 	0.059279 	4909 	0.058444
37.17 	0.054317 	4934 	0.053486
37.19 	0.052386 	4925 	0.051672
37.21 	0.054301 	4917 	0.053706
37.23 	0.058967 	4918 	0.058491
37.25 	0.059458 	4911 	0.058743
37.27 	0.057622 	4894 	0.056066
37.29 	0.056187 	4930 	0.055355
37.31 	0.055319 	4935 	0.054251
37.33 	0.049929 	4927 	0.049453
37.35 	0.054070 	4938 	0.053003
37.37 	0.062513 	4927 	0.061562
37.39 	0.053336 	4931 	0.052742
37.41 	0.057392 	4931 	0.055848
37.43 	0.052311 	4932 	0.051599
37.45 	0.050162 	4924 	0.049092
37.47 	0.059038 	4929 	0.058206
37.49 	0.048345 	4923 	0.047492
37.51 	0.056152 	4933 	0.055677
37.53 	0.058955 	4919 	0.058121
37.55 	0.057809 	4930 	0.056740
37.57 	0.052792 	4925 	0.051821
37.59 	0.056358 	4915 	0.055166
37.61 	0.049777 	4922 	0.049162
37.63 	0.054483 	4919 	0.053411
37.65 	0.051037 	4918 	0.049846
37.67 	0.047512 	4904 	0.047034
37.69 	0.051450 	4898 	0.050134
37.71 	0.059647 	4929 	0.059290
37.73 	0.049706 	4929 	0.049468
37.75 	0.054453 	4940 	0.053149
37.77 	0.058740 	4920 	0.058264
37.79 	0.051521 	4930 	0.050432
37.81 	0.054733 	4933 	0.053783
37.83 	0.049390 	4920 	0.048557
37.85 	0.056481 	4922 	0.056124
37.87 	0.056894 	4939 	0.056064
37.89 	0.058477 	4925 	0.057526
37.91 	0.056389 	4930 	0.055419
37.93 	0.047571 	4919 	0.047332
37.95 	0.048161 	4921 	0.047566
37.97 	0.053561 	4929 	0.052966
37.99 	0.053746 	4912 	0.052911
38.01 	0.053977 	4928 	0.053383
38.03 	0.058260 	4909 	0.056828
38.05 	0.056244 	4925 	0.055292
38.07 	0.052149 	4909 	0.050956
38.09 	0.050021 	4878 	0.049060
38.11 	0.052482 	4935 	0.051533
38.13 	0.047600 	4937 	0.046888
38.15 	0.053884 	4918 	0.053169
38.17 	0.050913 	4930 	0.049962
38.19 	0.053144 	4930 	0.052312
38.21 	0.055860 	4923 	0.054551
38.23 	0.057108 	4938 	0.055922
38.25 	0.063657 	4917 	0.062207
38.27 	0.055578 	4930 	0.054746
38.29 	0.050975 	4924 	0.050737
38.31 	0.055612 	4927 	0.054542
38.33 	0.057271 	4924 	0.056200
38.35 	0.062703 	4928 	0.061871
38.37 	0.062348 	4924 	0.061277
38.39 	0.056427 	4909 	0.055711
38.41 	0.057892 	4923 	0.056226
38.43 	0.066721 	4916 	0.065053
38.45 	0.059577 	4918 	0.058862
38.47 	0.062156 	4907 	0.061440
38.49 	0.059053 	4877 	0.057351
38.51 	0.062044 	4932 	0.060619
38.53 	0.054778 	4929 	0.053827
38.55 	0.058955 	4936 	0.058361
38.57 	0.059110 	4923 	0.058158
38.59 	0.060926 	4924 	0.059736
38.61 	0.056321 	4936 	0.055560
38.63 	0.057067 	4924 	0.056116
38.65 	0.056527 	4918 	0.055574
38.67 	0.058943 	4937 	0.058468
38.69 	0.059529 	4922 	0.058696
38.71 	0.059911 	4924 	0.059554
38.73 	0.062627 	4918 	0.061774
38.75 	0.056018 	4927 	0.055186
38.77 	0.050173 	4923 	0.048825
38.79 	0.053709 	4934 	0.051909
38.81 	0.056800 	4912 	0.056323
38.83 	0.051230 	4919 	0.050634
38.85 	0.049878 	4912 	0.049282
38.87 	0.051313 	4911 	0.049882
38.89 	0.051664 	4897 	0.050827
38.91 	0.052009 	4903 	0.051053
38.93 	0.052653 	4938 	0.052060
38.95 	0.056934 	4918 	0.055504
38.97 	0.050497 	4931 	0.049903
38.99 	0.052664 	4937 	0.051714
39.01 	0.057340 	4918 	0.056864
39.03 	0.050466 	4934 	0.049754
39.05 	0.046904 	4925 	0.046547
39.07 	0.051584 	4924 	0.051108
39.09 	0.053016 	4923 	0.051708
39.11 	0.051511 	4931 	0.050204
39.13 	0.047126 	4923 	0.046769
39.15 	0.049644 	4915 	0.048294
39.17 	0.047600 	4937 	0.047125
39.19 	0.052268 	4917 	0.051434
39.21 	0.049695 	4910 	0.049456
39.23 	0.046701 	4925 	0.046106
39.25 	0.047745 	4922 	0.047388
39.27 	0.048880 	4910 	0.048522
39.29 	0.050602 	4901 	0.049885
39.31 	0.041769 	4884 	0.041289
39.33 	0.048874 	4931 	0.047687
39.35 	0.043566 	4935 	0.043329
39.37 	0.045648 	4929 	0.044559
39.39 	0.048489 	4929 	0.047775
39.41 	0.046846 	4931 	0.045659
39.43 	0.045611 	4933 	0.045255
39.45 	0.040812 	4925 	0.040217
39.47 	0.051391 	4923 	0.050063
39.49 	0.047233 	4933 	0.046402
39.51 	0.048335 	4924 	0.047859
39.53 	0.048954 	4923 	0.048002
39.55 	0.049807 	4919 	0.049569
39.57 	0.048044 	4933 	0.047688
39.59 	0.050692 	4912 	0.049857
39.61 	0.049766 	4923 	0.048933
39.63 	0.044697 	4922 	0.044221
39.65 	0.049736 	4926 	0.049498
39.67 	0.052717 	4913 	0.052121
39.69 	0.048210 	4916 	0.047972
39.71 	0.046987 	4895 	0.046269
39.73 	0.047677 	4908 	0.046842
39.75 	0.049919 	4928 	0.049324
39.77 	0.056130 	4935 	0.055061
39.79 	0.054405 	4926 	0.053553
39.81 	0.050132 	4927 	0.049300
39.83 	0.048439 	4934 	0.047015
39.85 	0.050132 	4927 	0.049537
39.87 	0.048122 	4925 	0.047527
39.89 	0.051277 	4934 	0.050683
39.91 	0.048557 	4922 	0.047586
39.93 	0.050233 	4937 	0.049758
39.95 	0.044151 	4915 	0.043674
39.97 	0.050731 	4928 	0.050493
39.99 	0.047242 	4932 	0.046649
40.01 	0.045344 	4918 	0.044510
40.03 	0.042208 	4928 	0.041851
40.05 	0.052064 	4917 	0.050873
40.07 	0.051188 	4923 	0.051069
40.09 	0.046583 	4916 	0.045987
40.11 	0.049227 	4916 	0.048492
40.13 	0.045139 	4896 	0.044900
40.15 	0.046611 	4913 	0.046015
40.17 	0.045049 	4928 	0.044692
40.19 	0.048286 	4929 	0.047573
40.21 	0.050456 	4935 	0.049269
40.23 	0.049270 	4932 	0.048914
40.25 	0.048171 	4920 	0.047080
40.27 	0.045372 	4937 	0.045016
40.29 	0.050741 	4927 	0.049671
40.31 	0.043531 	4939 	0.043412
40.33 	0.044607 	4932 	0.043894
40.35 	0.048790 	4919 	0.047838
40.37 	0.047271 	4929 	0.046796
40.39 	0.047860 	4931 	0.047366
40.41 	0.049137 	4925 	0.048542
40.43 	0.050589 	4922 	0.049875
40.45 	0.045408 	4933 	0.044696
40.47 	0.047580 	4918 	0.046747
40.49 	0.048518 	4926 	0.048042
40.51 	0.040837 	4922 	0.040242
40.53 	0.046379 	4916 	0.045664
40.55 	0.045029 	4908 	0.044432
40.57 	0.047239 	4890 	0.046760
40.59 	0.041523 	4937 	0.040930
40.61 	0.049443 	4935 	0.048849
40.63 	0.046450 	4930 	0.045975
40.65 	0.042333 	4937 	0.041859
40.67 	0.049473 	4932 	0.048641
40.69 	0.044764 	4937 	0.043815
40.71 	0.044201 	4932 	0.043251
40.73 	0.042428 	4926 	0.042190
40.75 	0.045427 	4931 	0.044952
40.77 	0.052035 	4939 	0.050967
40.79 	0.043461 	4924 	0.042747
40.81 	0.047966 	4941 	0.047255
40.83 	0.049513 	4928 	0.048800
40.85 	0.046304 	4924 	0.045709
40.87 	0.041802 	4928 	0.041564
40.89 	0.047658 	4931 	0.047301
40.91 	0.046110 	4923 	0.045039
40.93 	0.045399 	4934 	0.044687
40.95 	0.049868 	4913 	0.049629
40.97 	0.045085 	4924 	0.044728
40.99 	0.040617 	4924 	0.040142
41.01 	0.046213 	4912 	0.045736
41.03 	0.052599 	4905 	0.051763
41.05 	0.049838 	4936 	0.049126
41.07 	0.045233 	4930 	0.044639
41.09 	0.039684 	4939 	0.039328
41.11 	0.046606 	4935 	0.046349
41.13 	0.044165 	4936 	0.043572
41.15 	0.049990 	4941 	0.049041
41.17 	0.049250 	4934 	0.048419
41.19 	0.047465 	4930 	0.046989
41.21 	0.046384 	4937 	0.046266
41.23 	0.044746 	4939 	0.044015
41.25 	0.045206 	4933 	0.044375
41.27 	0.043399 	4931 	0.042686
41.29 	0.046469 	4928 	0.045994
41.31 	0.042773 	4933 	0.042298
41.33 	0.044156 	4937 	0.043800
41.35 	0.040097 	4938 	0.039267
41.37 	0.043054 	4924 	0.042698
41.39 	0.042976 	4933 	0.042501
41.41 	0.039992 	4926 	0.039635
41.43 	0.045445 	4929 	0.045089
41.45 	0.045991 	4914 	0.045037
41.47 	0.045270 	4926 	0.044319
41.49 	0.048651 	4892 	0.048292
41.51 	0.047773 	4940 	0.047180
41.53 	0.048746 	4944 	0.048509
41.55 	0.041135 	4935 	0.040522
41.57 	0.040073 	4941 	0.039480
41.59 	0.043179 	4933 	0.042347
41.61 	0.040380 	4953 	0.040143
41.63 	0.041717 	4938 	0.041243
41.65 	0.041388 	4929 	0.041269
41.67 	0.046356 	4940 	0.045763
41.69 	0.046493 	4947 	0.046138
41.71 	0.050263 	4934 	0.049789
41.73 	0.043558 	4936 	0.043083
41.75 	0.045648 	4929 	0.044697
41.77 	0.046347 	4941 	0.045991
41.79 	0.042273 	4944 	0.041681
41.81 	0.042545 	4936 	0.041951
41.83 	0.037744 	4928 	0.037387
41.85 	0.049808 	4939 	0.049570
41.87 	0.042958 	4935 	0.042602
41.89 	0.047030 	4933 	0.046061
41.91 	0.046799 	4936 	0.046206
41.93 	0.044404 	4932 	0.043572
41.95 	0.046644 	4931 	0.046168
41.97 	0.044974 	4914 	0.044616
41.99 	0.041386 	4905 	0.040909
42.01 	0.045730 	4942 	0.045019
42.03 	0.047783 	4939 	0.046953
42.05 	0.045032 	4952 	0.044914
42.07 	0.044764 	4937 	0.043933
42.09 	0.045069 	4948 	0.044122
42.11 	0.047118 	4945 	0.046526
42.13 	0.037816 	4945 	0.036967
42.15 	0.046983 	4938 	0.046508
42.17 	0.044937 	4918 	0.044580
42.19 	0.043602 	4908 	0.043244
42.21 	0.045297 	4901 	0.044699
42.23 	0.045789 	4892 	0.045310
42.25 	0.041522 	4889 	0.040923
42.27 	0.044932 	4874 	0.044692
42.29 	0.041538 	4863 	0.041056
42.31 	0.042636 	4855 	0.041913
42.33 	0.044270 	4834 	0.043543
42.35 	0.044440 	4838 	0.044198
42.37 	0.044720 	4830 	0.043750
42.39 	0.042673 	4804 	0.042185
42.41 	0.039759 	4804 	0.039515
42.43 	0.034432 	4792 	0.033943
42.45 	0.033082 	4776 	0.032837
42.47 	0.048059 	4765 	0.047444
42.49 	0.040294 	4765 	0.039290
42.51 	0.037107 	4743 	0.036860
42.53 	0.043147 	4728 	0.042776
42.55 	0.043755 	4708 	0.043258
42.57 	0.041226 	4730 	0.041102
42.59 	0.040601 	4729 	0.039981
42.61 	0.038233 	4708 	0.037486
42.63 	0.043958 	4709 	0.042839
42.65 	0.040768 	4685 	0.040393
42.67 	0.043339 	4684 	0.042589
42.69 	0.038725 	4674 	0.038224
42.71 	0.038602 	4663 	0.038225
42.73 	0.035776 	4640 	0.035397
42.75 	0.039853 	4617 	0.039345
42.77 	0.043478 	4600 	0.043224
42.79 	0.036447 	4582 	0.036063
42.81 	0.045156 	4562 	0.044899
42.83 	0.040123 	4536 	0.039736
42.85 	0.038869 	4528 	0.038611
42.87 	0.044899 	4499 	0.044769
42.89 	0.041964 	4480 	0.041441
42.91 	0.046005 	4456 	0.045217
42.93 	0.043185 	4446 	0.042658
42.95 	0.047101 	4416 	0.046703
42.97 	0.040218 	4401 	0.039553
42.99 	0.040365 	4385 	0.039697
43.01 	0.038735 	4363 	0.038466
43.03 	0.040157 	4333 	0.039729
43.05 	0.044393 	4325 	0.043580
43.07 	0.042132 	4296 	0.041723
43.09 	0.048097 	4283 	0.047277
43.11 	0.038543 	4255 	0.038405
43.13 	0.040831 	4237 	0.040554
43.15 	0.038754 	4206 	0.038197
43.17 	0.036851 	4179 	0.036711
43.19 	0.039819 	4194 	0.039539
43.21 	0.039070 	4172 	0.038930
43.23 	0.043091 	4154 	0.042668
43.25 	0.041838 	4135 	0.040988
43.27 	0.038246 	4105 	0.037961
43.29 	0.040244 	4100 	0.039672
43.31 	0.041187 	4079 	0.041043
43.33 	0.040484 	4051 	0.040339
43.35 	0.046131 	4032 	0.045259
43.37 	0.035866 	4015 	0.035428
43.39 	0.044978 	4002 	0.044685
43.41 	0.041289 	3972 	0.040994
43.43 	0.041919 	3960 	0.041327
43.45 	0.035324 	3935 	0.035324
43.47 	0.046162 	3921 	0.045714
43.49 	0.041314 	3897 	0.040713
43.51 	0.044364 	3877 	0.044062
43.53 	0.037794 	3863 	0.037188
43.55 	0.041835 	2964 	0.041638
43.57 	0.050938 	2238 	0.050153
43.59 	0.039519 	1746 	0.038848
43.61 	0.041451 	1351 	0.040150
43.63 	0.042957 	1001 	0.042957
43.65 	0.039301 	687 	0.039301
43.67 	0.031873 	502 	0.031873
43.69 	0.029973 	367 	0.029973
43.71 	0.029289 	239 	0.029289
43.73 	0.033333 	120 	0.033333
43.75 	0.062500 	16 	0.062500