File: Example_Data/25SC_s1_0013.000.dat
#F C:\frames\spec\25SC_s1_0013.000
#C title =s:13 frm:0 25SC_s1
#C wavelength =0.15406

#S 1  fr_average C:\frames\spec\25SC_s1_0013.000 C:\win32app\speccom\mask.axs chi 0 180 0 360 0.02
#C 2 theta =0.000000 to 180 deg
#C   q   =0.000000 to 81.568 nm^-1
#C  chi  =0.000000 to 360 deg
#C collumns:
#C  1 position (2theta or chi in degrees)
#C  2 average intensity (sum of all counts in the region divided with number of pixels)
#C  3 Number of pixels in region)
#C  4 error (sum of sqrt(intensity) for all pixels divided by number)
#N 4
#L TTh  Int  N_pix  Err
32.99 	0.065574 	61 	0.065574
33.01 	0.066438 	873 	0.065096
33.03 	0.054637 	1391 	0.053795
33.05 	0.059761 	1757 	0.059094
33.07 	0.050244 	2050 	0.049387
33.09 	0.056668 	2347 	0.056169
33.11 	0.065529 	2579 	0.064394
33.13 	0.065521 	2793 	0.064472
33.15 	0.058019 	2999 	0.057238
33.17 	0.063730 	3201 	0.062266
33.19 	0.057451 	3342 	0.056399
33.21 	0.056170 	3436 	0.055999
33.23 	0.056486 	3523 	0.055821
33.25 	0.054540 	3612 	0.053405
33.27 	0.058678 	3630 	0.057387
33.29 	0.067160 	3648 	0.066036
33.31 	0.069672 	3660 	0.068232
33.33 	0.057244 	3686 	0.056767
33.35 	0.069843 	3694 	0.067940
33.37 	0.066774 	3714 	0.065355
33.39 	0.063020 	3729 	0.062548
33.41 	0.063369 	3740 	0.061464
33.43 	0.065142 	3761 	0.063896
33.45 	0.062815 	3773 	0.061081
33.47 	0.060558 	3798 	0.059479
33.49 	0.055395 	3809 	0.054934
33.51 	0.056619 	3815 	0.056004
33.53 	0.064306 	3841 	0.062781
33.55 	0.062451 	3843 	0.060774
33.57 	0.057261 	3877 	0.056505
33.59 	0.054897 	3880 	0.054595
33.61 	0.059862 	3909 	0.059262
33.63 	0.055882 	3919 	0.054686
33.65 	0.066141 	3931 	0.064651
33.67 	0.061963 	3954 	0.061222
33.69 	0.059954 	3953 	0.059214
33.71 	0.059119 	3975 	0.058383
33.73 	0.059191 	4004 	0.058020
33.75 	0.056014 	3999 	0.054989
33.77 	0.060870 	4025 	0.059269
33.79 	0.059391 	4041 	0.058377
33.81 	0.061417 	4038 	0.060063
33.83 	0.058272 	4050 	0.057404
33.85 	0.058063 	4099 	0.056634
33.87 	0.056191 	4111 	0.055478
33.89 	0.057025 	4121 	0.056314
33.91 	0.056881 	4149 	0.056011
33.93 	0.061190 	4151 	0.060343
33.95 	0.060512 	4181 	0.058925
33.97 	0.050835 	4190 	0.049996
33.99 	0.064286 	4200 	0.062752
34.01 	0.056492 	4213 	0.055379
34.03 	0.057493 	4244 	0.055837
34.05 	0.063264 	4252 	0.062300
34.07 	0.061153 	4268 	0.060055
34.09 	0.065562 	4286 	0.064332
34.11 	0.062762 	4302 	0.061377
34.13 	0.052228 	4308 	0.051685
34.15 	0.061649 	4331 	0.061243
34.17 	0.053103 	4350 	0.052295
34.19 	0.060523 	4362 	0.059986
34.21 	0.055365 	4371 	0.054561
34.23 	0.059413 	4393 	0.058857
34.25 	0.058583 	4404 	0.058184
34.27 	0.054500 	4422 	0.053970
34.29 	0.061781 	4435 	0.060328
34.31 	0.056303 	4458 	0.055383
34.33 	0.055469 	4471 	0.054813
34.35 	0.055531 	4484 	0.054616
34.37 	0.050991 	4491 	0.049947
34.39 	0.055975 	4502 	0.055325
34.41 	0.058330 	4526 	0.057273
34.43 	0.050231 	4539 	0.049844
34.45 	0.058875 	4535 	0.057584
34.47 	0.060976 	4592 	0.059700
34.49 	0.056559 	4597 	0.055412
34.51 	0.057968 	4606 	0.056950
34.53 	0.060952 	4643 	0.060573
34.55 	0.059014 	4643 	0.058257
34.57 	0.059871 	4660 	0.057839
34.59 	0.058182 	4675 	0.057305
34.61 	0.056419 	4697 	0.055671
34.63 	0.049469 	4710 	0.048847
34.65 	0.053167 	4721 	0.052298
34.67 	0.064543 	4741 	0.063802
34.69 	0.057846 	4754 	0.057353
34.71 	0.056232 	4766 	0.055125
34.73 	0.063714 	4787 	0.062123
34.75 	0.052621 	4808 	0.051768
34.77 	0.059983 	4818 	0.058889
34.79 	0.053897 	4824 	0.053654
34.81 	0.054283 	4845 	0.053799
34.83 	0.055738 	4862 	0.054775
34.85 	0.054221 	4869 	0.053378
34.87 	0.055875 	4868 	0.055013
34.89 	0.055715 	4882 	0.055235
34.91 	0.053052 	4882 	0.052332
34.93 	0.053889 	4899 	0.053052
34.95 	0.058691 	4890 	0.057853
34.97 	0.058344 	4902 	0.057507
34.99 	0.060241 	4897 	0.058686
35.01 	0.056267 	4923 	0.055434
35.03 	0.061097 	4943 	0.060504
35.05 	0.057409 	4947 	0.056698
35.07 	0.060729 	4940 	0.059899
35.09 	0.053705 	4953 	0.053468
35.11 	0.065292 	4947 	0.063990
35.13 	0.053651 	4958 	0.053533
35.15 	0.063196 	4937 	0.062366
35.17 	0.054792 	4946 	0.053963
35.19 	0.054836 	4942 	0.054006
35.21 	0.054601 	4945 	0.053771
35.23 	0.057432 	4945 	0.056484
35.25 	0.059478 	4943 	0.058411
35.27 	0.059014 	4948 	0.058067
35.29 	0.045298 	4945 	0.044824
35.31 	0.057166 	4933 	0.055821
35.33 	0.056848 	4943 	0.055900
35.35 	0.057871 	4942 	0.057160
35.37 	0.054262 	4939 	0.053313
35.39 	0.055005 	4945 	0.054531
35.41 	0.053390 	4926 	0.052796
35.43 	0.055950 	4933 	0.055118
35.45 	0.062184 	4937 	0.060977
35.47 	0.048874 	4931 	0.048043
35.49 	0.053971 	4910 	0.053136
35.51 	0.057044 	4926 	0.056569
35.53 	0.060214 	4949 	0.059504
35.55 	0.059050 	4945 	0.058576
35.57 	0.057774 	4933 	0.056705
35.59 	0.061072 	4945 	0.060006
35.61 	0.058883 	4942 	0.058290
35.63 	0.057455 	4943 	0.056507
35.65 	0.053185 	4945 	0.051882
35.67 	0.064953 	4942 	0.064005
35.69 	0.056207 	4946 	0.055970
35.71 	0.056309 	4937 	0.055479
35.73 	0.056524 	4936 	0.055811
35.75 	0.061245 	4931 	0.059938
35.77 	0.054736 	4951 	0.053908
35.79 	0.056569 	4932 	0.055857
35.81 	0.051895 	4933 	0.051064
35.83 	0.056005 	4946 	0.055176
35.85 	0.056535 	4935 	0.055585
35.87 	0.059110 	4923 	0.058039
35.89 	0.058776 	4934 	0.057589
35.91 	0.059468 	4927 	0.058398
35.93 	0.058047 	4927 	0.057096
35.95 	0.057759 	4917 	0.056151
35.97 	0.058836 	4912 	0.057524
35.99 	0.066410 	4939 	0.064750
36.01 	0.054158 	4930 	0.053683
36.03 	0.060287 	4943 	0.058984
36.05 	0.062285 	4945 	0.061456
36.07 	0.055882 	4939 	0.054795
36.09 	0.058300 	4940 	0.057331
36.11 	0.059241 	4929 	0.058172
36.13 	0.060704 	4942 	0.059756
36.15 	0.054262 	4939 	0.052957
36.17 	0.058883 	4925 	0.057932
36.19 	0.058300 	4940 	0.057707
36.21 	0.059647 	4929 	0.058577
36.23 	0.056130 	4935 	0.055655
36.25 	0.058693 	4941 	0.057863
36.27 	0.054619 	4925 	0.053668
36.29 	0.061854 	4931 	0.061141
36.31 	0.057021 	4928 	0.055832
36.33 	0.057369 	4933 	0.056162
36.35 	0.060661 	4929 	0.059473
36.37 	0.057485 	4923 	0.056652
36.39 	0.054054 	4921 	0.053221
36.41 	0.062909 	4896 	0.061592
36.43 	0.059659 	4928 	0.058451
36.45 	0.054361 	4930 	0.053410
36.47 	0.059765 	4936 	0.058460
36.49 	0.052610 	4942 	0.051899
36.51 	0.052504 	4933 	0.052029
36.53 	0.056039 	4943 	0.055802
36.55 	0.059265 	4927 	0.057938
36.57 	0.056344 	4934 	0.055750
36.59 	0.062158 	4939 	0.061447
36.61 	0.055972 	4931 	0.054666
36.63 	0.059014 	4931 	0.057807
36.65 	0.059205 	4932 	0.058611
36.67 	0.058621 	4930 	0.057908
36.69 	0.054169 	4929 	0.052862
36.71 	0.059134 	4921 	0.057944
36.73 	0.059695 	4925 	0.058982
36.75 	0.056230 	4944 	0.055519
36.77 	0.055499 	4919 	0.054665
36.79 	0.060557 	4921 	0.059724
36.81 	0.058381 	4916 	0.057904
36.83 	0.053713 	4915 	0.052998
36.85 	0.057983 	4898 	0.056906
36.87 	0.061286 	4944 	0.060082
36.89 	0.061635 	4916 	0.060801
36.91 	0.057276 	4941 	0.055853
36.93 	0.061055 	4930 	0.059867
36.95 	0.055139 	4933 	0.054545
36.97 	0.060195 	4934 	0.059007
36.99 	0.064640 	4935 	0.063809
37.01 	0.061829 	4933 	0.061116
37.03 	0.060114 	4924 	0.058686
37.05 	0.056627 	4927 	0.055319
37.07 	0.062411 	4935 	0.060987
37.09 	0.059659 	4928 	0.058114
37.11 	0.058764 	4935 	0.058052
37.13 	0.051584 	4924 	0.050394
37.15 	0.060501 	4909 	0.059666
37.17 	0.056344 	4934 	0.055513
37.19 	0.061726 	4925 	0.060655
37.21 	0.062233 	4917 	0.061280
37.23 	0.055104 	4918 	0.053793
37.25 	0.060476 	4911 	0.059045
37.27 	0.062934 	4894 	0.061618
37.29 	0.057404 	4930 	0.056453
37.31 	0.056738 	4935 	0.055907
37.33 	0.061498 	4927 	0.060309
37.35 	0.055691 	4938 	0.054860
37.37 	0.056018 	4927 	0.055305
37.39 	0.059420 	4931 	0.058470
37.41 	0.058000 	4931 	0.057050
37.43 	0.066707 	4932 	0.065401
37.45 	0.062957 	4924 	0.062105
37.47 	0.054169 	4929 	0.053694
37.49 	0.049360 	4923 	0.048765
37.51 	0.060409 	4933 	0.059341
37.53 	0.052450 	4919 	0.051735
37.55 	0.052535 	4930 	0.051823
37.57 	0.056041 	4925 	0.054970
37.59 	0.055748 	4915 	0.054536
37.61 	0.060138 	4922 	0.058948
37.63 	0.056922 	4919 	0.055017
37.65 	0.064254 	4918 	0.062944
37.67 	0.060155 	4904 	0.059438
37.69 	0.063495 	4898 	0.061821
37.71 	0.064313 	4929 	0.062868
37.73 	0.064110 	4929 	0.062090
37.75 	0.055466 	4940 	0.054398
37.77 	0.058333 	4920 	0.057262
37.79 	0.053347 	4930 	0.051783
37.81 	0.050476 	4933 	0.049764
37.83 	0.060569 	4920 	0.059378
37.85 	0.059935 	4922 	0.059102
37.87 	0.056287 	4939 	0.055219
37.89 	0.056447 	4925 	0.055832
37.91 	0.055172 	4930 	0.055054
37.93 	0.053060 	4919 	0.052702
37.95 	0.054460 	4921 	0.053865
37.97 	0.055995 	4929 	0.055144
37.99 	0.061482 	4912 	0.060628
38.01 	0.058036 	4928 	0.057204
38.03 	0.054390 	4909 	0.053435
38.05 	0.053401 	4925 	0.052806
38.07 	0.053779 	4909 	0.053182
38.09 	0.056171 	4878 	0.055210
38.11 	0.058156 	4935 	0.057444
38.13 	0.056715 	4937 	0.055647
38.15 	0.054900 	4918 	0.054424
38.17 	0.060446 	4930 	0.059714
38.19 	0.060649 	4930 	0.060174
38.21 	0.054845 	4923 	0.053774
38.23 	0.053868 	4938 	0.053038
38.25 	0.058166 	4917 	0.057074
38.27 	0.055578 	4930 	0.054746
38.29 	0.060723 	4924 	0.059494
38.31 	0.057236 	4927 	0.056047
38.33 	0.056052 	4924 	0.055338
38.35 	0.066153 	4928 	0.064607
38.37 	0.060520 	4924 	0.059330
38.39 	0.060909 	4909 	0.060312
38.41 	0.060532 	4923 	0.058747
38.43 	0.064280 	4916 	0.063565
38.45 	0.057340 	4918 	0.056130
38.47 	0.064805 	4907 	0.063850
38.49 	0.066229 	4877 	0.064428
38.51 	0.060624 	4932 	0.058962
38.53 	0.068574 	4929 	0.067623
38.55 	0.067464 	4936 	0.066751
38.57 	0.071907 	4923 	0.070479
38.59 	0.076361 	4924 	0.074695
38.61 	0.074959 	4936 	0.073891
38.63 	0.073111 	4924 	0.071565
38.65 	0.074624 	4918 	0.072837
38.67 	0.082034 	4937 	0.079661
38.69 	0.080658 	4922 	0.078397
38.71 	0.083266 	4924 	0.081462
38.73 	0.082554 	4918 	0.080172
38.75 	0.078344 	4927 	0.077155
38.77 	0.082876 	4923 	0.080853
38.79 	0.076206 	4934 	0.074880
38.81 	0.081026 	4912 	0.079814
38.83 	0.074609 	4919 	0.072941
38.85 	0.073290 	4912 	0.072217
38.87 	0.080024 	4911 	0.077838
38.89 	0.071677 	4897 	0.071078
38.91 	0.071793 	4903 	0.069881
38.93 	0.076752 	4938 	0.074854
38.95 	0.063034 	4918 	0.062557
38.97 	0.056175 	4931 	0.055344
38.99 	0.062386 	4937 	0.061081
39.01 	0.062627 	4918 	0.061674
39.03 	0.062424 	4934 	0.061712
39.05 	0.051168 	4925 	0.050454
39.07 	0.058489 	4924 	0.057656
39.09 	0.050579 	4923 	0.049984
39.11 	0.051511 	4931 	0.051154
39.13 	0.048548 	4923 	0.047477
39.15 	0.052085 	4915 	0.051490
39.17 	0.058335 	4937 	0.057267
39.19 	0.051658 	4917 	0.050585
39.21 	0.050713 	4910 	0.049639
39.23 	0.044061 	4925 	0.043090
39.25 	0.045916 	4922 	0.045083
39.27 	0.050713 	4910 	0.050116
39.29 	0.050602 	4901 	0.049287
39.31 	0.045455 	4884 	0.044495
39.33 	0.048266 	4931 	0.047434
39.35 	0.041540 	4935 	0.041065
39.37 	0.047474 	4929 	0.047236
39.39 	0.049097 	4929 	0.048741
39.41 	0.048469 	4931 	0.047756
39.43 	0.046017 	4933 	0.045304
39.45 	0.047107 	4925 	0.046155
39.47 	0.052610 	4923 	0.052134
39.49 	0.044598 	4933 	0.043885
39.51 	0.045491 	4924 	0.044877
39.53 	0.046719 	4923 	0.046125
39.55 	0.047164 	4919 	0.046807
39.57 	0.047030 	4933 	0.046555
39.59 	0.045399 	4912 	0.045041
39.61 	0.049766 	4923 	0.049290
39.63 	0.045916 	4922 	0.045321
39.65 	0.045676 	4926 	0.045200
39.67 	0.044169 	4913 	0.043811
39.69 	0.046786 	4916 	0.046309
39.71 	0.051890 	4895 	0.051052
39.73 	0.043195 	4908 	0.042598
39.75 	0.040381 	4928 	0.040381
39.77 	0.057143 	4935 	0.055718
39.79 	0.045067 	4926 	0.044829
39.81 	0.045058 	4927 	0.044463
39.83 	0.045602 	4934 	0.045127
39.85 	0.049320 	4927 	0.048726
39.87 	0.048731 	4925 	0.047898
39.89 	0.048642 	4934 	0.048048
39.91 	0.046323 	4922 	0.045609
39.93 	0.053271 	4937 	0.052678
39.95 	0.043133 	4915 	0.042657
39.97 	0.041193 	4928 	0.040837
39.99 	0.049473 	4932 	0.048879
40.01 	0.041887 	4918 	0.041411
40.03 	0.043019 	4928 	0.042544
40.05 	0.040675 	4917 	0.040437
40.07 	0.047938 	4923 	0.047700
40.09 	0.044955 	4916 	0.044717
40.11 	0.045159 	4916 	0.043967
40.13 	0.046364 	4896 	0.046005
40.15 	0.039487 	4913 	0.038652
40.17 	0.043831 	4928 	0.043118
40.19 	0.050314 	4929 	0.049839
40.21 	0.052482 	4935 	0.052007
40.23 	0.048054 	4932 	0.047222
40.25 	0.048374 	4920 	0.047421
40.27 	0.039093 	4937 	0.038005
40.29 	0.040187 	4927 	0.039592
40.31 	0.041506 	4939 	0.040795
40.33 	0.043998 	4932 	0.043405
40.35 	0.043098 	4919 	0.042622
40.37 	0.046460 	4929 	0.045628
40.39 	0.039546 	4931 	0.039427
40.41 	0.043858 	4925 	0.043363
40.43 	0.038602 	4922 	0.037769
40.45 	0.042976 	4933 	0.042145
40.47 	0.042294 	4918 	0.042055
40.49 	0.048518 	4926 	0.048161
40.51 	0.040228 	4922 	0.039394
40.53 	0.047803 	4916 	0.047207
40.55 	0.041565 	4908 	0.041326
40.57 	0.043149 	4890 	0.042311
40.59 	0.044967 	4937 	0.044373
40.61 	0.045187 	4935 	0.044594
40.63 	0.045842 	4930 	0.045248
40.65 	0.050841 	4937 	0.050129
40.67 	0.046634 	4932 	0.045427
40.69 	0.042941 	4937 	0.042229
40.71 	0.038118 	4932 	0.037525
40.73 	0.042631 	4926 	0.041561
40.75 	0.044210 	4931 	0.043854
40.77 	0.042316 	4939 	0.041842
40.79 	0.042242 	4924 	0.041528
40.81 	0.044525 	4941 	0.043814
40.83 	0.042005 	4928 	0.041767
40.85 	0.041430 	4924 	0.040597
40.87 	0.044034 	4928 	0.043796
40.89 	0.040965 	4931 	0.040847
40.91 	0.037579 	4923 	0.036984
40.93 	0.042967 	4934 	0.042255
40.95 	0.039284 	4913 	0.038807
40.97 	0.041633 	4924 	0.041157
40.99 	0.041024 	4924 	0.040310
41.01 	0.040513 	4912 	0.039678
41.03 	0.042813 	4905 	0.042575
41.05 	0.043355 	4936 	0.042880
41.07 	0.041379 	4930 	0.040666
41.09 	0.046568 	4939 	0.045975
41.11 	0.038906 	4935 	0.038550
41.13 	0.041734 	4936 	0.041259
41.15 	0.040478 	4941 	0.039648
41.17 	0.041143 	4934 	0.040431
41.19 	0.037525 	4930 	0.036694
41.21 	0.038485 	4937 	0.038366
41.23 	0.044746 	4939 	0.044509
41.25 	0.043381 	4933 	0.042669
41.27 	0.043399 	4931 	0.043161
41.29 	0.044440 	4928 	0.043964
41.31 	0.039327 	4933 	0.038852
41.33 	0.039498 	4937 	0.039023
41.35 	0.044755 	4938 	0.043806
41.37 	0.037368 	4924 	0.037130
41.39 	0.043381 	4933 	0.042550
41.41 	0.040804 	4926 	0.040447
41.43 	0.039562 	4929 	0.039086
41.45 	0.038869 	4914 	0.038392
41.47 	0.040804 	4926 	0.040328
41.49 	0.038226 	4892 	0.037507
41.51 	0.042510 	4940 	0.041917
41.53 	0.044296 	4944 	0.043822
41.55 	0.037690 	4935 	0.037334
41.57 	0.039061 	4941 	0.038824
41.59 	0.036286 	4933 	0.036049
41.61 	0.041995 	4953 	0.041640
41.63 	0.042325 	4938 	0.041732
41.65 	0.043417 	4929 	0.043179
41.67 	0.043927 	4940 	0.043097
41.69 	0.042450 	4947 	0.042332
41.71 	0.039724 	4934 	0.039131
41.73 	0.043152 	4936 	0.042322
41.75 	0.039765 	4929 	0.039408
41.77 	0.038049 	4941 	0.037930
41.79 	0.037621 	4944 	0.037266
41.81 	0.038695 	4936 	0.038221
41.83 	0.042411 	4928 	0.041935
41.85 	0.040696 	4939 	0.040459
41.87 	0.043566 	4935 	0.042973
41.89 	0.043381 	4933 	0.043381
41.91 	0.039100 	4936 	0.038982
41.93 	0.035888 	4932 	0.035532
41.95 	0.036504 	4931 	0.036029
41.97 	0.036427 	4914 	0.036069
41.99 	0.039755 	4905 	0.039397
42.01 	0.040874 	4942 	0.040281
42.03 	0.036445 	4939 	0.036089
42.05 	0.037964 	4952 	0.037846
42.07 	0.042739 	4937 	0.042027
42.09 	0.037591 	4948 	0.037473
42.11 	0.034378 	4945 	0.034141
42.13 	0.038220 	4945 	0.037747
42.15 	0.039287 	4938 	0.039050
42.17 	0.041074 	4918 	0.040716
42.19 	0.041157 	4908 	0.040799
42.21 	0.039992 	4901 	0.039872
42.23 	0.040679 	4892 	0.039960
42.25 	0.046431 	4889 	0.045712
42.27 	0.035700 	4874 	0.035459
42.29 	0.037220 	4863 	0.036377
42.31 	0.041401 	4855 	0.040677
42.33 	0.039305 	4834 	0.038820
42.35 	0.039479 	4838 	0.038874
42.37 	0.042857 	4830 	0.041766
42.39 	0.041007 	4804 	0.040378
42.41 	0.041632 	4804 	0.041144
42.43 	0.038397 	4792 	0.037664
42.45 	0.035385 	4776 	0.034772
42.47 	0.035887 	4765 	0.035641
42.49 	0.045331 	4765 	0.045208
42.51 	0.039848 	4743 	0.039354
42.53 	0.042724 	4728 	0.042353
42.55 	0.037808 	4708 	0.037559
42.57 	0.038478 	4730 	0.037982
42.59 	0.036794 	4729 	0.036423
42.61 	0.038233 	4708 	0.037735
42.63 	0.042260 	4709 	0.041389
42.65 	0.040768 	4685 	0.040268
42.67 	0.034586 	4684 	0.034461
42.69 	0.042790 	4674 	0.042414
42.71 	0.041604 	4663 	0.040850
42.73 	0.034914 	4640 	0.034535
42.75 	0.037903 	4617 	0.037903
42.77 	0.035870 	4600 	0.035105
42.79 	0.038193 	4582 	0.037682
42.81 	0.039018 	4562 	0.038248
42.83 	0.036817 	4536 	0.036300
42.85 	0.036440 	4528 	0.035922
42.87 	0.040453 	4499 	0.040193
42.89 	0.036607 	4480 	0.036346
42.91 	0.033662 	4456 	0.033268
42.93 	0.037112 	4446 	0.036585
42.95 	0.040987 	4416 	0.040457
42.97 	0.040445 	4401 	0.039758
42.99 	0.034208 	4385 	0.033807
43.01 	0.042173 	4363 	0.041367
43.03 	0.041311 	4333 	0.041040
43.05 	0.040925 	4325 	0.040654
43.07 	0.040968 	4296 	0.040128
43.09 	0.042027 	4283 	0.041480
43.11 	0.038308 	4255 	0.037872
43.13 	0.034458 	4237 	0.034182
43.15 	0.040418 	4206 	0.039861
43.17 	0.041397 	4179 	0.041117
43.19 	0.035527 	4194 	0.035387
43.21 	0.033797 	4172 	0.033516
43.23 	0.038758 	4154 	0.038030
43.25 	0.034583 	4135 	0.034300
43.27 	0.040926 	4105 	0.040640
43.29 	0.035610 	4100 	0.034610
43.31 	0.040696 	4079 	0.040265
43.33 	0.041224 	4051 	0.040791
43.35 	0.041667 	4032 	0.041376
43.37 	0.036862 	4015 	0.036716
43.39 	0.038481 	4002 	0.037749
43.41 	0.040030 	3972 	0.038998
43.43 	0.036869 	3960 	0.036425
43.45 	0.038882 	3935 	0.038733
43.47 	0.040806 	3921 	0.040358
43.49 	0.042084 	3897 	0.041482
43.51 	0.034563 	3877 	0.034412
43.53 	0.035465 	3863 	0.035161
43.55 	0.040486 	2964 	0.040288
43.57 	0.038427 	2238 	0.038427
43.59 	0.034364 	1746 	0.033693
43.61 	0.039970 	1351 	0.037731
43.63 	0.034965 	1001 	0.034965
43.65 	0.030568 	687 	0.028862
43.67 	0.029880 	502 	0.029880
43.69 	0.051771 	367 	0.051771
43.71 	0.037657 	239 	0.037657
43.73 	0.008333 	120 	0.008333
43.75 	0.000000 	16 	0.000000