File: Example_Data/25SC_s1_0032.003.dat
#F C:\frames\spec\25SC_s1_0032.003
#C title =s:32 frm:3 25SC_s1
#C wavelength =0.15406

#S 1  fr_average C:\frames\spec\25SC_s1_0032.003 C:\win32app\speccom\mask.axs chi 0 180 0 360 0.02
#C 2 theta =0.000000 to 180 deg
#C   q   =0.000000 to 81.568 nm^-1
#C  chi  =0.000000 to 360 deg
#C collumns:
#C  1 position (2theta or chi in degrees)
#C  2 average intensity (sum of all counts in the region divided with number of pixels)
#C  3 Number of pixels in region)
#C  4 error (sum of sqrt(intensity) for all pixels divided by number)
#N 4
#L TTh  Int  N_pix  Err
32.99 	0.065574 	61 	0.065574
33.01 	0.067583 	873 	0.066241
33.03 	0.063983 	1391 	0.063562
33.05 	0.056346 	1757 	0.056346
33.07 	0.054634 	2050 	0.054063
33.09 	0.060503 	2347 	0.059504
33.11 	0.055060 	2579 	0.053924
33.13 	0.060866 	2793 	0.060028
33.15 	0.056686 	2999 	0.055514
33.17 	0.060294 	3201 	0.059379
33.19 	0.063136 	3342 	0.061909
33.21 	0.052678 	3436 	0.051825
33.23 	0.063298 	3523 	0.062134
33.25 	0.059247 	3612 	0.057787
33.27 	0.056474 	3630 	0.055183
33.29 	0.058936 	3648 	0.057973
33.31 	0.059563 	3660 	0.058763
33.33 	0.054259 	3686 	0.053783
33.35 	0.063075 	3694 	0.061648
33.37 	0.061120 	3714 	0.060331
33.39 	0.059265 	3729 	0.058323
33.41 	0.063904 	3740 	0.062651
33.43 	0.053975 	3761 	0.053040
33.45 	0.062285 	3773 	0.060577
33.47 	0.056872 	3798 	0.056255
33.49 	0.057233 	3809 	0.055670
33.51 	0.055308 	3815 	0.054694
33.53 	0.055715 	3841 	0.054952
33.55 	0.061410 	3843 	0.060496
33.57 	0.064483 	3877 	0.062947
33.59 	0.062887 	3880 	0.062585
33.61 	0.057048 	3909 	0.056598
33.63 	0.059709 	3919 	0.058513
33.65 	0.064106 	3931 	0.062616
33.67 	0.061710 	3954 	0.060821
33.69 	0.065520 	3953 	0.064334
33.71 	0.063145 	3975 	0.062260
33.73 	0.054695 	4004 	0.053964
33.75 	0.060515 	3999 	0.059026
33.77 	0.064348 	4025 	0.063620
33.79 	0.059391 	4041 	0.057942
33.81 	0.056711 	4038 	0.055841
33.83 	0.059753 	4050 	0.058596
33.85 	0.059039 	4099 	0.058158
33.87 	0.057893 	4111 	0.057466
33.89 	0.056297 	4121 	0.055302
33.91 	0.063630 	4149 	0.062500
33.93 	0.059504 	4151 	0.058234
33.95 	0.062186 	4181 	0.060925
33.97 	0.056802 	4190 	0.055101
33.99 	0.056190 	4200 	0.054935
34.01 	0.060527 	4213 	0.059276
34.03 	0.060320 	4244 	0.059216
34.05 	0.058325 	4252 	0.057637
34.07 	0.053421 	4268 	0.052460
34.09 	0.051330 	4286 	0.050920
34.11 	0.059507 	4302 	0.058146
34.13 	0.061513 	4308 	0.060267
34.15 	0.055184 	4331 	0.054372
34.17 	0.060230 	4350 	0.059153
34.19 	0.058001 	4362 	0.057061
34.21 	0.058339 	4371 	0.057535
34.23 	0.066697 	4393 	0.065897
34.25 	0.064487 	4404 	0.063157
34.27 	0.066033 	4422 	0.064576
34.29 	0.055919 	4435 	0.055258
34.31 	0.060341 	4458 	0.059553
34.33 	0.053456 	4471 	0.052538
34.35 	0.060883 	4484 	0.060099
34.37 	0.057226 	4491 	0.056182
34.39 	0.051088 	4502 	0.050438
34.41 	0.057667 	4526 	0.056631
34.43 	0.051333 	4539 	0.050171
34.45 	0.056891 	4535 	0.055857
34.47 	0.059451 	4592 	0.058431
34.49 	0.060039 	4597 	0.058362
34.51 	0.055580 	4606 	0.054562
34.53 	0.054921 	4643 	0.053786
34.55 	0.051475 	4643 	0.050845
34.57 	0.061803 	4660 	0.060671
34.59 	0.055615 	4675 	0.054988
34.61 	0.059613 	4697 	0.058615
34.63 	0.055839 	4710 	0.055217
34.65 	0.050625 	4721 	0.049756
34.67 	0.060747 	4741 	0.060376
34.69 	0.054270 	4754 	0.053408
34.71 	0.059169 	4766 	0.058432
34.73 	0.058074 	4787 	0.057340
34.75 	0.057196 	4808 	0.055978
34.77 	0.053964 	4818 	0.053356
34.79 	0.050580 	4824 	0.049488
34.81 	0.055315 	4845 	0.054207
34.83 	0.058618 	4862 	0.057293
34.85 	0.055658 	4869 	0.054936
34.87 	0.057108 	4868 	0.056226
34.89 	0.053257 	4882 	0.052297
34.91 	0.061041 	4882 	0.060201
34.93 	0.055726 	4899 	0.054889
34.95 	0.058282 	4890 	0.057444
34.97 	0.049572 	4902 	0.048616
34.99 	0.058607 	4897 	0.057291
35.01 	0.055657 	4923 	0.054567
35.03 	0.056646 	4943 	0.055342
35.05 	0.061856 	4947 	0.060672
35.07 	0.055061 	4940 	0.054349
35.09 	0.057945 	4953 	0.057117
35.11 	0.059834 	4947 	0.058887
35.13 	0.053247 	4958 	0.052538
35.15 	0.058538 	4937 	0.058182
35.17 	0.050950 	4946 	0.049865
35.19 	0.063739 	4942 	0.062436
35.21 	0.062690 	4945 	0.061623
35.23 	0.056218 	4945 	0.054896
35.25 	0.058467 	4943 	0.057281
35.27 	0.055174 	4948 	0.054700
35.29 	0.056825 	4945 	0.056351
35.31 	0.058788 	4933 	0.058194
35.33 	0.060490 	4943 	0.059423
35.35 	0.055848 	4942 	0.054544
35.37 	0.059121 	4939 	0.057935
35.39 	0.053387 	4945 	0.052795
35.41 	0.055420 	4926 	0.054806
35.43 	0.057977 	4933 	0.057264
35.45 	0.065222 	4937 	0.064273
35.47 	0.050902 	4931 	0.050427
35.49 	0.056415 	4910 	0.055700
35.51 	0.057856 	4926 	0.056429
35.53 	0.061224 	4949 	0.060041
35.55 	0.055612 	4945 	0.054901
35.57 	0.056963 	4933 	0.055776
35.59 	0.061476 	4945 	0.060055
35.61 	0.057467 	4942 	0.056163
35.63 	0.061097 	4943 	0.060741
35.65 	0.053792 	4945 	0.052489
35.67 	0.056657 	4942 	0.055709
35.69 	0.059644 	4946 	0.058697
35.71 	0.057525 	4937 	0.057169
35.73 	0.054903 	4936 	0.054309
35.75 	0.054147 	4931 	0.053316
35.77 	0.053928 	4951 	0.053100
35.79 	0.065491 	4932 	0.064422
35.81 	0.063248 	4933 	0.061566
35.83 	0.052366 	4946 	0.051418
35.85 	0.054914 	4935 	0.054083
35.87 	0.051595 	4923 	0.051238
35.89 	0.052696 	4934 	0.051983
35.91 	0.057033 	4927 	0.056438
35.93 	0.066775 	4927 	0.065566
35.95 	0.046776 	4917 	0.046300
35.97 	0.056189 	4912 	0.055950
35.99 	0.059729 	4939 	0.059136
36.01 	0.057201 	4930 	0.056013
36.03 	0.057253 	4943 	0.056167
36.05 	0.054803 	4945 	0.053737
36.07 	0.055679 	4939 	0.054730
36.09 	0.055870 	4940 	0.055040
36.11 	0.057010 	4929 	0.055940
36.13 	0.054836 	4942 	0.053888
36.15 	0.055274 	4939 	0.054088
36.17 	0.057665 	4925 	0.057070
36.19 	0.059919 	4940 	0.059089
36.21 	0.060459 	4929 	0.058894
36.23 	0.054711 	4935 	0.054118
36.25 	0.053633 	4941 	0.052665
36.27 	0.059289 	4925 	0.057605
36.29 	0.056175 	4931 	0.054631
36.31 	0.057630 	4928 	0.057154
36.33 	0.054125 	4933 	0.053532
36.35 	0.054169 	4929 	0.053337
36.37 	0.058704 	4923 	0.057633
36.39 	0.051006 	4921 	0.050292
36.41 	0.056577 	4896 	0.055859
36.43 	0.057224 	4928 	0.056511
36.45 	0.058621 	4930 	0.057551
36.47 	0.055308 	4936 	0.054695
36.49 	0.060907 	4942 	0.059247
36.51 	0.053923 	4933 	0.053072
36.53 	0.050172 	4943 	0.048987
36.55 	0.054597 	4927 	0.054122
36.57 	0.050872 	4934 	0.050159
36.59 	0.052237 	4939 	0.051032
36.61 	0.051308 	4931 	0.050358
36.63 	0.055567 	4931 	0.055210
36.65 	0.056569 	4932 	0.055975
36.67 	0.046856 	4930 	0.046737
36.69 	0.054575 	4929 	0.053387
36.71 	0.049583 	4921 	0.049226
36.73 	0.048325 	4925 	0.047968
36.75 	0.055016 	4944 	0.054424
36.77 	0.062614 	4919 	0.061304
36.79 	0.053241 	4921 	0.052765
36.81 	0.049837 	4916 	0.048884
36.83 	0.054934 	4915 	0.054100
36.85 	0.050837 	4898 	0.050000
36.87 	0.045914 	4944 	0.045322
36.89 	0.058381 	4916 	0.057189
36.91 	0.051407 	4941 	0.050932
36.93 	0.050304 	4930 	0.049354
36.95 	0.054328 	4933 	0.053002
36.97 	0.052290 	4934 	0.051340
36.99 	0.050456 	4935 	0.049506
37.01 	0.050882 	4933 	0.050169
37.03 	0.053209 	4924 	0.052733
37.05 	0.056018 	4927 	0.055780
37.07 	0.053495 	4935 	0.052902
37.09 	0.056006 	4928 	0.055412
37.11 	0.051064 	4935 	0.050352
37.13 	0.054833 	4924 	0.054239
37.15 	0.054390 	4909 	0.053913
37.17 	0.048034 	4934 	0.047559
37.19 	0.052792 	4925 	0.051602
37.21 	0.055115 	4917 	0.053765
37.23 	0.051240 	4918 	0.050764
37.25 	0.050092 	4911 	0.048879
37.27 	0.046179 	4894 	0.045581
37.29 	0.052535 	4930 	0.051941
37.31 	0.049240 	4935 	0.048647
37.33 	0.053988 	4927 	0.053275
37.35 	0.047185 	4938 	0.046829
37.37 	0.051756 	4927 	0.050804
37.39 	0.052930 	4931 	0.052099
37.41 	0.056784 	4931 	0.056190
37.43 	0.051500 	4932 	0.051025
37.45 	0.054021 	4924 	0.053188
37.47 	0.053763 	4929 	0.053150
37.49 	0.053220 	4923 	0.052506
37.51 	0.045408 	4933 	0.045052
37.53 	0.052856 	4919 	0.052142
37.55 	0.054158 	4930 	0.053445
37.57 	0.063553 	4925 	0.062483
37.59 	0.052492 	4915 	0.051896
37.61 	0.054449 	4922 	0.053735
37.63 	0.049604 	4919 	0.049484
37.65 	0.055714 	4918 	0.055356
37.67 	0.053834 	4904 	0.053117
37.69 	0.052266 	4898 	0.051668
37.71 	0.052343 	4929 	0.051749
37.73 	0.054575 	4929 	0.053268
37.75 	0.053441 	4940 	0.052848
37.77 	0.054472 	4920 	0.053400
37.79 	0.049290 	4930 	0.048696
37.81 	0.050476 	4933 	0.049526
37.83 	0.048171 	4920 	0.047456
37.85 	0.048964 	4922 	0.048250
37.87 	0.052035 	4939 	0.051442
37.89 	0.052183 	4925 	0.051112
37.91 	0.052333 	4930 	0.051382
37.93 	0.053060 	4919 	0.051849
37.95 	0.052835 	4921 	0.052359
37.97 	0.047271 	4929 	0.046915
37.99 	0.050081 	4912 	0.049485
38.01 	0.053977 	4928 	0.053502
38.03 	0.059075 	4909 	0.058359
38.05 	0.051371 	4925 	0.050419
38.07 	0.051334 	4909 	0.050022
38.09 	0.054531 	4878 	0.053430
38.11 	0.052888 	4935 	0.051701
38.13 	0.052056 	4937 	0.051107
38.15 	0.051240 	4918 	0.050407
38.17 	0.056592 	4930 	0.055503
38.19 	0.051318 	4930 	0.050249
38.21 	0.056876 	4923 	0.055686
38.23 	0.058121 	4938 	0.057290
38.25 	0.061826 	4917 	0.060278
38.27 	0.049087 	4930 	0.047899
38.29 	0.053209 	4924 	0.052852
38.31 	0.057033 	4927 	0.055963
38.33 	0.054427 	4924 	0.053595
38.35 	0.059050 	4928 	0.057981
38.37 	0.056052 	4924 	0.055457
38.39 	0.058464 	4909 	0.057629
38.41 	0.065610 	4923 	0.064183
38.43 	0.055533 	4916 	0.054580
38.45 	0.057950 	4918 	0.056402
38.47 	0.050132 	4907 	0.049536
38.49 	0.059463 	4877 	0.058742
38.51 	0.059813 	4932 	0.058982
38.53 	0.059038 	4929 	0.057949
38.55 	0.053282 	4936 	0.052194
38.57 	0.061548 	4923 	0.060596
38.59 	0.050975 	4924 	0.050618
38.61 	0.057536 	4936 	0.055974
38.63 	0.057474 	4924 	0.056641
38.65 	0.052257 	4918 	0.051423
38.67 	0.056512 	4937 	0.055444
38.69 	0.050589 	4922 	0.049856
38.71 	0.054630 	4924 	0.053203
38.73 	0.046157 	4918 	0.045085
38.75 	0.050538 	4927 	0.049943
38.77 	0.058704 	4923 	0.057752
38.79 	0.048237 	4934 	0.047643
38.81 	0.055171 	4912 	0.054694
38.83 	0.044725 	4919 	0.044367
38.85 	0.051099 	4912 	0.050622
38.87 	0.050295 	4911 	0.049580
38.89 	0.050847 	4897 	0.050010
38.91 	0.050377 	4903 	0.049422
38.93 	0.057513 	4938 	0.056564
38.95 	0.047784 	4918 	0.047307
38.97 	0.045021 	4931 	0.044190
38.99 	0.043751 	4937 	0.043277
39.01 	0.046360 	4918 	0.046122
39.03 	0.049655 	4934 	0.048943
39.05 	0.049949 	4925 	0.049592
39.07 	0.047929 	4924 	0.047453
39.09 	0.048141 	4923 	0.047051
39.11 	0.049077 	4931 	0.048246
39.13 	0.052204 	4923 	0.051966
39.15 	0.051679 	4915 	0.050725
39.17 	0.045979 	4937 	0.045386
39.19 	0.048810 	4917 	0.048095
39.21 	0.047658 	4910 	0.046465
39.23 	0.047513 	4925 	0.046680
39.25 	0.047745 	4922 	0.047031
39.27 	0.046436 	4910 	0.046317
39.29 	0.042236 	4901 	0.041639
39.31 	0.052007 	4884 	0.051167
39.33 	0.050497 	4931 	0.049665
39.35 	0.049645 	4935 	0.049171
39.37 	0.052952 	4929 	0.052239
39.39 	0.046460 	4929 	0.045747
39.41 	0.045832 	4931 	0.045120
39.43 	0.041962 	4933 	0.041131
39.45 	0.048934 	4925 	0.048339
39.47 	0.045704 	4923 	0.045466
39.49 	0.049260 	4933 	0.048429
39.51 	0.049350 	4924 	0.048874
39.53 	0.053220 	4923 	0.052506
39.55 	0.049807 	4919 	0.048973
39.57 	0.053112 	4933 	0.052755
39.59 	0.044992 	4912 	0.044257
39.61 	0.052204 	4923 	0.051252
39.63 	0.046119 	4922 	0.045643
39.65 	0.049533 	4926 	0.048939
39.67 	0.047832 	4913 	0.047236
39.69 	0.053702 	4916 	0.053106
39.71 	0.047600 	4895 	0.046642
39.73 	0.046659 	4908 	0.046062
39.75 	0.047687 	4928 	0.046973
39.77 	0.050456 	4935 	0.049625
39.79 	0.049330 	4926 	0.048735
39.81 	0.043434 	4927 	0.043196
39.83 	0.046413 	4934 	0.045582
39.85 	0.047493 	4927 	0.046542
39.87 	0.046701 	4925 	0.045868
39.89 	0.047223 	4934 	0.046630
39.91 	0.054043 	4922 	0.053686
39.93 	0.047397 	4937 	0.046567
39.95 	0.046592 	4915 	0.045877
39.97 	0.049513 	4928 	0.049038
39.99 	0.048459 	4932 	0.047746
40.01 	0.054290 	4918 	0.053913
40.03 	0.047281 	4928 	0.046211
40.05 	0.052268 	4917 	0.051672
40.07 	0.049360 	4923 	0.048408
40.09 	0.049430 	4916 	0.048596
40.11 	0.041090 	4916 	0.040852
40.13 	0.049020 	4896 	0.047684
40.15 	0.046000 	4913 	0.045285
40.17 	0.046875 	4928 	0.046162
40.19 	0.044025 	4929 	0.043074
40.21 	0.052685 	4935 	0.052210
40.23 	0.045215 	4932 	0.044621
40.25 	0.046748 	4920 	0.046153
40.27 	0.045169 	4937 	0.045050
40.29 	0.046479 	4927 	0.045646
40.31 	0.044341 	4939 	0.043867
40.33 	0.046634 	4932 	0.045684
40.35 	0.050010 	4919 	0.049653
40.37 	0.042199 	4929 	0.041724
40.39 	0.040560 	4931 	0.040203
40.41 	0.040609 	4925 	0.040014
40.43 	0.045713 	4922 	0.044880
40.45 	0.048449 	4933 	0.047974
40.47 	0.048190 	4918 	0.047952
40.49 	0.042022 	4926 	0.041190
40.51 	0.041853 	4922 	0.041615
40.53 	0.049837 	4916 	0.049599
40.55 	0.043195 	4908 	0.042598
40.57 	0.048466 	4890 	0.047987
40.59 	0.044967 	4937 	0.044373
40.61 	0.042351 	4935 	0.041876
40.63 	0.048073 	4930 	0.047479
40.65 	0.037877 	4937 	0.037521
40.67 	0.040146 	4932 	0.039552
40.69 	0.049423 	4937 	0.048948
40.71 	0.047445 	4932 	0.046614
40.73 	0.046082 	4926 	0.045606
40.75 	0.043805 	4931 	0.043092
40.77 	0.045758 	4939 	0.045402
40.79 	0.051990 	4924 	0.051514
40.81 	0.041894 	4941 	0.041657
40.83 	0.052354 	4928 	0.051997
40.85 	0.038587 	4924 	0.038349
40.87 	0.041802 	4928 	0.041445
40.89 	0.047252 	4931 	0.046539
40.91 	0.043063 	4923 	0.042349
40.93 	0.041143 	4934 	0.040431
40.95 	0.052107 	4913 	0.051272
40.97 	0.041633 	4924 	0.040919
40.99 	0.054224 	4924 	0.053510
41.01 	0.048656 	4912 	0.047822
41.03 	0.046075 	4905 	0.045339
41.05 	0.047407 	4936 	0.047051
41.07 	0.044828 	4930 	0.044352
41.09 	0.047176 	4939 	0.046701
41.11 	0.043364 	4935 	0.042770
41.13 	0.040924 	4936 	0.040330
41.15 	0.044728 	4941 	0.044609
41.17 	0.048845 	4934 	0.048251
41.19 	0.040568 	4930 	0.040093
41.21 	0.046992 	4937 	0.046261
41.23 	0.042924 	4939 	0.042331
41.25 	0.048855 	4933 	0.048261
41.27 	0.046846 	4931 	0.046134
41.29 	0.042411 	4928 	0.041816
41.31 	0.044598 	4933 	0.044123
41.33 	0.041523 	4937 	0.041286
41.35 	0.042325 	4938 	0.042206
41.37 	0.039602 	4924 	0.039483
41.39 	0.040949 	4933 	0.040474
41.41 	0.040195 	4926 	0.039362
41.43 	0.041185 	4929 	0.040234
41.45 	0.045991 	4914 	0.045633
41.47 	0.041210 	4926 	0.040734
41.49 	0.044358 	4892 	0.043021
41.51 	0.042915 	4940 	0.042678
41.53 	0.047532 	4944 	0.047058
41.55 	0.044782 	4935 	0.044545
41.57 	0.041490 	4941 	0.040660
41.59 	0.042773 	4933 	0.041942
41.61 	0.040985 	4953 	0.040749
41.63 	0.043337 	4938 	0.043100
41.65 	0.041996 	4929 	0.041640
41.67 	0.042308 	4940 	0.042189
41.69 	0.041035 	4947 	0.040443
41.71 	0.044386 	4934 	0.043555
41.73 	0.039911 	4936 	0.039674
41.75 	0.045851 	4929 	0.044900
41.77 	0.047764 	4941 	0.046697
41.79 	0.041869 	4944 	0.041158
41.81 	0.041126 	4936 	0.040770
41.83 	0.045049 	4928 	0.044573
41.85 	0.041304 	4939 	0.040829
41.87 	0.040729 	4935 	0.040492
41.89 	0.043381 	4933 	0.043263
41.91 	0.048420 	4936 	0.047945
41.93 	0.040754 	4932 	0.040279
41.95 	0.043805 	4931 	0.043329
41.97 	0.042735 	4914 	0.042377
41.99 	0.043629 	4905 	0.043271
42.01 	0.040065 	4942 	0.039828
42.03 	0.041911 	4939 	0.041674
42.05 	0.041801 	4952 	0.041092
42.07 	0.042536 	4937 	0.042180
42.09 	0.044462 	4948 	0.043989
42.11 	0.038220 	4945 	0.037628
42.13 	0.038018 	4945 	0.037307
42.15 	0.043135 	4938 	0.042186
42.17 	0.038634 	4918 	0.037919
42.19 	0.043399 	4908 	0.043040
42.21 	0.040400 	4901 	0.039922
42.23 	0.040679 	4892 	0.040080
42.25 	0.039476 	4889 	0.039357
42.27 	0.042060 	4874 	0.041459
42.29 	0.042155 	4863 	0.041794
42.31 	0.045932 	4855 	0.045188
42.33 	0.042408 	4834 	0.042166
42.35 	0.042166 	4838 	0.041682
42.37 	0.038923 	4830 	0.038560
42.39 	0.041007 	4804 	0.040520
42.41 	0.041840 	4804 	0.041352
42.43 	0.042362 	4792 	0.041873
42.45 	0.037479 	4776 	0.037111
42.47 	0.043442 	4765 	0.043073
42.49 	0.043232 	4765 	0.042494
42.51 	0.042378 	4743 	0.041740
42.53 	0.040186 	4728 	0.040062
42.55 	0.040782 	4708 	0.040408
42.57 	0.045032 	4730 	0.044041
42.59 	0.040601 	4729 	0.040601
42.61 	0.037383 	4708 	0.036761
42.63 	0.041198 	4709 	0.040576
42.65 	0.041622 	4685 	0.040997
42.67 	0.044833 	4684 	0.044333
42.69 	0.041506 	4674 	0.041005
42.71 	0.043105 	4663 	0.042603
42.73 	0.043103 	4640 	0.042598
42.75 	0.039853 	4617 	0.039853
42.77 	0.035652 	4600 	0.035397
42.79 	0.038193 	4582 	0.037809
42.81 	0.040552 	4562 	0.040039
42.83 	0.043430 	4536 	0.043043
42.85 	0.043949 	4528 	0.043173
42.87 	0.040898 	4499 	0.040768
42.89 	0.042634 	4480 	0.042242
42.91 	0.042864 	4456 	0.042338
42.93 	0.044759 	4446 	0.043837
42.95 	0.038723 	4416 	0.038590
42.97 	0.042263 	4401 	0.041465
42.99 	0.043101 	4385 	0.042567
43.01 	0.039652 	4363 	0.039249
43.03 	0.039003 	4333 	0.038733
43.05 	0.042081 	4325 	0.041268
43.07 	0.040037 	4296 	0.039765
43.09 	0.043428 	4283 	0.043017
43.11 	0.040423 	4255 	0.040010
43.13 	0.037999 	4237 	0.037860
43.15 	0.036614 	4206 	0.036057
43.17 	0.036372 	4179 	0.035812
43.19 	0.044826 	4194 	0.044407
43.21 	0.044823 	4172 	0.044682
43.23 	0.042128 	4154 	0.041423
43.25 	0.040387 	4135 	0.040245
43.27 	0.044336 	4105 	0.043480
43.29 	0.042927 	4100 	0.041927
43.31 	0.043148 	4079 	0.042717
43.33 	0.041718 	4051 	0.040561
43.35 	0.043651 	4032 	0.043215
43.37 	0.041843 	4015 	0.041405
43.39 	0.041729 	4002 	0.041290
43.41 	0.042548 	3972 	0.042253
43.43 	0.039899 	3960 	0.039751
43.45 	0.038374 	3935 	0.037778
43.47 	0.042081 	3921 	0.041484
43.49 	0.045676 	3897 	0.045075
43.51 	0.040495 	3877 	0.040193
43.53 	0.040124 	3863 	0.040124
43.55 	0.041498 	2964 	0.040905
43.57 	0.043342 	2238 	0.042819
43.59 	0.042955 	1746 	0.042955
43.61 	0.037750 	1351 	0.037316
43.63 	0.046953 	1001 	0.045197
43.65 	0.036390 	687 	0.036390
43.67 	0.033865 	502 	0.033865
43.69 	0.038147 	367 	0.038147
43.71 	0.054393 	239 	0.054393
43.73 	0.041667 	120 	0.041667
43.75 	0.000000 	16 	0.000000