File: Example_Data/25SC_s1_0036.000.dat
#F C:\frames\spec\25SC_s1_0036.000
#C title =s:36 frm:0 25SC_s1
#C wavelength =0.15406

#S 1  fr_average C:\frames\spec\25SC_s1_0036.000 C:\win32app\speccom\mask.axs chi 0 180 0 360 0.02
#C 2 theta =0.000000 to 180 deg
#C   q   =0.000000 to 81.568 nm^-1
#C  chi  =0.000000 to 360 deg
#C collumns:
#C  1 position (2theta or chi in degrees)
#C  2 average intensity (sum of all counts in the region divided with number of pixels)
#C  3 Number of pixels in region)
#C  4 error (sum of sqrt(intensity) for all pixels divided by number)
#N 4
#L TTh  Int  N_pix  Err
32.99 	0.065574 	61 	0.065574
33.01 	0.057274 	873 	0.057274
33.03 	0.065421 	1391 	0.062894
33.05 	0.063176 	1757 	0.062509
33.07 	0.056098 	2050 	0.055812
33.09 	0.058798 	2347 	0.057551
33.11 	0.060101 	2579 	0.058965
33.13 	0.066595 	2793 	0.065092
33.15 	0.061354 	2999 	0.060182
33.17 	0.060918 	3201 	0.059424
33.19 	0.063734 	3342 	0.063033
33.21 	0.067229 	3436 	0.065695
33.23 	0.064718 	3523 	0.063387
33.25 	0.058416 	3612 	0.056957
33.27 	0.060606 	3630 	0.059638
33.29 	0.054002 	3648 	0.052878
33.31 	0.060109 	3660 	0.058989
33.33 	0.064026 	3686 	0.061960
33.35 	0.058202 	3694 	0.056934
33.37 	0.060043 	3714 	0.059570
33.39 	0.053366 	3729 	0.052580
33.41 	0.060963 	3740 	0.059710
33.43 	0.056368 	3761 	0.054966
33.45 	0.057514 	3773 	0.056738
33.47 	0.059768 	3798 	0.058689
33.49 	0.061959 	3809 	0.060882
33.51 	0.055570 	3815 	0.054649
33.53 	0.058318 	3841 	0.057251
33.55 	0.064533 	3843 	0.062984
33.57 	0.064483 	3877 	0.063727
33.59 	0.063144 	3880 	0.061786
33.61 	0.053211 	3909 	0.052012
33.63 	0.062006 	3919 	0.060511
33.65 	0.062071 	3931 	0.060681
33.67 	0.061204 	3954 	0.060291
33.69 	0.065520 	3953 	0.064779
33.71 	0.062138 	3975 	0.061107
33.73 	0.061189 	4004 	0.060141
33.75 	0.061265 	3999 	0.060679
33.77 	0.060870 	4025 	0.059536
33.79 	0.061618 	4041 	0.060580
33.81 	0.062655 	4038 	0.061929
33.83 	0.065926 	4050 	0.065203
33.85 	0.057331 	4099 	0.056902
33.87 	0.063731 	4111 	0.062164
33.89 	0.068915 	4121 	0.068347
33.91 	0.051097 	4149 	0.050391
33.93 	0.061431 	4151 	0.060443
33.95 	0.061708 	4181 	0.060307
33.97 	0.056563 	4190 	0.055585
33.99 	0.065476 	4200 	0.064360
34.01 	0.055780 	4213 	0.055363
34.03 	0.057729 	4244 	0.057038
34.05 	0.069614 	4252 	0.068512
34.07 	0.061153 	4268 	0.060329
34.09 	0.053430 	4286 	0.052200
34.11 	0.064156 	4302 	0.063748
34.13 	0.063603 	4308 	0.063059
34.15 	0.059109 	4331 	0.058275
34.17 	0.064138 	4350 	0.063195
34.19 	0.065108 	4362 	0.064705
34.21 	0.060627 	4371 	0.059421
34.23 	0.058047 	4393 	0.056980
34.25 	0.055631 	4404 	0.054966
34.27 	0.063320 	4422 	0.062128
34.29 	0.061781 	4435 	0.060857
34.31 	0.054284 	4458 	0.054022
34.33 	0.055692 	4471 	0.054492
34.35 	0.061106 	4484 	0.059930
34.37 	0.065242 	4491 	0.064720
34.39 	0.059307 	4502 	0.058526
34.41 	0.056341 	4526 	0.055435
34.43 	0.059705 	4539 	0.058801
34.45 	0.057111 	4535 	0.056078
34.47 	0.062282 	4592 	0.061262
34.49 	0.059822 	4597 	0.058930
34.51 	0.058402 	4606 	0.057639
34.53 	0.059875 	4643 	0.058971
34.55 	0.059875 	4643 	0.058109
34.57 	0.059657 	4660 	0.058148
34.59 	0.056471 	4675 	0.055468
34.61 	0.059825 	4697 	0.058828
34.63 	0.050955 	4710 	0.050209
34.65 	0.063758 	4721 	0.062269
34.67 	0.062434 	4741 	0.061446
34.69 	0.061422 	4754 	0.060436
34.71 	0.057071 	4766 	0.056579
34.73 	0.056194 	4787 	0.055460
34.75 	0.052413 	4808 	0.051803
34.77 	0.051889 	4818 	0.051524
34.79 	0.056177 	4824 	0.054963
34.81 	0.052219 	4845 	0.051735
34.83 	0.054093 	4862 	0.052868
34.85 	0.056891 	4869 	0.056048
34.87 	0.061011 	4868 	0.059928
34.89 	0.061245 	4882 	0.060165
34.91 	0.054076 	4882 	0.053356
34.93 	0.056950 	4899 	0.055635
34.95 	0.056442 	4890 	0.055843
34.97 	0.058140 	4902 	0.057423
34.99 	0.058199 	4897 	0.057122
35.01 	0.059923 	4923 	0.058594
35.03 	0.058467 	4943 	0.057400
35.05 	0.060239 	4947 	0.058680
35.07 	0.062551 	4940 	0.061602
35.09 	0.061579 	4953 	0.060514
35.11 	0.057004 	4947 	0.056057
35.13 	0.056273 	4958 	0.055682
35.15 	0.060968 	4937 	0.059663
35.17 	0.058835 	4946 	0.057533
35.19 	0.057264 	4942 	0.056534
35.21 	0.057634 	4945 	0.056449
35.23 	0.053589 	4945 	0.052523
35.25 	0.053409 	4943 	0.052579
35.27 	0.061237 	4948 	0.060053
35.29 	0.055207 	4945 	0.054733
35.31 	0.060207 	4933 	0.058663
35.33 	0.060692 	4943 	0.059862
35.35 	0.056253 	4942 	0.054949
35.37 	0.059931 	4939 	0.059101
35.39 	0.048332 	4945 	0.047976
35.41 	0.055826 	4926 	0.055469
35.43 	0.053720 	4933 	0.053126
35.45 	0.057120 	4937 	0.056289
35.47 	0.054147 	4931 	0.053434
35.49 	0.052749 	4910 	0.051795
35.51 	0.052375 	4926 	0.051899
35.53 	0.060416 	4949 	0.059114
35.55 	0.057432 	4945 	0.056247
35.57 	0.058585 	4933 	0.057635
35.59 	0.058847 	4945 	0.058610
35.61 	0.054836 	4942 	0.054125
35.63 	0.058871 	4943 	0.057331
35.65 	0.053792 	4945 	0.052962
35.67 	0.054229 	4942 	0.053399
35.69 	0.056005 	4946 	0.055176
35.71 	0.061171 	4937 	0.060083
35.73 	0.058347 	4936 	0.057279
35.75 	0.056378 	4931 	0.055665
35.77 	0.059786 	4951 	0.058721
35.79 	0.059408 	4932 	0.058220
35.81 	0.057571 	4933 	0.056265
35.83 	0.062070 	4946 	0.061103
35.85 	0.055522 	4935 	0.054810
35.87 	0.060735 	4923 	0.059664
35.89 	0.057154 	4934 	0.056205
35.91 	0.058047 	4927 	0.057215
35.93 	0.056627 	4927 	0.056270
35.95 	0.058979 	4917 	0.057669
35.97 	0.056189 	4912 	0.055473
35.99 	0.058716 	4939 	0.057511
36.01 	0.061866 	4930 	0.060559
36.03 	0.050779 	4943 	0.050423
36.05 	0.055005 	4945 	0.053820
36.07 	0.058514 	4939 	0.057802
36.09 	0.055870 	4940 	0.054685
36.11 	0.061879 	4929 	0.061641
36.13 	0.059085 	4942 	0.058374
36.15 	0.055882 	4939 	0.055052
36.17 	0.054619 	4925 	0.053886
36.19 	0.061134 	4940 	0.059948
36.21 	0.059038 	4929 	0.057593
36.23 	0.056332 	4935 	0.055858
36.25 	0.060514 	4941 	0.059684
36.27 	0.057665 	4925 	0.056575
36.29 	0.061042 	4931 	0.060211
36.31 	0.062703 	4928 	0.061495
36.33 	0.058585 	4933 	0.057635
36.35 	0.057618 	4929 	0.056054
36.37 	0.065001 	4923 	0.064149
36.39 	0.057305 	4921 	0.055758
36.41 	0.059232 	4896 	0.058155
36.43 	0.060674 	4928 	0.059247
36.45 	0.060852 	4930 	0.059783
36.47 	0.064222 	4936 	0.062917
36.49 	0.057467 	4942 	0.056637
36.51 	0.057774 	4933 	0.056824
36.53 	0.052195 	4943 	0.051602
36.55 	0.055612 	4927 	0.054542
36.57 	0.054722 	4934 	0.054010
36.59 	0.055072 	4939 	0.053886
36.61 	0.061042 	4931 	0.060092
36.63 	0.053944 	4931 	0.052994
36.65 	0.057786 	4932 	0.056004
36.67 	0.056592 	4930 	0.055642
36.69 	0.056807 	4929 	0.055737
36.71 	0.057509 	4921 	0.056556
36.73 	0.060711 	4925 	0.059997
36.75 	0.054207 	4944 	0.052785
36.77 	0.056312 	4919 	0.055836
36.79 	0.063199 	4921 	0.062365
36.81 	0.057364 	4916 	0.055795
36.83 	0.059003 	4915 	0.058050
36.85 	0.056758 	4898 	0.055681
36.87 	0.054409 	4944 	0.053580
36.89 	0.051871 	4916 	0.051276
36.91 	0.060716 	4941 	0.059768
36.93 	0.061258 	4930 	0.060188
36.95 	0.056558 	4933 	0.055489
36.97 	0.060195 	4934 	0.059007
36.99 	0.056130 	4935 	0.054824
37.01 	0.059396 	4933 	0.058446
37.03 	0.050772 	4924 	0.050038
37.05 	0.059468 	4927 	0.058160
37.07 	0.057548 	4935 	0.056460
37.09 	0.055398 	4928 	0.055041
37.11 	0.059372 	4935 	0.058660
37.13 	0.057067 	4924 	0.056354
37.15 	0.058260 	4909 	0.057544
37.17 	0.054317 	4934 	0.053842
37.19 	0.056244 	4925 	0.055292
37.21 	0.055522 	4917 	0.054449
37.23 	0.054087 	4918 	0.053253
37.25 	0.057218 	4911 	0.056145
37.27 	0.054148 	4894 	0.052592
37.29 	0.058215 	4930 	0.057859
37.31 	0.053293 	4935 	0.052818
37.33 	0.060077 	4927 	0.059245
37.35 	0.061158 	4938 	0.060209
37.37 	0.059874 	4927 	0.058646
37.39 	0.055770 	4931 	0.054938
37.41 	0.056986 	4931 	0.055561
37.43 	0.052920 	4932 	0.052207
37.45 	0.054021 	4924 	0.053545
37.47 	0.057212 	4929 	0.056856
37.49 	0.054438 	4923 	0.054319
37.51 	0.054125 	4933 	0.053275
37.53 	0.057532 	4919 	0.056222
37.55 	0.056998 	4930 	0.055691
37.57 	0.061523 	4925 	0.060671
37.59 	0.057172 	4915 	0.056814
37.61 	0.053230 	4922 	0.052278
37.63 	0.055092 	4919 	0.054378
37.65 	0.055510 	4918 	0.054319
37.67 	0.060971 	4904 	0.059776
37.69 	0.052062 	4898 	0.051344
37.71 	0.060864 	4929 	0.060270
37.73 	0.051938 	4929 	0.050987
37.75 	0.055668 	4940 	0.055075
37.77 	0.054675 	4920 	0.053960
37.79 	0.053753 	4930 	0.052664
37.81 	0.058585 	4933 	0.057398
37.83 	0.051829 	4920 	0.051234
37.85 	0.055262 	4922 	0.053953
37.87 	0.062968 	4939 	0.061664
37.89 	0.052183 	4925 	0.051469
37.91 	0.052738 	4930 	0.052263
37.93 	0.050620 	4919 	0.050144
37.95 	0.050803 	4921 	0.050565
37.97 	0.053155 	4929 	0.051947
37.99 	0.061686 	4912 	0.060374
38.01 	0.060877 	4928 	0.060045
38.03 	0.055408 	4909 	0.054215
38.05 	0.051168 	4925 	0.050315
38.07 	0.054797 	4909 	0.054320
38.09 	0.059041 	4878 	0.058060
38.11 	0.062614 	4935 	0.061664
38.13 	0.057120 	4937 	0.056289
38.15 	0.054087 	4918 	0.053234
38.17 	0.055984 	4930 	0.055033
38.19 	0.059838 	4930 	0.059481
38.21 	0.061142 	4923 	0.059932
38.23 	0.059943 	4938 	0.058500
38.25 	0.065284 	4917 	0.063735
38.27 	0.066937 	4930 	0.065630
38.29 	0.070065 	4924 	0.068399
38.31 	0.069210 	4927 	0.067427
38.33 	0.066003 	4924 	0.064913
38.35 	0.068791 	4928 	0.067245
38.37 	0.073111 	4924 	0.071803
38.39 	0.077409 	4909 	0.076335
38.41 	0.077798 	4923 	0.076370
38.43 	0.074451 	4916 	0.073021
38.45 	0.094754 	4918 	0.092352
38.47 	0.077237 	4907 	0.074949
38.49 	0.088169 	4877 	0.086588
38.51 	0.071776 	4932 	0.070470
38.53 	0.088456 	4929 	0.086060
38.55 	0.084076 	4936 	0.082533
38.57 	0.083283 	4923 	0.081478
38.59 	0.075751 	4924 	0.073729
38.61 	0.068476 	4936 	0.068002
38.63 	0.074939 	4924 	0.074106
38.65 	0.083571 	4918 	0.081903
38.67 	0.068463 	4937 	0.067276
38.69 	0.069281 	4922 	0.067734
38.71 	0.068034 	4924 	0.066210
38.73 	0.070964 	4918 	0.069773
38.75 	0.070022 	4927 	0.068596
38.77 	0.058298 	4923 	0.056513
38.79 	0.064856 	4934 	0.064144
38.81 	0.061279 	4912 	0.060086
38.83 	0.060581 	4919 	0.059986
38.85 	0.055578 	4912 	0.054743
38.87 	0.060680 	4911 	0.059368
38.89 	0.052073 	4897 	0.051714
38.91 	0.055272 	4903 	0.054078
38.93 	0.049818 	4938 	0.049106
38.95 	0.052257 	4918 	0.051423
38.97 	0.046035 	4931 	0.045204
38.99 	0.053271 	4937 	0.052915
39.01 	0.050834 	4918 	0.049762
39.03 	0.047831 	4934 	0.047238
39.05 	0.052386 	4925 	0.051296
39.07 	0.053209 	4924 	0.052138
39.09 	0.050782 	4923 	0.050187
39.11 	0.047049 	4931 	0.046455
39.13 	0.058095 	4923 	0.057262
39.15 	0.045575 	4915 	0.044860
39.17 	0.049423 	4937 	0.048592
39.19 	0.050031 	4917 	0.049197
39.21 	0.053360 	4910 	0.052148
39.23 	0.051168 	4925 	0.050454
39.25 	0.048964 	4922 	0.048369
39.27 	0.049695 	4910 	0.049337
39.29 	0.042236 	4901 	0.041639
39.31 	0.039107 	4884 	0.038628
39.33 	0.045832 	4931 	0.044645
39.35 	0.042148 	4935 	0.041792
39.37 	0.048489 	4929 	0.047419
39.39 	0.040170 	4929 	0.039457
39.41 	0.049888 	4931 	0.049294
39.43 	0.048652 	4933 	0.048177
39.45 	0.045888 	4925 	0.045769
39.47 	0.042454 	4923 	0.041859
39.49 	0.044395 	4933 	0.043801
39.51 	0.044070 	4924 	0.043455
39.53 	0.046110 	4923 	0.045634
39.55 	0.049400 	4919 	0.048805
39.57 	0.046219 	4933 	0.046101
39.59 	0.043770 	4912 	0.043055
39.61 	0.043266 	4923 	0.042552
39.63 	0.042666 	4922 	0.042309
39.65 	0.043240 	4926 	0.043121
39.67 	0.045390 	4913 	0.044436
39.69 	0.042311 	4916 	0.042073
39.71 	0.047804 	4895 	0.047206
39.73 	0.045029 	4908 	0.044670
39.75 	0.044440 	4928 	0.043964
39.77 	0.049645 	4935 	0.049171
39.79 	0.046285 	4926 	0.045076
39.81 	0.048711 	4927 	0.048355
39.83 	0.048642 	4934 	0.047554
39.85 	0.045667 	4927 	0.045072
39.87 	0.048325 	4925 	0.048087
39.89 	0.039724 	4934 	0.039487
39.91 	0.047745 	4922 	0.047150
39.93 	0.041118 	4937 	0.040999
39.95 	0.045575 	4915 	0.044721
39.97 	0.047484 	4928 	0.047008
39.99 	0.047242 	4932 	0.046411
40.01 	0.042700 	4918 	0.042224
40.03 	0.044440 	4928 	0.043964
40.05 	0.040879 	4917 	0.040283
40.07 	0.044079 	4923 	0.043841
40.09 	0.048413 	4916 	0.047937
40.11 	0.039056 	4916 	0.038818
40.13 	0.050654 	4896 	0.049577
40.15 	0.044372 	4913 	0.043895
40.17 	0.044440 	4928 	0.043846
40.19 	0.043214 	4929 	0.042501
40.21 	0.050253 	4935 	0.049541
40.23 	0.039943 	4932 	0.039211
40.25 	0.043089 	4920 	0.042494
40.27 	0.047195 	4937 	0.046245
40.29 	0.041405 	4927 	0.040810
40.31 	0.043329 	4939 	0.042973
40.33 	0.042985 	4932 	0.042391
40.35 	0.039642 	4919 	0.039285
40.37 	0.047271 	4929 	0.046677
40.39 	0.043196 	4931 	0.042483
40.41 	0.040203 	4925 	0.039252
40.43 	0.046119 	4922 	0.045286
40.45 	0.041151 	4933 	0.040795
40.47 	0.044734 	4918 	0.044019
40.49 	0.042225 	4926 	0.042106
40.51 	0.042462 	4922 	0.042105
40.53 	0.040683 	4916 	0.039969
40.55 	0.042787 	4908 	0.042787
40.57 	0.045194 	4890 	0.044955
40.59 	0.046182 	4937 	0.045233
40.61 	0.050253 	4935 	0.049422
40.63 	0.046247 	4930 	0.045416
40.65 	0.045372 	4937 	0.044897
40.67 	0.041363 	4932 	0.040868
40.69 	0.045169 	4937 	0.044813
40.71 	0.046229 	4932 	0.045635
40.73 	0.044458 	4926 	0.044101
40.75 	0.045224 	4931 	0.044749
40.77 	0.042721 	4939 	0.041535
40.79 	0.048335 	4924 	0.047859
40.81 	0.040073 	4941 	0.039599
40.83 	0.042817 	4928 	0.042103
40.85 	0.042648 	4924 	0.042053
40.87 	0.045455 	4928 	0.044622
40.89 	0.045224 	4931 	0.044472
40.91 	0.040016 	4923 	0.039778
40.93 	0.040940 	4934 	0.040584
40.95 	0.043761 	4913 	0.043285
40.97 	0.043867 	4924 	0.043153
40.99 	0.042851 	4924 	0.042138
41.01 	0.043974 	4912 	0.043497
41.03 	0.046483 	4905 	0.045886
41.05 	0.039303 	4936 	0.038710
41.07 	0.037931 	4930 	0.037337
41.09 	0.042114 	4939 	0.041995
41.11 	0.043972 	4935 	0.043497
41.13 	0.045178 	4936 	0.043754
41.15 	0.043513 	4941 	0.043276
41.17 	0.042156 	4934 	0.042038
41.19 	0.043611 	4930 	0.043135
41.21 	0.039903 	4937 	0.039310
41.23 	0.041304 	4939 	0.040948
41.25 	0.041760 	4933 	0.041047
41.27 	0.035693 	4931 	0.035455
41.29 	0.042817 	4928 	0.042460
41.31 	0.043989 	4933 	0.043277
41.33 	0.044359 	4937 	0.043884
41.35 	0.039287 	4938 	0.039050
41.37 	0.039602 	4924 	0.038412
41.39 	0.042165 	4933 	0.041690
41.41 	0.040804 	4926 	0.040566
41.43 	0.041591 	4929 	0.041353
41.45 	0.038462 	4914 	0.038104
41.47 	0.037962 	4926 	0.037605
41.49 	0.041087 	4892 	0.040728
41.51 	0.044130 	4940 	0.043418
41.53 	0.038835 	4944 	0.038479
41.55 	0.037487 	4935 	0.037131
41.57 	0.042704 	4941 	0.042230
41.59 	0.046827 	4933 	0.046471
41.61 	0.040380 	4953 	0.039906
41.63 	0.040300 	4938 	0.039232
41.65 	0.038953 	4929 	0.038359
41.67 	0.038664 	4940 	0.037933
41.69 	0.038811 	4947 	0.038101
41.71 	0.039522 	4934 	0.038928
41.73 	0.037682 	4936 	0.037208
41.75 	0.040170 	4929 	0.040052
41.77 	0.043109 	4941 	0.042516
41.79 	0.040049 	4944 	0.039693
41.81 	0.036467 	4936 	0.036111
41.83 	0.039570 	4928 	0.038975
41.85 	0.039482 	4939 	0.039363
41.87 	0.038906 	4935 	0.038312
41.89 	0.038111 	4933 	0.037873
41.91 	0.037682 	4936 	0.037208
41.93 	0.040552 	4932 	0.039958
41.95 	0.040357 	4931 	0.039149
41.97 	0.040090 	4914 	0.039970
41.99 	0.042406 	4905 	0.042047
42.01 	0.039255 	4942 	0.039137
42.03 	0.042519 	4939 	0.042282
42.05 	0.042407 	4952 	0.041816
42.07 	0.035649 	4937 	0.035293
42.09 	0.036580 	4948 	0.036225
42.11 	0.040243 	4945 	0.040006
42.13 	0.037412 	4945 	0.037293
42.15 	0.038882 	4938 	0.038526
42.17 	0.041684 	4918 	0.041088
42.19 	0.036879 	4908 	0.036759
42.21 	0.046113 	4901 	0.044679
42.23 	0.038021 	4892 	0.037183
42.25 	0.038249 	4889 	0.037890
42.27 	0.037546 	4874 	0.036945
42.29 	0.038659 	4863 	0.038659
42.31 	0.039341 	4855 	0.038858
42.33 	0.042201 	4834 	0.041595
42.35 	0.042166 	4838 	0.041803
42.37 	0.041822 	4830 	0.041337
42.39 	0.037052 	4804 	0.036565
42.41 	0.038093 	4804 	0.037606
42.43 	0.036102 	4792 	0.035857
42.45 	0.041039 	4776 	0.040793
42.47 	0.038615 	4765 	0.037877
42.49 	0.039454 	4765 	0.038697
42.51 	0.039848 	4743 	0.039210
42.53 	0.041455 	4728 	0.041083
42.55 	0.036321 	4708 	0.035699
42.57 	0.037209 	4730 	0.036590
42.59 	0.035525 	4729 	0.035402
42.61 	0.045455 	4708 	0.044832
42.63 	0.039499 	4709 	0.039499
42.65 	0.037994 	4685 	0.037368
42.67 	0.031170 	4684 	0.030795
42.69 	0.036371 	4674 	0.035619
42.71 	0.038387 	4663 	0.037613
42.73 	0.041164 	4640 	0.040785
42.75 	0.038120 	4617 	0.037993
42.77 	0.041087 	4600 	0.040832
42.79 	0.035792 	4582 	0.035537
42.81 	0.039237 	4562 	0.038724
42.83 	0.038360 	4536 	0.037972
42.85 	0.041961 	4528 	0.041056
42.87 	0.039120 	4499 	0.038729
42.89 	0.037054 	4480 	0.036269
42.91 	0.039048 	4456 	0.038501
42.93 	0.042960 	4446 	0.042169
42.95 	0.040534 	4416 	0.039341
42.97 	0.038173 	4401 	0.037907
42.99 	0.038312 	4385 	0.038179
43.01 	0.041485 	4363 	0.040545
43.03 	0.040388 	4333 	0.039441
43.05 	0.039538 	4325 	0.039131
43.07 	0.037942 	4296 	0.037260
43.09 	0.039225 	4283 	0.038815
43.11 	0.037838 	4255 	0.037425
43.13 	0.034458 	4237 	0.033744
43.15 	0.036139 	4206 	0.035721
43.17 	0.038765 	4179 	0.038485
43.19 	0.036719 	4194 	0.036277
43.21 	0.040508 	4172 	0.039947
43.23 	0.034665 	4154 	0.034383
43.25 	0.037243 	4135 	0.036818
43.27 	0.037272 	4105 	0.036701
43.29 	0.040244 	4100 	0.039815
43.31 	0.036038 	4079 	0.035607
43.33 	0.037768 	4051 	0.037768
43.35 	0.035218 	4032 	0.034782
43.37 	0.037360 	4015 	0.036922
43.39 	0.032984 	4002 	0.032398
43.41 	0.037513 	3972 	0.037218
43.43 	0.038384 	3960 	0.038236
43.45 	0.036086 	3935 	0.035938
43.47 	0.042591 	3921 	0.042591
43.49 	0.033872 	3897 	0.033872
43.51 	0.034563 	3877 	0.034110
43.53 	0.038053 	3863 	0.037447
43.55 	0.047233 	2964 	0.046641
43.57 	0.035746 	2238 	0.035484
43.59 	0.032646 	1746 	0.032646
43.61 	0.039230 	1351 	0.038363
43.63 	0.038961 	1001 	0.038961
43.65 	0.033479 	687 	0.033479
43.67 	0.047809 	502 	0.046642
43.69 	0.032698 	367 	0.032698
43.71 	0.037657 	239 	0.037657
43.73 	0.033333 	120 	0.033333
43.75 	0.000000 	16 	0.000000