File: Example_Data/25SC_s1_0020.003.dat
#F C:\frames\spec\25SC_s1_0020.003
#C title =s:20 frm:3 25SC_s1
#C wavelength =0.15406

#S 1  fr_average C:\frames\spec\25SC_s1_0020.003 C:\win32app\speccom\mask.axs chi 0 180 0 360 0.02
#C 2 theta =0.000000 to 180 deg
#C   q   =0.000000 to 81.568 nm^-1
#C  chi  =0.000000 to 360 deg
#C collumns:
#C  1 position (2theta or chi in degrees)
#C  2 average intensity (sum of all counts in the region divided with number of pixels)
#C  3 Number of pixels in region)
#C  4 error (sum of sqrt(intensity) for all pixels divided by number)
#N 4
#L TTh  Int  N_pix  Err
32.99 	0.147541 	61 	0.137938
33.01 	0.066438 	873 	0.065096
33.03 	0.063983 	1391 	0.062719
33.05 	0.062607 	1757 	0.061273
33.07 	0.056585 	2050 	0.054585
33.09 	0.065616 	2347 	0.064077
33.11 	0.063203 	2579 	0.062067
33.13 	0.062299 	2793 	0.061040
33.15 	0.066022 	2999 	0.064655
33.17 	0.053733 	3201 	0.052635
33.19 	0.053860 	3342 	0.053509
33.21 	0.061118 	3436 	0.059924
33.23 	0.053931 	3523 	0.053432
33.25 	0.062846 	3612 	0.060873
33.27 	0.052617 	3630 	0.051649
33.29 	0.058662 	3648 	0.057699
33.31 	0.065574 	3660 	0.064774
33.33 	0.052360 	3686 	0.051884
33.35 	0.061992 	3694 	0.061200
33.37 	0.064082 	3714 	0.062978
33.39 	0.061142 	3729 	0.060043
33.41 	0.059091 	3740 	0.058308
33.43 	0.067269 	3761 	0.066335
33.45 	0.056189 	3773 	0.054791
33.47 	0.059242 	3798 	0.058316
33.49 	0.060121 	3809 	0.058890
33.51 	0.055570 	3815 	0.054649
33.53 	0.056235 	3841 	0.054253
33.55 	0.067916 	3843 	0.066696
33.57 	0.059324 	3877 	0.058267
33.59 	0.050258 	3880 	0.049654
33.61 	0.062164 	3909 	0.061115
33.63 	0.065578 	3919 	0.064681
33.65 	0.061053 	3931 	0.059861
33.67 	0.056904 	3954 	0.056016
33.69 	0.055401 	3953 	0.054215
33.71 	0.064906 	3975 	0.063432
33.73 	0.062438 	4004 	0.061121
33.75 	0.062016 	3999 	0.059941
33.77 	0.058137 	4025 	0.057118
33.79 	0.065825 	4041 	0.064666
33.81 	0.058197 	4038 	0.057037
33.83 	0.056790 	4050 	0.055922
33.85 	0.062698 	4099 	0.061698
33.87 	0.055947 	4111 	0.055093
33.89 	0.060665 	4121 	0.059101
33.91 	0.053025 	4149 	0.051590
33.93 	0.054686 	4151 	0.053698
33.95 	0.057403 	4181 	0.056702
33.97 	0.059427 	4190 	0.058169
33.99 	0.060000 	4200 	0.058745
34.01 	0.058153 	4213 	0.057180
34.03 	0.064090 	4244 	0.063400
34.05 	0.057150 	4252 	0.056025
34.07 	0.060918 	4268 	0.059271
34.09 	0.059029 	4286 	0.057777
34.11 	0.064389 	4302 	0.062596
34.13 	0.059656 	4308 	0.059113
34.15 	0.062803 	4331 	0.061992
34.17 	0.056092 	4350 	0.054611
34.19 	0.062815 	4362 	0.062278
34.21 	0.059483 	4371 	0.058545
34.23 	0.056681 	4393 	0.055748
34.25 	0.061989 	4404 	0.060770
34.27 	0.057666 	4422 	0.055812
34.29 	0.059526 	4435 	0.058184
34.31 	0.058098 	4458 	0.057047
34.33 	0.062402 	4471 	0.061223
34.35 	0.059768 	4484 	0.058592
34.37 	0.063015 	4491 	0.061841
34.39 	0.061972 	4502 	0.060801
34.41 	0.056341 	4526 	0.055694
34.43 	0.059925 	4539 	0.059151
34.45 	0.057773 	4535 	0.056740
34.47 	0.054660 	4592 	0.053512
34.49 	0.060039 	4597 	0.059657
34.51 	0.061876 	4606 	0.060710
34.53 	0.058367 	4643 	0.057106
34.55 	0.060952 	4643 	0.059816
34.57 	0.057296 	4660 	0.055893
34.59 	0.054973 	4675 	0.053846
34.61 	0.057058 	4697 	0.056538
34.63 	0.060934 	4710 	0.060064
34.65 	0.060580 	4721 	0.059588
34.67 	0.053153 	4741 	0.052536
34.69 	0.057215 	4754 	0.056106
34.71 	0.057910 	4766 	0.056804
34.73 	0.060790 	4787 	0.059566
34.75 	0.055324 	4808 	0.054106
34.77 	0.062266 	4818 	0.060808
34.79 	0.056799 	4824 	0.056192
34.81 	0.059443 	4845 	0.058596
34.83 	0.060058 	4862 	0.058732
34.85 	0.054837 	4869 	0.053393
34.87 	0.059573 	4868 	0.058490
34.89 	0.058787 	4882 	0.058048
34.91 	0.060221 	4882 	0.059501
34.93 	0.062870 	4899 	0.061674
34.95 	0.060532 	4890 	0.059573
34.97 	0.059772 	4902 	0.058457
34.99 	0.060037 	4897 	0.059439
35.01 	0.061954 	4923 	0.061240
35.03 	0.064333 	4943 	0.063504
35.05 	0.056600 	4947 	0.055278
35.07 	0.060931 	4940 	0.059469
35.09 	0.060367 	4953 	0.059421
35.11 	0.061047 	4947 	0.059607
35.13 	0.061315 	4958 	0.060488
35.15 	0.052461 	4937 	0.051018
35.17 	0.059442 	4946 	0.057883
35.19 	0.061918 	4942 	0.060002
35.21 	0.057432 	4945 	0.056721
35.23 	0.061476 	4945 	0.060529
35.25 	0.054420 	4943 	0.053235
35.27 	0.059216 	4948 	0.058150
35.29 	0.063498 	4945 	0.062531
35.31 	0.061423 	4933 	0.060236
35.33 	0.064940 	4943 	0.062383
35.35 	0.060299 	4942 	0.058739
35.37 	0.057097 	4939 	0.055911
35.39 	0.063094 	4945 	0.061909
35.41 	0.056841 	4926 	0.055890
35.43 	0.065072 	4933 	0.064478
35.45 	0.060158 	4937 	0.059683
35.47 	0.062259 	4931 	0.060814
35.49 	0.059878 	4910 	0.058923
35.51 	0.063540 	4926 	0.062351
35.53 	0.060618 	4949 	0.059908
35.55 	0.056421 	4945 	0.056065
35.57 	0.051490 	4933 	0.050520
35.59 	0.059252 	4945 	0.058285
35.61 	0.055038 	4942 	0.054209
35.63 	0.057657 	4943 	0.056591
35.65 	0.056623 	4945 	0.056031
35.67 	0.068393 	4942 	0.066971
35.69 	0.057825 	4946 	0.056858
35.71 	0.053676 	4937 	0.052608
35.73 	0.060575 	4936 	0.059389
35.75 	0.057189 	4931 	0.055764
35.77 	0.056756 	4951 	0.055928
35.79 	0.061233 	4932 	0.060164
35.81 	0.050071 	4933 	0.049121
35.83 	0.058633 	4946 	0.057686
35.85 	0.060993 	4935 	0.059806
35.87 	0.060938 	4923 	0.060225
35.89 	0.055533 	4934 	0.054821
35.91 	0.056221 	4927 	0.055389
35.93 	0.066369 	4927 	0.065418
35.95 	0.058776 	4917 	0.057823
35.97 	0.052932 	4912 	0.052216
35.99 	0.058311 	4939 	0.057007
36.01 	0.058824 	4930 	0.058111
36.03 	0.059883 	4943 	0.059053
36.05 	0.055410 	4945 	0.054343
36.07 	0.056692 	4939 	0.055486
36.09 	0.057490 	4940 	0.057016
36.11 	0.059850 	4929 	0.058424
36.13 	0.057467 	4942 	0.056518
36.15 	0.061551 	4939 	0.060128
36.17 	0.053604 	4925 	0.052415
36.19 	0.057895 	4940 	0.056709
36.21 	0.059444 	4929 	0.058256
36.23 	0.059574 	4935 	0.058862
36.25 	0.055454 	4941 	0.055099
36.27 	0.054010 	4925 	0.052940
36.29 	0.058203 	4931 	0.056610
36.31 	0.060268 	4928 	0.059436
36.33 	0.061018 	4933 	0.060186
36.35 	0.061270 	4929 	0.060082
36.37 	0.054438 	4923 	0.053843
36.39 	0.049380 	4921 	0.048666
36.41 	0.058619 	4896 	0.058141
36.43 	0.052557 	4928 	0.051349
36.45 	0.058418 	4930 	0.057586
36.47 	0.050648 	4936 	0.050035
36.49 	0.057467 	4942 	0.056400
36.51 	0.055544 	4933 	0.054951
36.53 	0.049767 	4943 	0.049056
36.55 	0.059671 	4927 	0.058363
36.57 	0.060397 	4934 	0.058854
36.59 	0.056084 	4939 	0.055847
36.61 	0.059014 	4931 	0.057945
36.63 	0.057595 	4931 	0.056882
36.65 	0.055961 	4932 	0.054536
36.67 	0.053144 	4930 	0.052431
36.69 	0.058227 	4929 	0.057633
36.71 	0.052022 	4921 	0.051189
36.73 	0.048122 	4925 	0.047032
36.75 	0.059668 	4944 	0.058720
36.77 	0.056719 	4919 	0.055409
36.79 	0.056493 	4921 	0.054469
36.81 	0.056347 	4916 	0.055393
36.83 	0.059817 	4915 	0.059340
36.85 	0.054920 	4898 	0.054183
36.87 	0.059061 	4944 	0.057640
36.89 	0.056143 	4916 	0.055786
36.91 	0.057478 	4941 	0.056293
36.93 	0.051521 	4930 	0.050571
36.95 	0.050882 	4933 	0.049694
36.97 	0.056141 	4934 	0.054697
36.99 	0.051874 	4935 	0.051400
37.01 	0.057571 	4933 	0.056127
37.03 	0.056864 	4924 	0.055913
37.05 	0.056018 	4927 	0.054710
37.07 	0.056738 	4935 	0.055907
37.09 	0.052151 	4928 	0.051081
37.11 	0.055117 	4935 	0.053930
37.13 	0.053412 	4924 	0.052460
37.15 	0.053982 	4909 	0.053267
37.17 	0.047426 	4934 	0.047426
37.19 	0.052183 	4925 	0.051826
37.21 	0.050234 	4917 	0.049876
37.23 	0.056120 	4918 	0.054929
37.25 	0.052942 	4911 	0.051869
37.27 	0.055578 	4894 	0.054501
37.29 	0.051116 	4930 	0.049809
37.31 	0.050659 	4935 	0.050065
37.33 	0.057236 	4927 	0.055651
37.35 	0.054881 	4938 	0.054050
37.37 	0.049117 	4927 	0.048642
37.39 	0.059217 	4931 	0.058386
37.41 	0.053539 	4931 	0.052945
37.43 	0.051500 	4932 	0.050649
37.45 	0.053412 	4924 	0.052460
37.47 	0.059444 	4929 	0.058969
37.49 	0.052407 	4923 	0.051931
37.51 	0.052909 	4933 	0.051365
37.53 	0.058548 	4919 	0.057358
37.55 	0.053955 	4930 	0.053124
37.57 	0.050355 	4925 	0.050117
37.59 	0.052085 	4915 	0.051728
37.61 	0.052011 	4922 	0.051297
37.63 	0.055702 	4919 	0.054631
37.65 	0.054697 	4918 	0.054340
37.67 	0.048328 	4904 	0.048208
37.69 	0.048387 	4898 	0.047670
37.71 	0.055589 	4929 	0.054163
37.73 	0.053155 	4929 	0.052679
37.75 	0.051417 	4940 	0.050468
37.77 	0.046748 	4920 	0.046153
37.79 	0.046450 	4930 	0.046094
37.81 	0.051895 	4933 	0.050945
37.83 	0.051220 	4920 	0.050743
37.85 	0.051402 	4922 	0.050926
37.87 	0.049808 	4939 	0.048740
37.89 	0.053401 	4925 	0.052331
37.91 	0.046450 	4930 	0.045619
37.93 	0.051027 	4919 	0.050074
37.95 	0.045926 	4921 	0.045449
37.97 	0.057415 	4929 	0.056583
37.99 	0.054153 	4912 	0.053557
38.01 	0.048498 	4928 	0.048023
38.03 	0.058057 	4909 	0.057460
38.05 	0.054010 	4925 	0.053178
38.07 	0.055612 	4909 	0.054658
38.09 	0.053301 	4878 	0.051980
38.11 	0.050861 	4935 	0.049892
38.13 	0.047195 	4937 	0.046463
38.15 	0.051037 	4918 	0.050084
38.17 	0.050507 	4930 	0.049794
38.19 	0.061866 	4930 	0.061272
38.21 	0.052001 	4923 	0.051406
38.23 	0.054881 	4938 	0.053694
38.25 	0.053691 	4917 	0.053215
38.27 	0.056795 	4930 	0.056439
38.29 	0.058692 	4924 	0.057602
38.31 	0.060077 	4927 	0.059344
38.33 	0.054427 	4924 	0.053456
38.35 	0.053977 	4928 	0.053145
38.37 	0.058489 	4924 	0.057894
38.39 	0.054594 	4909 	0.053758
38.41 	0.068454 	4923 	0.066907
38.43 	0.054109 	4916 	0.053632
38.45 	0.067710 	4918 	0.065428
38.47 	0.064805 	4907 	0.064089
38.49 	0.061923 	4877 	0.061203
38.51 	0.066099 	4932 	0.065149
38.53 	0.065733 	4929 	0.064545
38.55 	0.059968 	4936 	0.058899
38.57 	0.062970 	4923 	0.061780
38.59 	0.054224 	4924 	0.053154
38.61 	0.057131 	4936 	0.056419
38.63 	0.057474 	4924 	0.056641
38.65 	0.055917 	4918 	0.055202
38.67 	0.061981 	4937 	0.061032
38.69 	0.056481 	4922 	0.055767
38.71 	0.057474 	4924 	0.056522
38.73 	0.056934 	4918 	0.055842
38.75 	0.060686 	4927 	0.060210
38.77 	0.055657 	4923 	0.053991
38.79 	0.049250 	4934 	0.048063
38.81 	0.053950 	4912 	0.052757
38.83 	0.050620 	4919 	0.049648
38.85 	0.058225 	4912 	0.057032
38.87 	0.052942 	4911 	0.052107
38.89 	0.056974 	4897 	0.056136
38.91 	0.049765 	4903 	0.049168
38.93 	0.046578 	4938 	0.045629
38.95 	0.047987 	4918 	0.047272
38.97 	0.052930 	4931 	0.052218
38.99 	0.047195 	4937 	0.046601
39.01 	0.053477 	4918 	0.052762
39.03 	0.051480 	4934 	0.050866
39.05 	0.049949 	4925 	0.049117
39.07 	0.049959 	4924 	0.049127
39.09 	0.048954 	4923 	0.048359
39.11 	0.046035 	4931 	0.044966
39.13 	0.052204 	4923 	0.051371
39.15 	0.051882 	4915 	0.051048
39.17 	0.047600 	4937 	0.046769
39.19 	0.048607 	4917 	0.048011
39.21 	0.046232 	4910 	0.045874
39.23 	0.043858 	4925 	0.043501
39.25 	0.051199 	4922 	0.050604
39.27 	0.048473 	4910 	0.047876
39.29 	0.043256 	4901 	0.042778
39.31 	0.045659 	4884 	0.045419
39.33 	0.051105 	4931 	0.050749
39.35 	0.045187 	4935 	0.044594
39.37 	0.050720 	4929 	0.049413
39.39 	0.044431 	4929 	0.043480
39.41 	0.052728 	4931 	0.051302
39.43 	0.051085 	4933 	0.050115
39.45 	0.046904 	4925 	0.045952
39.47 	0.041438 	4923 	0.041319
39.49 	0.049057 	4933 	0.047732
39.51 	0.046913 	4924 	0.046080
39.53 	0.055454 	4923 	0.054859
39.55 	0.057735 	4919 	0.056664
39.57 	0.045814 	4933 	0.045220
39.59 	0.051303 	4912 	0.050826
39.61 	0.044688 	4923 	0.043855
39.63 	0.049777 	4922 	0.049062
39.65 	0.050751 	4926 	0.049919
39.67 	0.047425 	4913 	0.046471
39.69 	0.055940 	4916 	0.054987
39.71 	0.048621 	4895 	0.048262
39.73 	0.052975 	4908 	0.051901
39.75 	0.055601 	4928 	0.054650
39.77 	0.048632 	4935 	0.048157
39.79 	0.048924 	4926 	0.047497
39.81 	0.050944 	4927 	0.050230
39.83 	0.049453 	4934 	0.048622
39.85 	0.044043 	4927 	0.043092
39.87 	0.047513 	4925 	0.047037
39.89 	0.047021 	4934 	0.046071
39.91 	0.045713 	4922 	0.045098
39.93 	0.044359 	4937 	0.043608
39.95 	0.050254 	4915 	0.049182
39.97 	0.049513 	4928 	0.048681
39.99 	0.054542 	4932 	0.053948
40.01 	0.045750 	4918 	0.045036
40.03 	0.046063 	4928 	0.044855
40.05 	0.051861 	4917 	0.051503
40.07 	0.045501 	4923 	0.044906
40.09 	0.039260 	4916 	0.038425
40.11 	0.044752 	4916 	0.044037
40.13 	0.047590 	4896 	0.047111
40.15 	0.048443 	4913 	0.047728
40.17 	0.049716 	4928 	0.049240
40.19 	0.050112 	4929 	0.049517
40.21 	0.048632 	4935 	0.047920
40.23 	0.048054 	4932 	0.047697
40.25 	0.047967 	4920 	0.047134
40.27 	0.051651 	4937 	0.050583
40.29 	0.046885 	4927 	0.046052
40.31 	0.048188 	4939 	0.047358
40.33 	0.046431 	4932 	0.045956
40.35 	0.050213 	4919 	0.049737
40.37 	0.040576 	4929 	0.039863
40.39 	0.050902 	4931 	0.050408
40.41 	0.045076 	4925 	0.044481
40.43 	0.046526 	4922 	0.045693
40.45 	0.048449 	4933 	0.047737
40.47 	0.048394 	4918 	0.047798
40.49 	0.045676 	4926 	0.045438
40.51 	0.045307 	4922 	0.044593
40.53 	0.046176 	4916 	0.045322
40.55 	0.046455 	4908 	0.045739
40.57 	0.050511 	4890 	0.050272
40.59 	0.046182 	4937 	0.045470
40.61 	0.046606 	4935 	0.046131
40.63 	0.050101 	4930 	0.049626
40.65 	0.047802 	4937 	0.047446
40.67 	0.045418 	4932 	0.045180
40.69 	0.046790 	4937 	0.045959
40.71 	0.046431 	4932 	0.045600
40.73 	0.044458 	4926 	0.043982
40.75 	0.049280 	4931 	0.048686
40.77 	0.040292 	4939 	0.039580
40.79 	0.047929 	4924 	0.047215
40.81 	0.042704 	4941 	0.042230
40.83 	0.043628 	4928 	0.042915
40.85 	0.046304 	4924 	0.045947
40.87 	0.051136 	4928 	0.050542
40.89 	0.047455 	4931 	0.046742
40.91 	0.044485 	4923 	0.044128
40.93 	0.043170 	4934 	0.042101
40.95 	0.043761 	4913 	0.043285
40.97 	0.045288 	4924 	0.044694
40.99 	0.042039 	4924 	0.041325
41.01 	0.047435 	4912 	0.046600
41.03 	0.042813 	4905 	0.042097
41.05 	0.048825 	4936 	0.048232
41.07 	0.046247 	4930 	0.045416
41.09 	0.047176 	4939 	0.046464
41.11 	0.043364 	4935 	0.042652
41.13 	0.050243 	4936 	0.048918
41.15 	0.047561 	4941 	0.047443
41.17 	0.042764 	4934 	0.042290
41.19 	0.046653 	4930 	0.045683
41.21 	0.041321 	4937 	0.040490
41.23 	0.047580 	4939 	0.046987
41.25 	0.049260 	4933 	0.049023
41.27 	0.042182 	4931 	0.041945
41.29 	0.047890 	4928 	0.047533
41.31 	0.047436 	4933 	0.046822
41.33 	0.046384 	4937 	0.045554
41.35 	0.040097 	4938 	0.039623
41.37 	0.043664 	4924 	0.042950
41.39 	0.045408 	4933 	0.045171
41.41 	0.043849 	4926 	0.042779
41.43 	0.051329 	4929 	0.050735
41.45 	0.042328 	4914 	0.041970
41.47 	0.045676 	4926 	0.044725
41.49 	0.046811 	4892 	0.046212
41.51 	0.039069 	4940 	0.038832
41.53 	0.046926 	4944 	0.046807
41.55 	0.045593 	4935 	0.045237
41.57 	0.043513 	4941 	0.042565
41.59 	0.045408 	4933 	0.044676
41.61 	0.044014 	4953 	0.043304
41.63 	0.041920 	4938 	0.041683
41.65 	0.049706 	4929 	0.048993
41.67 	0.039271 	4940 	0.038560
41.69 	0.045684 	4947 	0.045211
41.71 	0.044386 	4934 	0.043792
41.73 	0.043963 	4936 	0.043725
41.75 	0.042808 	4929 	0.042332
41.77 	0.043109 	4941 	0.042516
41.79 	0.042678 	4944 	0.041375
41.81 	0.038290 	4936 	0.037697
41.83 	0.045252 	4928 	0.044657
41.85 	0.041304 	4939 	0.040711
41.87 	0.040122 	4935 	0.039884
41.89 	0.038111 	4933 	0.037754
41.91 	0.042545 	4936 	0.042050
41.93 	0.041565 	4932 	0.041209
41.95 	0.042385 	4931 	0.041910
41.97 	0.039479 	4914 	0.039121
41.99 	0.044648 	4905 	0.044171
42.01 	0.042898 	4942 	0.042542
42.03 	0.043126 	4939 	0.042770
42.05 	0.045436 	4952 	0.044608
42.07 	0.048613 	4937 	0.047782
42.09 	0.042441 	4948 	0.042205
42.11 	0.039636 	4945 	0.039162
42.13 	0.041658 	4945 	0.041303
42.15 	0.040705 	4938 	0.040349
42.17 	0.038227 	4918 	0.037989
42.19 	0.041769 	4908 	0.041410
42.21 	0.039176 	4901 	0.038937
42.23 	0.044154 	4892 	0.043316
42.25 	0.047044 	4889 	0.046565
42.27 	0.044112 	4874 	0.043631
42.29 	0.037631 	4863 	0.036768
42.31 	0.040577 	4855 	0.040094
42.33 	0.042408 	4834 	0.041681
42.35 	0.043200 	4838 	0.042594
42.37 	0.042236 	4830 	0.041145
42.39 	0.043089 	4804 	0.042236
42.41 	0.037469 	4804 	0.037103
42.43 	0.040067 	4792 	0.039822
42.45 	0.043970 	4776 	0.043602
42.47 	0.041973 	4765 	0.041112
42.49 	0.044071 	4765 	0.043703
42.51 	0.045962 	4743 	0.045221
42.53 	0.040821 	4728 	0.040573
42.55 	0.043755 	4708 	0.043133
42.57 	0.037632 	4730 	0.036889
42.59 	0.041235 	4729 	0.040987
42.61 	0.036109 	4708 	0.035984
42.63 	0.039286 	4709 	0.038540
42.65 	0.045037 	4685 	0.044412
42.67 	0.042699 	4684 	0.042573
42.69 	0.040436 	4674 	0.039810
42.71 	0.040103 	4663 	0.039852
42.73 	0.043750 	4640 	0.043371
42.75 	0.041369 	4617 	0.040988
42.77 	0.039348 	4600 	0.038711
42.79 	0.042994 	4582 	0.042355
42.81 	0.047348 	4562 	0.047219
42.83 	0.040344 	4536 	0.039956
42.85 	0.045053 	4528 	0.044147
42.87 	0.043565 	4499 	0.042914
42.89 	0.044420 	4480 	0.044289
42.91 	0.042190 	4456 	0.041927
42.93 	0.038237 	4446 	0.037578
42.95 	0.038723 	4416 	0.038590
42.97 	0.038855 	4401 	0.038455
42.99 	0.033751 	4385 	0.033351
43.01 	0.047444 	4363 	0.047176
43.03 	0.042696 	4333 	0.042425
43.05 	0.044162 	4325 	0.044026
43.07 	0.041434 	4296 	0.040888
43.09 	0.037590 	4283 	0.037043
43.11 	0.044653 	4255 	0.044516
43.13 	0.045551 	4237 	0.044998
43.15 	0.037090 	4206 	0.036533
43.17 	0.039244 	4179 	0.038963
43.19 	0.039580 	4194 	0.039161
43.21 	0.043384 	4172 	0.042823
43.23 	0.039239 	4154 	0.038511
43.25 	0.043531 	4135 	0.042964
43.27 	0.042631 	4105 	0.041917
43.29 	0.038049 	4100 	0.037192
43.31 	0.037019 	4079 	0.036732
43.33 	0.036781 	4051 	0.036347
43.35 	0.038690 	4032 	0.037819
43.37 	0.044334 	4015 	0.043750
43.39 	0.045977 	4002 	0.045245
43.41 	0.041793 	3972 	0.040908
43.43 	0.040909 	3960 	0.040317
43.45 	0.044473 	3935 	0.043704
43.47 	0.038766 	3921 	0.038317
43.49 	0.041057 	3897 	0.040757
43.51 	0.037658 	3877 	0.037205
43.53 	0.040901 	3863 	0.040598
43.55 	0.045547 	2964 	0.045151
43.57 	0.044683 	2238 	0.044159
43.59 	0.034364 	1746 	0.032967
43.61 	0.043671 	1351 	0.043238
43.63 	0.040959 	1001 	0.040959
43.65 	0.045124 	687 	0.045124
43.67 	0.049801 	502 	0.049801
43.69 	0.038147 	367 	0.038147
43.71 	0.054393 	239 	0.054393
43.73 	0.025000 	120 	0.025000
43.75 	0.125000 	16 	0.125000