File: Example_Data/25SC_s1_0005.003.dat
#F C:\frames\spec\25SC_s1_0005.003
#C title =s:5 frm:3 25SC_s1
#C wavelength =0.15406

#S 1  fr_average C:\frames\spec\25SC_s1_0005.003 C:\win32app\speccom\mask.axs chi 0 180 0 360 0.02
#C 2 theta =0.000000 to 180 deg
#C   q   =0.000000 to 81.568 nm^-1
#C  chi  =0.000000 to 360 deg
#C collumns:
#C  1 position (2theta or chi in degrees)
#C  2 average intensity (sum of all counts in the region divided with number of pixels)
#C  3 Number of pixels in region)
#C  4 error (sum of sqrt(intensity) for all pixels divided by number)
#N 4
#L TTh  Int  N_pix  Err
32.99 	0.032787 	61 	0.032787
33.01 	0.054983 	873 	0.054312
33.03 	0.056075 	1391 	0.054811
33.05 	0.061468 	1757 	0.060135
33.07 	0.060488 	2050 	0.059631
33.09 	0.060503 	2347 	0.059255
33.11 	0.052734 	2579 	0.051598
33.13 	0.061583 	2793 	0.060534
33.15 	0.059687 	2999 	0.058710
33.17 	0.059356 	3201 	0.057526
33.19 	0.058348 	3342 	0.057121
33.21 	0.062282 	3436 	0.060747
33.23 	0.050809 	3523 	0.050144
33.25 	0.063677 	3612 	0.062217
33.27 	0.062259 	3630 	0.061291
33.29 	0.062500 	3648 	0.061697
33.31 	0.064754 	3660 	0.063634
33.33 	0.054259 	3686 	0.053147
33.35 	0.064158 	3694 	0.062097
33.37 	0.058158 	3714 	0.056897
33.39 	0.065969 	3729 	0.065027
33.41 	0.057487 	3740 	0.057017
33.43 	0.055836 	3761 	0.055057
33.45 	0.059899 	3773 	0.059434
33.47 	0.055292 	3798 	0.054675
33.49 	0.060646 	3809 	0.058929
33.51 	0.061861 	3815 	0.061554
33.53 	0.066129 	3841 	0.063993
33.55 	0.061150 	3843 	0.059473
33.57 	0.058292 	3877 	0.057084
33.59 	0.061340 	3880 	0.059981
33.61 	0.061653 	3909 	0.061203
33.63 	0.057157 	3919 	0.056410
33.65 	0.065887 	3931 	0.065141
33.67 	0.056146 	3954 	0.055257
33.69 	0.063496 	3953 	0.062607
33.71 	0.060126 	3975 	0.058652
33.73 	0.061688 	4004 	0.060957
33.75 	0.059015 	3999 	0.058136
33.77 	0.062360 	4025 	0.061778
33.79 	0.059144 	4041 	0.056946
33.81 	0.055968 	4038 	0.054808
33.83 	0.060741 	4050 	0.059728
33.85 	0.060503 	4099 	0.058931
33.87 	0.058866 	4111 	0.058012
33.89 	0.060908 	4121 	0.059747
33.91 	0.059050 	4149 	0.057921
33.93 	0.067454 	4151 	0.066160
33.95 	0.065535 	4181 	0.063830
33.97 	0.065155 	4190 	0.063000
33.99 	0.064762 	4200 	0.063367
34.01 	0.057204 	4213 	0.055953
34.03 	0.061027 	4244 	0.060613
34.05 	0.058796 	4252 	0.058107
34.07 	0.063261 	4268 	0.061592
34.09 	0.056463 	4286 	0.054937
34.11 	0.059972 	4302 	0.059019
34.13 	0.054318 	4308 	0.053366
34.15 	0.058416 	4331 	0.057605
34.17 	0.063218 	4350 	0.061602
34.19 	0.058230 	4362 	0.057022
34.21 	0.057424 	4371 	0.056464
34.23 	0.061234 	4393 	0.060034
34.25 	0.063351 	4404 	0.061866
34.27 	0.064903 	4422 	0.063446
34.29 	0.063585 	4435 	0.062661
34.31 	0.055630 	4458 	0.054973
34.33 	0.064415 	4471 	0.062712
34.35 	0.058653 	4484 	0.057848
34.37 	0.055444 	4491 	0.054531
34.39 	0.060862 	4502 	0.059561
34.41 	0.056341 	4526 	0.055435
34.43 	0.064552 	4539 	0.063261
34.45 	0.057773 	4535 	0.056610
34.47 	0.052047 	4592 	0.051027
34.49 	0.057211 	4597 	0.056171
34.51 	0.059922 	4606 	0.059286
34.53 	0.047168 	4643 	0.046264
34.55 	0.059660 	4643 	0.058398
34.57 	0.062017 	4660 	0.061137
34.59 	0.059037 	4675 	0.058286
34.61 	0.062593 	4697 	0.061346
34.63 	0.060722 	4710 	0.060224
34.65 	0.057827 	4721 	0.056834
34.67 	0.057794 	4741 	0.056291
34.69 	0.065419 	4754 	0.064433
34.71 	0.063366 	4766 	0.062505
34.73 	0.063714 	4787 	0.062226
34.75 	0.052205 	4808 	0.051352
34.77 	0.057493 	4818 	0.056885
34.79 	0.057214 	4824 	0.056000
34.81 	0.059030 	4845 	0.058546
34.83 	0.061086 	4862 	0.060002
34.85 	0.059560 	4869 	0.058718
34.87 	0.062859 	4868 	0.062017
34.89 	0.057354 	4882 	0.056374
34.91 	0.062270 	4882 	0.061070
34.93 	0.064503 	4899 	0.063646
34.95 	0.065235 	4890 	0.064397
34.97 	0.061812 	4902 	0.060975
34.99 	0.073923 	4897 	0.073085
35.01 	0.054032 	4923 	0.053318
35.03 	0.062513 	4943 	0.061565
35.05 	0.060845 	4947 	0.059306
35.07 	0.055870 	4940 	0.054784
35.09 	0.057743 	4953 	0.057151
35.11 	0.065090 	4947 	0.063551
35.13 	0.062122 	4958 	0.060940
35.15 	0.059348 	4937 	0.058399
35.17 	0.055398 	4946 	0.054569
35.19 	0.060299 	4942 	0.059351
35.21 	0.063094 	4945 	0.061909
35.23 	0.060667 	4945 	0.059601
35.25 	0.057657 	4943 	0.056709
35.27 	0.060833 	4948 	0.059412
35.29 	0.068554 	4945 	0.067369
35.31 	0.060207 	4933 	0.059376
35.33 	0.062917 	4943 	0.061969
35.35 	0.063132 	4942 	0.062658
35.37 	0.059526 	4939 	0.058933
35.39 	0.059858 	4945 	0.058792
35.41 	0.060495 	4926 	0.059663
35.43 	0.055342 	4933 	0.053560
35.45 	0.050638 	4937 	0.049807
35.47 	0.061854 	4931 	0.060784
35.49 	0.059063 	4910 	0.058228
35.51 	0.053593 	4926 	0.052880
35.53 	0.066882 	4949 	0.065107
35.55 	0.064914 	4945 	0.063611
35.57 	0.060409 	4933 	0.059341
35.59 	0.053589 	4945 	0.052741
35.61 	0.056657 	4942 	0.055827
35.63 	0.054825 	4943 	0.054114
35.65 	0.061274 	4945 	0.060089
35.67 	0.061109 	4942 	0.059805
35.69 	0.062273 	4946 	0.061088
35.71 	0.058740 	4937 	0.058147
35.73 	0.060170 	4936 	0.059458
35.75 	0.063679 	4931 	0.062847
35.77 	0.055140 	4951 	0.054174
35.79 	0.062044 	4932 	0.061331
35.81 	0.060004 	4933 	0.058698
35.83 	0.059038 	4946 	0.058327
35.85 	0.060993 	4935 	0.059687
35.87 	0.057892 	4923 	0.057059
35.89 	0.054925 	4934 	0.054450
35.91 	0.058453 	4927 	0.057740
35.93 	0.062716 	4927 	0.061408
35.95 	0.064267 	4917 	0.063075
35.97 	0.061482 	4912 	0.059932
35.99 	0.057502 	4939 	0.056553
36.01 	0.061258 	4930 	0.060426
36.03 	0.062108 	4943 	0.060212
36.05 	0.063903 	4945 	0.062718
36.07 	0.060336 	4939 	0.059269
36.09 	0.059919 	4940 	0.058496
36.11 	0.061270 	4929 	0.060200
36.13 	0.056253 	4942 	0.055166
36.15 	0.059526 	4939 	0.058933
36.17 	0.050761 	4925 	0.050286
36.19 	0.056478 	4940 	0.055055
36.21 	0.055184 	4929 	0.054233
36.23 	0.060790 	4935 	0.059247
36.25 	0.060514 	4941 	0.059210
36.27 	0.064975 	4925 	0.064023
36.29 	0.052322 	4931 	0.051134
36.31 	0.061485 	4928 	0.060772
36.33 	0.061626 	4933 	0.060913
36.35 	0.061676 	4929 	0.060963
36.37 	0.059720 	4923 	0.058867
36.39 	0.056899 	4921 	0.056165
36.41 	0.064134 	4896 	0.063177
36.43 	0.061080 	4928 	0.060129
36.45 	0.057404 	4930 	0.056215
36.47 	0.055511 	4936 	0.055155
36.49 	0.063335 	4942 	0.062386
36.51 	0.054531 	4933 	0.053581
36.53 	0.058467 	4943 	0.056551
36.55 	0.056424 	4927 	0.055829
36.57 	0.054925 	4934 	0.053975
36.59 	0.051630 	4939 	0.050918
36.61 	0.060028 	4931 	0.059316
36.63 	0.058609 	4931 	0.057896
36.65 	0.063666 	4932 	0.062221
36.67 	0.058418 	4930 	0.057467
36.69 	0.064719 	4929 	0.063887
36.71 	0.052022 	4921 	0.050812
36.73 	0.056244 	4925 	0.055292
36.75 	0.060275 	4944 	0.058952
36.77 	0.060988 	4919 	0.059678
36.79 	0.054867 	4921 	0.054272
36.81 	0.063059 	4916 	0.061987
36.83 	0.056765 	4915 	0.055931
36.85 	0.055737 	4898 	0.054541
36.87 	0.058050 	4944 	0.057458
36.89 	0.055330 	4916 	0.054495
36.91 	0.061526 	4941 	0.060558
36.93 	0.060041 	4930 	0.058734
36.95 	0.067707 	4933 	0.067232
36.97 	0.061005 	4934 	0.059818
36.99 	0.063627 	4935 	0.062796
37.01 	0.060815 	4933 	0.060340
37.03 	0.055849 	4924 	0.055492
37.05 	0.055003 	4927 	0.054409
37.07 	0.061803 	4935 	0.060379
37.09 	0.058442 	4928 	0.057491
37.11 	0.048227 	4935 	0.047396
37.13 	0.062551 	4924 	0.061361
37.15 	0.056020 	4909 	0.055065
37.17 	0.053506 	4934 	0.052556
37.19 	0.060102 	4925 	0.059388
37.21 	0.053895 	4917 	0.053418
37.23 	0.057137 	4918 	0.056165
37.25 	0.057829 	4911 	0.057094
37.27 	0.057009 	4894 	0.055692
37.29 	0.060041 	4930 	0.058833
37.31 	0.055724 	4935 	0.054419
37.33 	0.049726 	4927 	0.048894
37.35 	0.055488 	4938 	0.054776
37.37 	0.053582 	4927 	0.052612
37.39 	0.051916 	4931 	0.050847
37.41 	0.052728 	4931 	0.051777
37.43 	0.058394 	4932 	0.057563
37.45 	0.057271 	4924 	0.056200
37.47 	0.056807 	4929 	0.055381
37.49 	0.054641 	4923 	0.053809
37.51 	0.060004 	4933 	0.059054
37.53 	0.051637 	4919 	0.051041
37.55 	0.051927 	4930 	0.051333
37.57 	0.054010 	4925 	0.053534
37.59 	0.058189 	4915 	0.056997
37.61 	0.056278 	4922 	0.055088
37.63 	0.054483 	4919 	0.053887
37.65 	0.053070 	4918 	0.052356
37.67 	0.057708 	4904 	0.056991
37.69 	0.054920 	4898 	0.054083
37.71 	0.055386 	4929 	0.054555
37.73 	0.053763 	4929 	0.053050
37.75 	0.056275 	4940 	0.055208
37.77 	0.056911 	4920 	0.055958
37.79 	0.058215 	4930 	0.056789
37.81 	0.054531 	4933 	0.053462
37.83 	0.053659 	4920 	0.052587
37.85 	0.055059 	4922 	0.054583
37.87 	0.057097 	4939 	0.056148
37.89 	0.052183 	4925 	0.051450
37.91 	0.055578 	4930 	0.054628
37.93 	0.050010 	4919 	0.049177
37.95 	0.048364 	4921 	0.047531
37.97 	0.051735 	4929 	0.050665
37.99 	0.057410 	4912 	0.055860
38.01 	0.051542 	4928 	0.050928
38.03 	0.050112 	4909 	0.049237
38.05 	0.053807 	4925 	0.052856
38.07 	0.046649 	4909 	0.046172
38.09 	0.052891 	4878 	0.052050
38.11 	0.056332 	4935 	0.055739
38.13 	0.049828 	4937 	0.049116
38.15 	0.061407 	4918 	0.060077
38.17 	0.057809 	4930 	0.056978
38.19 	0.063286 	4930 	0.062811
38.21 	0.058907 	4923 	0.057598
38.23 	0.057108 	4938 	0.056396
38.25 	0.051658 	4917 	0.050347
38.27 	0.060446 	4930 	0.058882
38.29 	0.058489 	4924 	0.057299
38.31 	0.060280 	4927 	0.059805
38.33 	0.051178 	4924 	0.050445
38.35 	0.061688 	4928 	0.059767
38.37 	0.059098 	4924 	0.058385
38.39 	0.065186 	4909 	0.063735
38.41 	0.061954 	4923 	0.060645
38.43 	0.065907 	4916 	0.065073
38.45 	0.063237 	4918 	0.062284
38.47 	0.064194 	4907 	0.063597
38.49 	0.054952 	4877 	0.053871
38.51 	0.060624 	4932 	0.059556
38.53 	0.062690 	4929 	0.061383
38.55 	0.069692 	4936 	0.068486
38.57 	0.054641 	4923 	0.054285
38.59 	0.055037 	4924 	0.054323
38.61 	0.058752 	4936 	0.058277
38.63 	0.061535 	4924 	0.060227
38.65 	0.063237 	4918 	0.062284
38.67 	0.056309 	4937 	0.054886
38.69 	0.058513 	4922 	0.057779
38.71 	0.062551 	4924 	0.061461
38.73 	0.057137 	4918 	0.056541
38.75 	0.056627 	4927 	0.056151
38.77 	0.057688 	4923 	0.056736
38.79 	0.050872 	4934 	0.050040
38.81 	0.048453 	4912 	0.047856
38.83 	0.055702 	4919 	0.054492
38.85 	0.052117 	4912 	0.050805
38.87 	0.053960 	4911 	0.052152
38.89 	0.057995 	4897 	0.057277
38.91 	0.053029 	4903 	0.051953
38.93 	0.049413 	4938 	0.049175
38.95 	0.051240 	4918 	0.050168
38.97 	0.047658 	4931 	0.046945
38.99 	0.052664 	4937 	0.051458
39.01 	0.047174 	4918 	0.046816
39.03 	0.049858 	4934 	0.049502
39.05 	0.055431 	4925 	0.054837
39.07 	0.054833 	4924 	0.054120
39.09 	0.050173 	4923 	0.048983
39.11 	0.051308 	4931 	0.050714
39.13 	0.051391 	4923 	0.051034
39.15 	0.051475 	4915 	0.050283
39.17 	0.047397 	4937 	0.046804
39.19 	0.051047 	4917 	0.050571
39.21 	0.047454 	4910 	0.046480
39.23 	0.041827 	4925 	0.041590
39.25 	0.052621 	4922 	0.052026
39.27 	0.049695 	4910 	0.049098
39.29 	0.046113 	4901 	0.045874
39.31 	0.047297 	4884 	0.046818
39.33 	0.049686 	4931 	0.048854
39.35 	0.048632 	4935 	0.048019
39.37 	0.046865 	4929 	0.046271
39.39 	0.054575 	4929 	0.053624
39.41 	0.051916 	4931 	0.050847
39.43 	0.052098 	4933 	0.051623
39.45 	0.048731 	4925 	0.047641
39.47 	0.047329 	4923 	0.046377
39.49 	0.052909 	4933 	0.052315
39.51 	0.043258 	4924 	0.042901
39.53 	0.051188 	4923 	0.050593
39.55 	0.050620 	4919 	0.050144
39.57 	0.049260 	4933 	0.048785
39.59 	0.048656 	4912 	0.047822
39.61 	0.047329 	4923 	0.046615
39.63 	0.048151 	4922 	0.047437
39.65 	0.045067 	4926 	0.044353
39.67 	0.044983 	4913 	0.044387
39.69 	0.053702 	4916 	0.052471
39.71 	0.054750 	4895 	0.053673
39.73 	0.052771 	4908 	0.051438
39.75 	0.046672 	4928 	0.046197
39.77 	0.048835 	4935 	0.048241
39.79 	0.051360 	4926 	0.050647
39.81 	0.047493 	4927 	0.046780
39.83 	0.045805 	4934 	0.045092
39.85 	0.052973 	4927 	0.052260
39.87 	0.051371 	4925 	0.050895
39.89 	0.051682 	4934 	0.050851
39.91 	0.046729 	4922 	0.046134
39.93 	0.056309 	4937 	0.054629
39.95 	0.055341 	4915 	0.054387
39.97 	0.054992 	4928 	0.053447
39.99 	0.046634 	4932 	0.045565
40.01 	0.053070 	4918 	0.052117
40.03 	0.042614 	4928 	0.042376
40.05 	0.051047 	4917 	0.050452
40.07 	0.052610 	4923 	0.052015
40.09 	0.043328 	4916 	0.043090
40.11 	0.046583 	4916 	0.045868
40.13 	0.055351 	4896 	0.054274
40.15 	0.048850 	4913 	0.048373
40.17 	0.049513 	4928 	0.048324
40.19 	0.040982 	4929 	0.040269
40.21 	0.051266 	4935 	0.050653
40.23 	0.039538 	4932 	0.038944
40.25 	0.040854 	4920 	0.040020
40.27 	0.042739 	4937 	0.041908
40.29 	0.048914 	4927 	0.048300
40.31 	0.049200 	4939 	0.048607
40.33 	0.051095 	4932 	0.050501
40.35 	0.044928 	4919 	0.044094
40.37 	0.049097 	4929 	0.048622
40.39 	0.047049 	4931 	0.046337
40.41 	0.044061 	4925 	0.043466
40.43 	0.047135 	4922 	0.046540
40.45 	0.050274 	4933 	0.049799
40.47 	0.047784 	4918 	0.047307
40.49 	0.043646 	4926 	0.042457
40.51 	0.052011 	4922 	0.050583
40.53 	0.045769 	4916 	0.045531
40.55 	0.044621 	4908 	0.044144
40.57 	0.046626 	4890 	0.046266
40.59 	0.042941 	4937 	0.042091
40.61 	0.046201 	4935 	0.045488
40.63 	0.047667 	4930 	0.046954
40.65 	0.046587 	4937 	0.046112
40.67 	0.047648 	4932 	0.047054
40.69 	0.054892 	4937 	0.054061
40.71 	0.045418 	4932 	0.044586
40.73 	0.051563 	4926 	0.051087
40.75 	0.049888 	4931 	0.049651
40.77 	0.041911 	4939 	0.041081
40.79 	0.051178 	4924 	0.050107
40.81 	0.050799 	4941 	0.049614
40.83 	0.048093 	4928 	0.047498
40.85 	0.042648 	4924 	0.041934
40.87 	0.044643 	4928 	0.044286
40.89 	0.045630 	4931 	0.045036
40.91 	0.045094 	4923 	0.044500
40.93 	0.043575 	4934 	0.043338
40.95 	0.048239 	4913 	0.047524
40.97 	0.051584 	4924 	0.050632
40.99 	0.046304 	4924 	0.044995
41.01 	0.048656 	4912 	0.047802
41.03 	0.045464 	4905 	0.044747
41.05 	0.048420 	4936 	0.047589
41.07 	0.049087 	4930 	0.048374
41.09 	0.040696 	4939 	0.040203
41.11 	0.038906 	4935 	0.038550
41.13 	0.042747 	4936 	0.041798
41.15 	0.043918 	4941 	0.043444
41.17 	0.051885 	4934 	0.051054
41.19 	0.046856 	4930 	0.046500
41.21 	0.044764 	4937 	0.044527
41.23 	0.047580 	4939 	0.047106
41.25 	0.048449 	4933 	0.047262
41.27 	0.041979 	4931 	0.041623
41.29 	0.047078 	4928 	0.046127
41.31 	0.046422 	4933 	0.045710
41.33 	0.050841 	4937 	0.049891
41.35 	0.046983 	4938 	0.046389
41.37 	0.046710 	4924 	0.046353
41.39 	0.049666 	4933 	0.048716
41.41 	0.041210 	4926 	0.040496
41.43 	0.050112 	4929 	0.049755
41.45 	0.037851 	4914 	0.036897
41.47 	0.043240 	4926 	0.042645
41.49 	0.048651 	4892 	0.048172
41.51 	0.044939 	4940 	0.044465
41.53 	0.047937 	4944 	0.047818
41.55 	0.047416 	4935 	0.046942
41.57 	0.043513 	4941 	0.043039
41.59 	0.046422 	4933 	0.045334
41.61 	0.040985 	4953 	0.040276
41.63 	0.044350 	4938 	0.043638
41.65 	0.050314 	4929 	0.049364
41.67 	0.047368 	4940 	0.046657
41.69 	0.049929 	4947 	0.049219
41.71 	0.043373 	4934 	0.042779
41.73 	0.044571 	4936 	0.043740
41.75 	0.046663 	4929 	0.046425
41.77 	0.039870 	4941 	0.039278
41.79 	0.044903 	4944 	0.044547
41.81 	0.040721 	4936 	0.040247
41.83 	0.045455 	4928 	0.045217
41.85 	0.041709 	4939 	0.041096
41.87 	0.046809 	4935 	0.046334
41.89 	0.045814 	4933 	0.045458
41.91 	0.042545 	4936 	0.042070
41.93 	0.043593 	4932 	0.043474
41.95 	0.046846 	4931 	0.046134
41.97 	0.043549 	4914 	0.042834
41.99 	0.042406 	4905 	0.041928
42.01 	0.044112 	4942 	0.043401
42.03 	0.047176 	4939 	0.046583
42.05 	0.049879 	4952 	0.049287
42.07 	0.046587 	4937 	0.046350
42.09 	0.043654 	4948 	0.042944
42.11 	0.044287 	4945 	0.043576
42.13 	0.039636 	4945 	0.039518
42.15 	0.042730 	4938 	0.042018
42.17 	0.045344 	4918 	0.045225
42.19 	0.040750 	4908 	0.040153
42.21 	0.049786 	4901 	0.048830
42.23 	0.038226 	4892 	0.037866
42.25 	0.043567 	4889 	0.042848
42.27 	0.044112 	4874 	0.043631
42.29 	0.046473 	4863 	0.046232
42.31 	0.041195 	4855 	0.040712
42.33 	0.045097 	4834 	0.044249
42.35 	0.041133 	4838 	0.040406
42.37 	0.045135 	4830 	0.044649
42.39 	0.045171 	4804 	0.044683
42.41 	0.046003 	4804 	0.045759
42.43 	0.045075 	4792 	0.044708
42.45 	0.039782 	4776 	0.038924
42.47 	0.044911 	4765 	0.044173
42.49 	0.042183 	4765 	0.041445
42.51 	0.042800 	4743 	0.042059
42.53 	0.044839 	4728 	0.044096
42.55 	0.045030 	4708 	0.044283
42.57 	0.044820 	4730 	0.044077
42.59 	0.042715 	4729 	0.041828
42.61 	0.042268 	4708 	0.041771
42.63 	0.044383 	4709 	0.043710
42.65 	0.041195 	4685 	0.040820
42.67 	0.042485 	4684 	0.041714
42.69 	0.042362 	4674 	0.041485
42.71 	0.036886 	4663 	0.036635
42.73 	0.043750 	4640 	0.042740
42.75 	0.042235 	4617 	0.042235
42.77 	0.042391 	4600 	0.041882
42.79 	0.044740 	4582 	0.044357
42.81 	0.043840 	4562 	0.043455
42.83 	0.041887 	4536 	0.040854
42.85 	0.043286 	4528 	0.042639
42.87 	0.043121 	4499 	0.042600
42.89 	0.045313 	4480 	0.044789
42.91 	0.048025 	4456 	0.047631
42.93 	0.047458 	4446 	0.047327
42.95 	0.044384 	4416 	0.043721
42.97 	0.042718 	4401 	0.042318
42.99 	0.041505 	4385 	0.040436
43.01 	0.042173 	4363 	0.042039
43.03 	0.044080 	4333 	0.043404
43.05 	0.044162 	4325 	0.043485
43.07 	0.041201 	4296 	0.041065
43.09 	0.044828 	4283 	0.043734
43.11 	0.039483 	4255 	0.039208
43.13 	0.043663 	4237 	0.042833
43.15 	0.045174 	4206 	0.044616
43.17 	0.045705 	4179 	0.045284
43.19 	0.043872 	4194 	0.043314
43.21 	0.039070 	4172 	0.039070
43.23 	0.037313 	4154 	0.037172
43.25 	0.046191 	4135 	0.045341
43.27 	0.045311 	4105 	0.044597
43.29 	0.046098 	4100 	0.045812
43.31 	0.041677 	4079 	0.041102
43.33 	0.037522 	4051 	0.037377
43.35 	0.047867 	4032 	0.047286
43.37 	0.041843 	4015 	0.041697
43.39 	0.036982 	4002 	0.036542
43.41 	0.044814 	3972 	0.044224
43.43 	0.037879 	3960 	0.037731
43.45 	0.045743 	3935 	0.045594
43.47 	0.043356 	3921 	0.042759
43.49 	0.040544 	3897 	0.040093
43.51 	0.047459 	3877 	0.047157
43.53 	0.042454 	3863 	0.042302
43.55 	0.045209 	2964 	0.044419
43.57 	0.038874 	2238 	0.038874
43.59 	0.052119 	1746 	0.051784
43.61 	0.041451 	1351 	0.041017
43.63 	0.033966 	1001 	0.032796
43.65 	0.030568 	687 	0.030568
43.67 	0.049801 	502 	0.048634
43.69 	0.027248 	367 	0.027248
43.71 	0.025105 	239 	0.025105
43.73 	0.033333 	120 	0.033333
43.75 	0.062500 	16 	0.062500