File: Example_Data/25SC_s1_0036.001.dat
#F C:\frames\spec\25SC_s1_0036.001
#C title =s:36 frm:1 25SC_s1
#C wavelength =0.15406

#S 1  fr_average C:\frames\spec\25SC_s1_0036.001 C:\win32app\speccom\mask.axs chi 0 180 0 360 0.02
#C 2 theta =0.000000 to 180 deg
#C   q   =0.000000 to 81.568 nm^-1
#C  chi  =0.000000 to 360 deg
#C collumns:
#C  1 position (2theta or chi in degrees)
#C  2 average intensity (sum of all counts in the region divided with number of pixels)
#C  3 Number of pixels in region)
#C  4 error (sum of sqrt(intensity) for all pixels divided by number)
#N 4
#L TTh  Int  N_pix  Err
32.99 	0.098361 	61 	0.098361
33.01 	0.054983 	873 	0.054312
33.03 	0.053918 	1391 	0.053076
33.05 	0.055777 	1757 	0.054777
33.07 	0.060976 	2050 	0.059833
33.09 	0.061355 	2347 	0.060357
33.11 	0.054672 	2579 	0.053764
33.13 	0.063373 	2793 	0.062114
33.15 	0.059020 	2999 	0.058238
33.17 	0.062480 	3201 	0.060833
33.19 	0.059246 	3342 	0.058720
33.21 	0.061409 	3436 	0.060386
33.23 	0.063582 	3523 	0.062723
33.25 	0.054817 	3612 	0.053844
33.27 	0.059504 	3630 	0.059020
33.29 	0.056469 	3648 	0.055158
33.31 	0.055738 	3660 	0.054777
33.33 	0.056158 	3686 	0.054887
33.35 	0.058202 	3694 	0.056775
33.37 	0.061389 	3714 	0.061232
33.39 	0.058461 	3729 	0.057807
33.41 	0.060160 	3740 	0.060004
33.43 	0.060090 	3761 	0.058533
33.45 	0.064935 	3773 	0.063227
33.47 	0.060821 	3798 	0.060050
33.49 	0.055658 	3809 	0.054889
33.51 	0.055046 	3815 	0.054278
33.53 	0.060141 	3841 	0.058616
33.55 	0.058288 	3843 	0.057373
33.57 	0.057261 	3877 	0.056027
33.59 	0.061082 	3880 	0.060328
33.61 	0.056025 	3909 	0.054826
33.63 	0.059964 	3919 	0.058420
33.65 	0.058255 	3931 	0.057659
33.67 	0.070056 	3954 	0.068130
33.69 	0.067038 	3953 	0.065704
33.71 	0.058616 	3975 	0.058027
33.73 	0.055694 	4004 	0.054354
33.75 	0.065016 	3999 	0.063820
33.77 	0.057143 	4025 	0.056415
33.79 	0.059391 	4041 	0.058666
33.81 	0.052749 	4038 	0.051878
33.83 	0.057778 	4050 	0.057344
33.85 	0.063430 	4099 	0.062001
33.87 	0.058866 	4111 	0.057727
33.89 	0.056297 	4121 	0.056013
33.91 	0.060738 	4149 	0.060032
33.93 	0.057095 	4151 	0.055825
33.95 	0.055967 	4181 	0.054566
33.97 	0.059905 	4190 	0.058926
33.99 	0.055952 	4200 	0.055255
34.01 	0.058628 	4213 	0.057794
34.03 	0.059142 	4244 	0.058153
34.05 	0.055738 	4252 	0.054361
34.07 	0.062559 	4268 	0.061323
34.09 	0.058563 	4286 	0.057584
34.11 	0.057648 	4302 	0.056694
34.13 	0.052461 	4308 	0.051781
34.15 	0.057031 	4331 	0.056084
34.17 	0.053103 	4350 	0.052699
34.19 	0.058230 	4362 	0.057022
34.21 	0.055136 	4371 	0.054600
34.23 	0.059413 	4393 	0.058057
34.25 	0.056312 	4404 	0.055514
34.27 	0.056762 	4422 	0.055834
34.29 	0.055919 	4435 	0.054730
34.31 	0.054060 	4458 	0.053535
34.33 	0.055245 	4471 	0.054590
34.35 	0.064897 	4484 	0.063308
34.37 	0.057003 	4491 	0.055568
34.39 	0.065749 	4502 	0.064838
34.41 	0.057004 	4526 	0.056357
34.43 	0.058824 	4539 	0.058307
34.45 	0.051378 	4535 	0.050086
34.47 	0.055749 	4592 	0.055111
34.49 	0.055688 	4597 	0.053905
34.51 	0.054928 	4606 	0.054292
34.53 	0.060306 	4643 	0.059423
34.55 	0.057721 	4643 	0.056586
34.57 	0.051073 	4660 	0.050319
34.59 	0.058182 	4675 	0.057555
34.61 	0.054929 	4697 	0.054180
34.63 	0.059023 	4710 	0.058008
34.65 	0.054014 	4721 	0.052484
34.67 	0.056950 	4741 	0.056456
34.69 	0.056374 	4754 	0.055265
34.71 	0.055812 	4766 	0.055197
34.73 	0.061207 	4787 	0.059984
34.75 	0.056780 	4808 	0.055664
34.77 	0.056247 	4818 	0.054890
34.79 	0.054312 	4824 	0.053705
34.81 	0.059649 	4845 	0.058924
34.83 	0.059646 	4862 	0.058441
34.85 	0.051756 	4869 	0.050914
34.87 	0.060189 	4868 	0.059226
34.89 	0.059607 	4882 	0.059127
34.91 	0.053052 	4882 	0.052452
34.93 	0.056746 	4899 	0.056029
34.95 	0.060941 	4890 	0.060222
34.97 	0.056508 	4902 	0.055432
34.99 	0.059424 	4897 	0.058587
35.01 	0.054438 	4923 	0.053486
35.03 	0.056848 	4943 	0.056019
35.05 	0.053366 	4947 	0.052774
35.07 	0.057085 	4940 	0.056473
35.09 	0.056935 	4953 	0.056107
35.11 	0.050334 	4947 	0.049623
35.13 	0.052037 	4958 	0.051446
35.15 	0.056512 	4937 	0.055681
35.17 	0.056005 	4946 	0.054702
35.19 	0.051801 	4942 	0.050497
35.21 	0.051972 	4945 	0.051005
35.23 	0.053994 	4945 	0.053639
35.25 	0.057253 	4943 	0.056660
35.27 	0.055174 	4948 	0.053872
35.29 	0.055612 	4945 	0.054901
35.31 	0.054733 	4933 	0.054021
35.33 	0.055027 	4943 	0.054198
35.35 	0.051801 	4942 	0.051208
35.37 	0.058311 	4939 	0.057125
35.39 	0.056623 	4945 	0.055438
35.41 	0.051563 	4926 	0.050711
35.43 	0.055950 	4933 	0.054743
35.45 	0.053069 	4937 	0.052238
35.47 	0.054756 	4931 	0.054162
35.49 	0.056008 	4910 	0.055531
35.51 	0.052375 	4926 	0.051781
35.53 	0.055769 	4949 	0.055295
35.55 	0.060667 	4945 	0.059364
35.57 	0.056761 	4933 	0.055573
35.59 	0.062487 	4945 	0.061046
35.61 	0.058478 	4942 	0.056700
35.63 	0.053409 	4943 	0.052461
35.65 	0.057230 	4945 	0.056282
35.67 	0.050789 	4942 	0.049841
35.69 	0.053376 	4946 	0.052784
35.71 	0.065019 	4937 	0.063951
35.73 	0.056524 	4936 	0.055811
35.75 	0.053539 	4931 	0.052707
35.77 	0.056150 	4951 	0.055559
35.79 	0.054745 	4932 	0.054269
35.81 	0.059801 	4933 	0.058139
35.83 	0.054185 	4946 	0.052882
35.85 	0.054306 	4935 	0.053356
35.87 	0.050173 	4923 	0.049935
35.89 	0.053506 	4934 	0.052082
35.91 	0.055409 	4927 	0.054319
35.93 	0.057439 	4927 	0.056111
35.95 	0.054505 	4917 	0.053075
35.97 	0.056189 	4912 	0.055473
35.99 	0.054060 	4939 	0.052854
36.01 	0.061055 	4930 	0.059985
36.03 	0.053207 	4943 	0.052614
36.05 	0.054398 	4945 	0.053095
36.07 	0.055274 	4939 	0.054069
36.09 	0.048785 	4940 	0.047718
36.11 	0.060053 	4929 	0.058369
36.13 	0.051801 	4942 	0.050734
36.15 	0.057906 	4939 	0.056483
36.17 	0.058071 	4925 	0.057001
36.19 	0.055466 	4940 	0.053905
36.21 	0.057821 	4929 	0.056276
36.23 	0.054509 	4935 	0.053559
36.25 	0.049787 	4941 	0.049076
36.27 	0.058883 	4925 	0.058051
36.29 	0.049888 	4931 	0.049294
36.31 	0.057630 	4928 	0.056917
36.33 	0.050274 	4933 	0.049423
36.35 	0.060864 	4929 	0.059795
36.37 	0.054845 	4923 	0.054131
36.39 	0.063199 	4921 	0.062246
36.41 	0.055147 	4896 	0.054070
36.43 	0.056615 	4928 	0.055308
36.45 	0.053955 	4930 	0.053104
36.47 	0.051459 	4936 	0.051221
36.49 	0.057871 	4942 	0.057160
36.51 	0.058382 	4933 	0.057907
36.53 	0.060085 	4943 	0.059255
36.55 	0.060686 	4927 	0.059616
36.57 	0.051074 	4934 	0.050124
36.59 	0.057502 	4939 	0.056553
36.61 	0.061245 	4931 	0.060414
36.63 	0.059420 	4931 	0.058707
36.65 	0.057583 	4932 	0.056870
36.67 	0.056389 	4930 	0.055320
36.69 	0.062690 	4929 	0.061145
36.71 	0.054054 	4921 	0.053102
36.73 	0.059898 	4925 	0.059423
36.75 	0.060073 	4944 	0.059480
36.77 	0.060175 	4919 	0.059460
36.79 	0.053444 	4921 	0.052254
36.81 	0.058177 	4916 	0.057701
36.83 	0.054527 	4915 	0.054289
36.85 	0.053083 	4898 	0.052246
36.87 	0.053803 	4944 	0.052618
36.89 	0.053092 	4916 	0.052258
36.91 	0.057883 	4941 	0.056342
36.93 	0.055578 	4930 	0.054746
36.95 	0.054936 	4933 	0.054461
36.97 	0.050872 	4934 	0.050159
36.99 	0.063830 	4935 	0.062999
37.01 	0.054733 	4933 	0.053783
37.03 	0.054630 	4924 	0.054273
37.05 	0.055206 	4927 	0.054017
37.07 	0.050861 	4935 	0.050149
37.09 	0.050731 	4928 	0.049998
37.11 	0.050051 	4935 	0.049338
37.13 	0.056864 	4924 	0.055517
37.15 	0.049705 	4909 	0.049108
37.17 	0.051074 	4934 	0.050243
37.19 	0.056041 	4925 	0.055565
37.21 	0.059182 	4917 	0.058468
37.23 	0.053680 	4918 	0.052847
37.25 	0.056608 	4911 	0.055415
37.27 	0.059869 	4894 	0.058313
37.29 	0.058418 	4930 	0.058061
37.31 	0.054711 	4935 	0.053643
37.33 	0.062919 	4927 	0.061235
37.35 	0.052248 	4938 	0.051655
37.37 	0.056627 	4927 	0.055794
37.39 	0.058203 	4931 	0.057114
37.41 	0.055161 	4931 	0.053835
37.43 	0.054339 	4932 	0.053151
37.45 	0.060520 	4924 	0.059330
37.47 	0.054981 	4929 	0.054387
37.49 	0.052610 	4923 	0.052134
37.51 	0.051693 	4933 	0.051099
37.53 	0.053466 	4919 	0.052018
37.55 	0.058824 	4930 	0.058111
37.57 	0.052183 	4925 	0.051350
37.59 	0.052899 	4915 	0.051827
37.61 	0.062373 	4922 	0.060945
37.63 	0.050620 	4919 	0.049191
37.65 	0.056730 	4918 	0.055420
37.67 	0.052610 	4904 	0.051655
37.69 	0.056145 	4898 	0.055547
37.71 	0.055386 	4929 	0.054911
37.73 	0.056807 	4929 	0.055737
37.75 	0.049595 	4940 	0.048884
37.77 	0.056707 	4920 	0.055517
37.79 	0.051116 	4930 	0.050878
37.81 	0.057571 	4933 	0.056483
37.83 	0.056707 	4920 	0.055993
37.85 	0.055262 	4922 	0.053953
37.87 	0.052642 	4939 	0.052286
37.89 	0.061929 	4925 	0.061096
37.91 	0.051724 	4930 	0.051249
37.93 	0.053060 	4919 	0.052345
37.95 	0.054257 	4921 	0.053662
37.97 	0.054778 	4929 	0.053827
37.99 	0.054967 	4912 	0.053894
38.01 	0.059050 	4928 	0.057981
38.03 	0.055612 	4909 	0.054180
38.05 	0.052589 	4925 	0.051737
38.07 	0.057038 	4909 	0.056561
38.09 	0.052276 	4878 	0.051555
38.11 	0.056738 	4935 	0.056025
38.13 	0.058943 	4937 	0.057993
38.15 	0.056324 	4918 	0.055490
38.17 	0.050101 	4930 	0.048913
38.19 	0.059635 	4930 	0.059041
38.21 	0.058704 	4923 	0.057733
38.23 	0.057108 	4938 	0.056159
38.25 	0.062640 	4917 	0.061925
38.27 	0.063083 	4930 	0.062133
38.29 	0.059301 	4924 	0.058231
38.31 	0.065557 	4927 	0.064725
38.33 	0.057677 	4924 	0.057082
38.35 	0.062703 	4928 	0.061871
38.37 	0.069862 	4924 	0.067245
38.39 	0.066409 	4909 	0.065693
38.41 	0.073939 	4923 	0.072035
38.43 	0.081977 	4916 	0.080289
38.45 	0.075234 	4918 	0.073189
38.47 	0.071734 	4907 	0.069944
38.49 	0.074021 	4877 	0.072700
38.51 	0.068127 	4932 	0.067176
38.53 	0.076486 	4929 	0.074703
38.55 	0.079417 	4936 	0.077874
38.57 	0.071095 	4923 	0.069409
38.59 	0.068440 	4924 	0.067132
38.61 	0.075567 	4936 	0.073293
38.63 	0.065394 	4924 	0.064085
38.65 	0.070150 	4918 	0.068106
38.67 	0.065222 	4937 	0.063798
38.69 	0.067859 	4922 	0.066430
38.71 	0.065597 	4924 	0.064764
38.73 	0.065474 	4918 	0.064164
38.75 	0.057845 	4927 	0.057131
38.77 	0.062360 	4923 	0.060576
38.79 	0.053304 	4934 	0.052235
38.81 	0.059243 	4912 	0.058766
38.83 	0.056312 	4919 	0.055002
38.85 	0.058836 	4912 	0.058001
38.87 	0.050906 	4911 	0.049833
38.89 	0.051256 	4897 	0.050299
38.91 	0.052621 	4903 	0.051765
38.93 	0.051033 	4938 	0.050440
38.95 	0.049817 	4918 	0.049579
38.97 	0.051105 	4931 	0.050274
38.99 	0.043954 	4937 	0.043717
39.01 	0.046767 	4918 	0.046052
39.03 	0.048642 	4934 	0.047692
39.05 	0.049137 	4925 	0.048661
39.07 	0.049553 	4924 	0.048720
39.09 	0.044485 	4923 	0.043771
39.11 	0.043399 	4931 	0.043043
39.13 	0.047329 	4923 	0.046853
39.15 	0.048627 	4915 	0.047912
39.17 	0.050233 	4937 	0.049521
39.19 	0.044946 	4917 	0.044112
39.21 	0.039511 	4910 	0.038915
39.23 	0.044670 	4925 	0.043837
39.25 	0.047948 	4922 	0.046877
39.27 	0.050102 	4910 	0.049267
39.29 	0.044685 	4901 	0.044087
39.31 	0.045455 	4884 	0.045095
39.33 	0.051511 	4931 	0.050303
39.35 	0.043364 	4935 	0.042889
39.37 	0.042402 	4929 	0.041927
39.39 	0.044837 	4929 	0.044361
39.41 	0.045832 	4931 	0.045476
39.43 	0.044800 	4933 	0.044325
39.45 	0.045076 	4925 	0.044838
39.47 	0.043673 	4923 	0.043078
39.49 	0.046422 	4933 	0.045710
39.51 	0.043461 	4924 	0.042985
39.53 	0.048751 	4923 	0.048394
39.55 	0.043505 	4919 	0.043028
39.57 	0.048855 	4933 	0.048261
39.59 	0.042345 	4912 	0.042226
39.61 	0.041032 	4923 	0.039941
39.63 	0.045916 	4922 	0.045202
39.65 	0.042631 	4926 	0.042512
39.67 	0.044576 	4913 	0.044337
39.69 	0.043938 	4916 	0.043581
39.71 	0.050664 	4895 	0.049826
39.73 	0.044417 	4908 	0.043821
39.75 	0.042208 	4928 	0.041257
39.77 	0.043161 	4935 	0.042924
39.79 	0.045879 	4926 	0.045403
39.81 	0.050538 	4927 	0.049349
39.83 	0.040130 	4934 	0.039774
39.85 	0.049929 	4927 	0.049453
39.87 	0.043452 	4925 	0.043075
39.89 	0.040332 	4934 	0.040095
39.91 	0.047135 	4922 	0.045945
39.93 	0.041726 	4937 	0.041370
39.95 	0.044557 	4915 	0.044081
39.97 	0.044034 	4928 	0.043796
39.99 	0.039943 	4932 	0.039706
40.01 	0.044530 	4918 	0.043935
40.03 	0.043831 	4928 	0.043475
40.05 	0.042709 	4917 	0.042590
40.07 	0.037579 	4923 	0.037222
40.09 	0.037429 	4916 	0.036952
40.11 	0.044345 	4916 	0.043749
40.13 	0.036765 	4896 	0.036525
40.15 	0.039487 	4913 	0.039129
40.17 	0.042005 	4928 	0.041648
40.19 	0.036721 	4929 	0.036127
40.21 	0.042958 	4935 	0.042484
40.23 	0.040552 	4932 	0.040294
40.25 	0.041667 	4920 	0.040695
40.27 	0.041523 	4937 	0.041049
40.29 	0.043028 	4927 	0.042058
40.31 	0.046163 	4939 	0.045452
40.33 	0.045620 	4932 	0.045027
40.35 	0.039845 	4919 	0.039607
40.37 	0.038344 	4929 	0.037750
40.39 	0.040763 	4931 	0.040169
40.41 	0.041015 	4925 	0.040658
40.43 	0.041650 	4922 	0.040936
40.45 	0.041962 	4933 	0.041487
40.47 	0.040057 	4918 	0.039938
40.49 	0.045067 	4926 	0.044591
40.51 	0.038805 	4922 	0.038210
40.53 	0.041090 	4916 	0.040495
40.55 	0.041361 	4908 	0.040645
40.57 	0.047239 	4890 	0.046640
40.59 	0.039903 	4937 	0.039547
40.61 	0.042553 	4935 	0.041703
40.63 	0.037525 	4930 	0.037169
40.65 	0.040916 	4937 	0.040441
40.67 	0.041160 	4932 	0.040803
40.69 	0.036662 	4937 	0.036662
40.71 	0.038321 	4932 	0.037727
40.73 	0.037150 	4926 	0.036912
40.75 	0.047860 	4931 	0.047504
40.77 	0.046366 	4939 	0.045891
40.79 	0.044476 	4924 	0.043505
40.81 	0.044728 	4941 	0.044135
40.83 	0.037135 	4928 	0.036778
40.85 	0.040008 	4924 	0.039889
40.87 	0.038758 	4928 	0.038045
40.89 	0.037112 	4931 	0.036993
40.91 	0.041235 	4923 	0.040759
40.93 	0.043778 	4934 	0.043540
40.95 	0.047832 	4913 	0.046243
40.97 	0.036759 	4924 	0.036164
40.99 	0.040414 	4924 	0.039938
41.01 	0.043363 	4912 	0.042171
41.03 	0.044037 	4905 	0.043798
41.05 	0.048825 	4936 	0.047994
41.07 	0.034686 	4930 	0.034329
41.09 	0.040292 	4939 	0.040054
41.11 	0.042351 	4935 	0.041876
41.13 	0.044165 	4936 	0.043453
41.15 	0.041490 	4941 	0.040660
41.17 	0.042764 	4934 	0.041933
41.19 	0.042191 	4930 	0.041359
41.21 	0.040713 	4937 	0.040357
41.23 	0.039887 	4939 	0.039175
41.25 	0.039327 	4933 	0.038476
41.27 	0.038532 	4931 	0.038294
41.29 	0.041193 	4928 	0.041074
41.31 	0.043584 	4933 	0.042990
41.33 	0.037877 	4937 	0.037521
41.35 	0.039085 	4938 	0.038729
41.37 	0.039602 	4924 	0.039364
41.39 	0.040138 	4933 	0.039188
41.41 	0.038977 	4926 	0.038501
41.43 	0.038344 	4929 	0.037513
41.45 	0.039479 	4914 	0.039002
41.47 	0.037353 	4926 	0.037115
41.49 	0.038430 	4892 	0.038191
41.51 	0.042915 	4940 	0.042441
41.53 	0.040251 	4944 	0.039777
41.55 	0.035258 	4935 	0.034902
41.57 	0.038859 	4941 	0.038503
41.59 	0.040341 	4933 	0.039984
41.61 	0.039976 	4953 	0.039384
41.63 	0.036452 	4938 	0.036215
41.65 	0.039968 	4929 	0.039611
41.67 	0.036842 	4940 	0.036486
41.69 	0.042046 	4947 	0.041690
41.71 	0.042967 	4934 	0.042117
41.73 	0.037480 	4936 	0.037124
41.75 	0.039156 	4929 	0.038324
41.77 	0.042502 	4941 	0.042027
41.79 	0.038026 	4944 	0.037907
41.81 	0.038088 	4936 	0.037731
41.83 	0.040990 	4928 	0.040634
41.85 	0.041911 	4939 	0.041437
41.87 	0.037487 	4935 	0.037230
41.89 	0.038111 	4933 	0.037754
41.91 	0.043152 	4936 	0.042559
41.93 	0.037510 	4932 	0.037035
41.95 	0.034273 	4931 	0.034035
41.97 	0.037037 	4914 	0.036799
41.99 	0.041590 	4905 	0.041232
42.01 	0.036018 	4942 	0.035899
42.03 	0.034217 	4939 	0.033624
42.05 	0.039378 	4952 	0.038531
42.07 	0.040308 	4937 	0.039596
42.09 	0.036378 	4948 	0.036023
42.11 	0.037412 	4945 	0.037056
42.13 	0.040243 	4945 	0.039887
42.15 	0.034427 	4938 	0.034427
42.17 	0.040870 	4918 	0.040275
42.19 	0.035860 	4908 	0.035382
42.21 	0.031422 	4901 	0.031183
42.23 	0.039452 	4892 	0.039093
42.25 	0.040908 	4889 	0.040429
42.27 	0.037546 	4874 	0.037306
42.29 	0.035575 	4863 	0.035093
42.31 	0.036663 	4855 	0.036301
42.33 	0.037236 	4834 	0.036873
42.35 	0.035759 	4838 	0.035254
42.37 	0.039545 	4830 	0.038938
42.39 	0.037261 	4804 	0.036651
42.41 	0.039134 	4804 	0.038524
42.43 	0.039858 	4792 	0.039002
42.45 	0.041457 	4776 	0.041089
42.47 	0.035257 	4765 	0.035134
42.49 	0.040504 	4765 	0.040012
42.51 	0.037107 	4743 	0.036984
42.53 	0.038917 	4728 	0.038793
42.55 	0.034197 	4708 	0.033824
42.57 	0.031078 	4730 	0.030954
42.59 	0.036794 	4729 	0.036299
42.61 	0.036534 	4708 	0.036409
42.63 	0.038649 	4709 	0.037779
42.65 	0.039274 	4685 	0.038399
42.67 	0.039923 	4684 	0.039548
42.69 	0.036799 	4674 	0.036674
42.71 	0.034313 	4663 	0.033810
42.73 	0.038362 	4640 	0.037857
42.75 	0.042019 	4617 	0.041638
42.77 	0.038043 	4600 	0.037661
42.79 	0.038848 	4582 	0.038592
42.81 	0.038141 	4562 	0.038013
42.83 	0.042549 	4536 	0.041903
42.85 	0.038648 	4528 	0.038260
42.87 	0.039787 	4499 	0.039005
42.89 	0.039732 	4480 	0.039471
42.91 	0.038600 	4456 	0.038337
42.93 	0.037112 	4446 	0.036849
42.95 	0.037817 	4416 	0.037154
42.97 	0.037264 	4401 	0.037131
42.99 	0.032839 	4385 	0.032305
43.01 	0.039881 	4363 	0.039210
43.03 	0.035772 	4333 	0.035366
43.05 	0.035607 	4325 	0.035065
43.07 	0.039106 	4296 	0.038697
43.09 	0.036423 	4283 	0.036150
43.11 	0.041363 	4255 	0.040537
43.13 	0.036110 	4237 	0.035834
43.15 	0.035188 	4206 	0.034491
43.17 	0.037569 	4179 	0.037288
43.19 	0.038388 	4194 	0.038109
43.21 	0.039789 	4172 	0.039508
43.23 	0.042128 	4154 	0.042128
43.25 	0.041838 	4135 	0.041696
43.27 	0.039708 	4105 	0.039422
43.29 	0.042927 	4100 	0.042641
43.31 	0.036283 	4079 	0.035853
43.33 	0.038262 	4051 	0.038262
43.35 	0.035714 	4032 	0.034843
43.37 	0.040847 	4015 	0.040117
43.39 	0.035982 	4002 	0.035543
43.41 	0.040030 	3972 	0.039735
43.43 	0.042424 	3960 	0.042276
43.45 	0.041423 	3935 	0.040357
43.47 	0.037235 	3921 	0.036937
43.49 	0.039518 	3897 	0.038616
43.51 	0.040237 	3877 	0.039784
43.53 	0.037794 	3863 	0.037340
43.55 	0.040486 	2964 	0.040288
43.57 	0.038427 	2238 	0.037642
43.59 	0.039519 	1746 	0.039183
43.61 	0.036269 	1351 	0.034969
43.63 	0.034965 	1001 	0.034380
43.65 	0.032023 	687 	0.032023
43.67 	0.033865 	502 	0.033865
43.69 	0.032698 	367 	0.032698
43.71 	0.012552 	239 	0.012552
43.73 	0.041667 	120 	0.041667
43.75 	0.062500 	16 	0.062500