File: Example_Data/25SC_s1_0032.004.dat
#F C:\frames\spec\25SC_s1_0032.004
#C title =s:32 frm:4 25SC_s1
#C wavelength =0.15406

#S 1  fr_average C:\frames\spec\25SC_s1_0032.004 C:\win32app\speccom\mask.axs chi 0 180 0 360 0.02
#C 2 theta =0.000000 to 180 deg
#C   q   =0.000000 to 81.568 nm^-1
#C  chi  =0.000000 to 360 deg
#C collumns:
#C  1 position (2theta or chi in degrees)
#C  2 average intensity (sum of all counts in the region divided with number of pixels)
#C  3 Number of pixels in region)
#C  4 error (sum of sqrt(intensity) for all pixels divided by number)
#N 4
#L TTh  Int  N_pix  Err
32.99 	0.098361 	61 	0.098361
33.01 	0.060710 	873 	0.060039
33.03 	0.058950 	1391 	0.057618
33.05 	0.060899 	1757 	0.060232
33.07 	0.050732 	2050 	0.050732
33.09 	0.049851 	2347 	0.049601
33.11 	0.057774 	2579 	0.055503
33.13 	0.057644 	2793 	0.056805
33.15 	0.061020 	2999 	0.059262
33.17 	0.061543 	3201 	0.059896
33.19 	0.053262 	3342 	0.052560
33.21 	0.053260 	3436 	0.051896
33.23 	0.062731 	3523 	0.060403
33.25 	0.055648 	3612 	0.054837
33.27 	0.056198 	3630 	0.054907
33.29 	0.053180 	3648 	0.051735
33.31 	0.054918 	3660 	0.053798
33.33 	0.057515 	3686 	0.056720
33.35 	0.060368 	3694 	0.059258
33.37 	0.049812 	3714 	0.048865
33.39 	0.051488 	3729 	0.050860
33.41 	0.060160 	3740 	0.058594
33.43 	0.058229 	3761 	0.057295
33.45 	0.058839 	3773 	0.057597
33.47 	0.062928 	3798 	0.061977
33.49 	0.055395 	3809 	0.054165
33.51 	0.062385 	3815 	0.061439
33.53 	0.056235 	3841 	0.055778
33.55 	0.064533 	3843 	0.063313
33.57 	0.056745 	3877 	0.056292
33.59 	0.064175 	3880 	0.062967
33.61 	0.060885 	3909 	0.059536
33.63 	0.054861 	3919 	0.054114
33.65 	0.062579 	3931 	0.061983
33.67 	0.052605 	3954 	0.051716
33.69 	0.060460 	3953 	0.059275
33.71 	0.059623 	3975 	0.059181
33.73 	0.061439 	4004 	0.060414
33.75 	0.058515 	3999 	0.056610
33.77 	0.055652 	4025 	0.055361
33.79 	0.048255 	4041 	0.047531
33.81 	0.063398 	4038 	0.062382
33.83 	0.054568 	4050 	0.052977
33.85 	0.061234 	4099 	0.059948
33.87 	0.061056 	4111 	0.059916
33.89 	0.065033 	4121 	0.064014
33.91 	0.057845 	4149 	0.056998
33.93 	0.063840 	4151 	0.063134
33.95 	0.060512 	4181 	0.059811
33.97 	0.062053 	4190 	0.061074
33.99 	0.063095 	4200 	0.061678
34.01 	0.052457 	4213 	0.052318
34.03 	0.058435 	4244 	0.056917
34.05 	0.063735 	4252 	0.062908
34.07 	0.062324 	4268 	0.061775
34.09 	0.055763 	4286 	0.054943
34.11 	0.054393 	4302 	0.052737
34.13 	0.057335 	4308 	0.056089
34.15 	0.053336 	4331 	0.052390
34.17 	0.060460 	4350 	0.059517
34.19 	0.055021 	4362 	0.054349
34.21 	0.064059 	4371 	0.063120
34.23 	0.054177 	4393 	0.052844
34.25 	0.058583 	4404 	0.057785
34.27 	0.057666 	4422 	0.057004
34.29 	0.059076 	4435 	0.058283
34.31 	0.055406 	4458 	0.054092
34.33 	0.052561 	4471 	0.051644
34.35 	0.062221 	4484 	0.061307
34.37 	0.064128 	4491 	0.062563
34.39 	0.062195 	4502 	0.061024
34.41 	0.059876 	4526 	0.058841
34.43 	0.058824 	4539 	0.057533
34.45 	0.055347 	4535 	0.054960
34.47 	0.059451 	4592 	0.058813
34.49 	0.057646 	4597 	0.056224
34.51 	0.052323 	4606 	0.051306
34.53 	0.055998 	4643 	0.055115
34.55 	0.059660 	4643 	0.059029
34.57 	0.054721 	4660 	0.054218
34.59 	0.060535 	4675 	0.058655
34.61 	0.052161 	4697 	0.051787
34.63 	0.052654 	4710 	0.051908
34.65 	0.063334 	4721 	0.062465
34.67 	0.056317 	4741 	0.055823
34.69 	0.054691 	4754 	0.053459
34.71 	0.056441 	4766 	0.055438
34.73 	0.059745 	4787 	0.058889
34.75 	0.053869 	4808 	0.052874
34.77 	0.062474 	4818 	0.061603
34.79 	0.054519 	4824 	0.053790
34.81 	0.052219 	4845 	0.051372
34.83 	0.058618 	4862 	0.057534
34.85 	0.057301 	4869 	0.056579
34.87 	0.058340 	4868 	0.057117
34.89 	0.054896 	4882 	0.054296
34.91 	0.057763 	4882 	0.056923
34.93 	0.054909 	4899 	0.054550
34.95 	0.058282 	4890 	0.056964
34.97 	0.063239 	4902 	0.062045
34.99 	0.055136 	4897 	0.053940
35.01 	0.058501 	4923 	0.057529
35.03 	0.059883 	4943 	0.058935
35.05 	0.056802 	4947 	0.055855
35.07 	0.057085 	4940 	0.055543
35.09 	0.058348 	4953 	0.057383
35.11 	0.060036 	4947 	0.058852
35.13 	0.062727 	4958 	0.062136
35.15 	0.056917 	4937 	0.055731
35.17 	0.059442 	4946 	0.058376
35.19 	0.063335 	4942 	0.061912
35.21 	0.055410 	4945 	0.053751
35.23 	0.060465 	4945 	0.059399
35.25 	0.055432 	4943 	0.054247
35.27 	0.058812 	4948 	0.057628
35.29 	0.055410 	4945 	0.054324
35.31 	0.060004 	4933 	0.059054
35.33 	0.056443 	4943 	0.055614
35.35 	0.060907 	4942 	0.059721
35.37 	0.055679 	4939 	0.054849
35.39 	0.063701 	4945 	0.062753
35.41 	0.065367 	4926 	0.064654
35.43 	0.055544 	4933 	0.055188
35.45 	0.057727 	4937 	0.056778
35.47 	0.053336 	4931 	0.052861
35.49 	0.056415 	4910 	0.055819
35.51 	0.057653 	4926 	0.056702
35.53 	0.056981 	4949 	0.055916
35.55 	0.054601 	4945 	0.053416
35.57 	0.058382 	4933 	0.056720
35.59 	0.056421 	4945 	0.055828
35.61 	0.061716 	4942 	0.061005
35.63 	0.060287 	4943 	0.059339
35.65 	0.054601 	4945 	0.053989
35.67 	0.053217 	4942 	0.052506
35.69 	0.060655 	4946 	0.059096
35.71 	0.054892 	4937 	0.053448
35.73 	0.052877 	4936 	0.052521
35.75 	0.050497 	4931 	0.049784
35.77 	0.055948 	4951 	0.055238
35.79 	0.057786 	4932 	0.056717
35.81 	0.063045 	4933 	0.062214
35.83 	0.052770 	4946 	0.052178
35.85 	0.058359 	4935 	0.057646
35.87 	0.059517 	4923 	0.058803
35.89 	0.053101 	4934 	0.052507
35.91 	0.053988 	4927 	0.053037
35.93 	0.053176 	4927 	0.052344
35.95 	0.054098 	4917 	0.052549
35.97 	0.058428 	4912 	0.057236
35.99 	0.057704 	4939 	0.056281
36.01 	0.060446 	4930 	0.059258
36.03 	0.054218 	4943 	0.053270
36.05 	0.056421 	4945 	0.055118
36.07 	0.056894 	4939 	0.055708
36.09 	0.053644 	4940 	0.053051
36.11 	0.058835 	4929 	0.057885
36.13 	0.055038 	4942 	0.054090
36.15 	0.056489 	4939 	0.055778
36.17 	0.054822 	4925 	0.054109
36.19 	0.054251 	4940 	0.053421
36.21 	0.063502 	4929 	0.061957
36.23 	0.059169 	4935 	0.058576
36.25 	0.056264 	4941 	0.055177
36.27 	0.064162 	4925 	0.062953
36.29 	0.052322 	4931 	0.050896
36.31 	0.065747 	4928 	0.064320
36.33 	0.057774 	4933 	0.056943
36.35 	0.054778 	4929 	0.054540
36.37 	0.050579 	4923 	0.050222
36.39 	0.054257 	4921 	0.053642
36.41 	0.059845 	4896 	0.058529
36.43 	0.050731 	4928 	0.050136
36.45 	0.051116 	4930 	0.050640
36.47 	0.056321 	4936 	0.054778
36.49 	0.055848 	4942 	0.054307
36.51 	0.057369 	4933 	0.056181
36.53 	0.055027 	4943 	0.053605
36.55 	0.056830 	4927 	0.055997
36.57 	0.056141 	4934 	0.055310
36.59 	0.058109 	4939 	0.056686
36.61 	0.058406 	4931 	0.057436
36.63 	0.058406 	4931 	0.057337
36.65 	0.051703 	4932 	0.050515
36.67 	0.051521 	4930 	0.050789
36.69 	0.054575 	4929 	0.053961
36.71 	0.062792 	4921 	0.061840
36.73 	0.058477 	4925 	0.057526
36.75 	0.049150 	4944 	0.048321
36.77 	0.057532 	4919 	0.056679
36.79 	0.048567 	4921 	0.047734
36.81 	0.047193 	4916 	0.046835
36.83 	0.060427 	4915 	0.059097
36.85 	0.062270 	4898 	0.060835
36.87 	0.049960 	4944 	0.049486
36.89 	0.052278 	4916 	0.051921
36.91 	0.052216 	4941 	0.051742
36.93 	0.055172 	4930 	0.054697
36.95 	0.053720 	4933 	0.052869
36.97 	0.051682 	4934 	0.050970
36.99 	0.057345 	4935 	0.056158
37.01 	0.050679 	4933 	0.050085
37.03 	0.058083 	4924 	0.056893
37.05 	0.053176 	4927 	0.051968
37.07 	0.053293 	4935 	0.052699
37.09 	0.062703 	4928 	0.061990
37.11 	0.054711 	4935 	0.054118
37.13 	0.057067 	4924 	0.055640
37.15 	0.053168 	4909 	0.052094
37.17 	0.051682 	4934 	0.051089
37.19 	0.057462 	4925 	0.056134
37.21 	0.057352 	4917 	0.056876
37.23 	0.053274 	4918 	0.052659
37.25 	0.055589 	4911 	0.054516
37.27 	0.050061 	4894 	0.049223
37.29 	0.054564 	4930 	0.053970
37.31 	0.055724 	4935 	0.054894
37.33 	0.049320 	4927 	0.048488
37.35 	0.058728 	4938 	0.057661
37.37 	0.052973 	4927 	0.052498
37.39 	0.054553 	4931 	0.053484
37.41 	0.054756 	4931 	0.053924
37.43 	0.053528 	4932 	0.053172
37.45 	0.049756 	4924 	0.049399
37.47 	0.049300 	4929 	0.048349
37.49 	0.055048 	4923 	0.054572
37.51 	0.054531 	4933 	0.053818
37.53 	0.055092 	4919 	0.054497
37.55 	0.054767 	4930 	0.053579
37.57 	0.057259 	4925 	0.056426
37.59 	0.053917 	4915 	0.052606
37.61 	0.055262 	4922 	0.054409
37.63 	0.050213 	4919 	0.049718
37.65 	0.053274 	4918 	0.052321
37.67 	0.060563 	4904 	0.059607
37.69 	0.053491 	4898 	0.053013
37.71 	0.057618 	4929 	0.056549
37.73 	0.056807 	4929 	0.056094
37.75 	0.049190 	4940 	0.048360
37.77 	0.051016 	4920 	0.050302
37.79 	0.055375 	4930 	0.054544
37.81 	0.058585 	4933 	0.057734
37.83 	0.054268 	4920 	0.053435
37.85 	0.054043 	4922 	0.052734
37.87 	0.052440 	4939 	0.051847
37.89 	0.052589 	4925 	0.051756
37.91 	0.056389 	4930 	0.055301
37.93 	0.055092 	4919 	0.054259
37.95 	0.056493 	4921 	0.055659
37.97 	0.054981 	4929 	0.054149
37.99 	0.053339 	4912 	0.052265
38.01 	0.054180 	4928 	0.053824
38.03 	0.059483 	4909 	0.058409
38.05 	0.054416 	4925 	0.053445
38.07 	0.059279 	4909 	0.058324
38.09 	0.062116 	4878 	0.061275
38.11 	0.055927 	4935 	0.055096
38.13 	0.056512 	4937 	0.055781
38.15 	0.057544 	4918 	0.056472
38.17 	0.052130 	4930 	0.051179
38.19 	0.061866 	4930 	0.060797
38.21 	0.057485 	4923 	0.056890
38.23 	0.058121 	4938 	0.057172
38.25 	0.059793 	4917 	0.059197
38.27 	0.061460 	4930 	0.060153
38.29 	0.063566 	4924 	0.062089
38.31 	0.060280 	4927 	0.059091
38.33 	0.062348 	4924 	0.061277
38.35 	0.075487 	4928 	0.073823
38.37 	0.072705 	4924 	0.071040
38.39 	0.068853 	4909 	0.066944
38.41 	0.066423 	4923 	0.065590
38.43 	0.064280 	4916 	0.063088
38.45 	0.067100 	4918 	0.065790
38.47 	0.063379 	4907 	0.062185
38.49 	0.070125 	4877 	0.069525
38.51 	0.062247 	4932 	0.061415
38.53 	0.064110 	4929 	0.062447
38.55 	0.066248 	4936 	0.064943
38.57 	0.059720 	4923 	0.058649
38.59 	0.057677 	4924 	0.056368
38.61 	0.057334 	4936 	0.056384
38.63 	0.059504 	4924 	0.058077
38.65 	0.059577 	4918 	0.058743
38.67 	0.055904 	4937 	0.055548
38.69 	0.056481 	4922 	0.055767
38.71 	0.050772 	4924 	0.050177
38.73 	0.056324 	4918 	0.054260
38.75 	0.052365 	4927 	0.051532
38.77 	0.047735 	4923 	0.046783
38.79 	0.059587 	4934 	0.058755
38.81 	0.058021 	4912 	0.057186
38.83 	0.050620 	4919 	0.049767
38.85 	0.052932 	4912 	0.052316
38.87 	0.052739 	4911 	0.051307
38.89 	0.052073 	4897 	0.051594
38.91 	0.053845 	4903 	0.052889
38.93 	0.052855 	4938 	0.052500
38.95 	0.051240 	4918 	0.049930
38.97 	0.056378 	4931 	0.054834
38.99 	0.054689 	4937 	0.054096
39.01 	0.051444 	4918 	0.050610
39.03 	0.056952 	4934 	0.056477
39.05 	0.057868 	4925 	0.056916
39.07 	0.048741 	4924 	0.047908
39.09 	0.054438 	4923 	0.053486
39.11 	0.055770 	4931 	0.055057
39.13 	0.055251 	4923 	0.054656
39.15 	0.062258 	4915 	0.061405
39.17 	0.054487 	4937 	0.053537
39.19 	0.053081 	4917 	0.052247
39.21 	0.048676 	4910 	0.048199
39.23 	0.054619 	4925 	0.053430
39.25 	0.051808 	4922 	0.051094
39.27 	0.060692 	4910 	0.059122
39.29 	0.047337 	4901 	0.046740
39.31 	0.053235 	4884 	0.051896
39.33 	0.051916 	4931 	0.051322
39.35 	0.058561 	4935 	0.057968
39.37 	0.049097 	4929 	0.048265
39.39 	0.050720 	4929 	0.049769
39.41 	0.050700 	4931 	0.050343
39.43 	0.052909 	4933 	0.052078
39.45 	0.055025 	4925 	0.053955
39.47 	0.049157 	4923 	0.048443
39.49 	0.057774 	4933 	0.056587
39.51 	0.058692 	4924 	0.057621
39.53 	0.050376 	4923 	0.049900
39.55 	0.052653 	4919 	0.051343
39.57 	0.050476 	4933 	0.050001
39.59 	0.054153 	4912 	0.053318
39.61 	0.051391 	4923 	0.050539
39.63 	0.051808 	4922 	0.050499
39.65 	0.050142 	4926 	0.049310
39.67 	0.055160 	4913 	0.054921
39.69 	0.051465 	4916 	0.050869
39.71 	0.051073 	4895 	0.050355
39.73 	0.059902 	4908 	0.058589
39.75 	0.052557 	4928 	0.051943
39.77 	0.054711 	4935 	0.053287
39.79 	0.053593 	4926 	0.052523
39.81 	0.053582 	4927 	0.052750
39.83 	0.055330 	4934 	0.054855
39.85 	0.056424 	4927 	0.055354
39.87 	0.053198 	4925 	0.052246
39.89 	0.047021 	4934 	0.046170
39.91 	0.051199 	4922 	0.050485
39.93 	0.059753 	4937 	0.058210
39.95 	0.061851 	4915 	0.061256
39.97 	0.050731 	4928 	0.050374
39.99 	0.055150 	4932 	0.054200
40.01 	0.056934 	4918 	0.056100
40.03 	0.050731 	4928 	0.049898
40.05 	0.059589 	4917 	0.058239
40.07 	0.050985 	4923 	0.050747
40.09 	0.054516 	4916 	0.053920
40.11 	0.054516 	4916 	0.053682
40.13 	0.049020 	4896 	0.048302
40.15 	0.055160 	4913 	0.053471
40.17 	0.052963 	4928 	0.052111
40.19 	0.048489 	4929 	0.047775
40.21 	0.054711 	4935 	0.053287
40.23 	0.050081 	4932 	0.049487
40.25 	0.053862 	4920 	0.052790
40.27 	0.052664 	4937 	0.051714
40.29 	0.051959 	4927 	0.051364
40.31 	0.047378 	4939 	0.046785
40.33 	0.057786 	4932 	0.056460
40.35 	0.049604 	4919 	0.049008
40.37 	0.055184 	4929 	0.054233
40.39 	0.051105 	4931 	0.050155
40.41 	0.052386 	4925 	0.051553
40.43 	0.055465 	4922 	0.054275
40.45 	0.049463 	4933 	0.049225
40.47 	0.043310 	4918 	0.042477
40.49 	0.054608 	4926 	0.054014
40.51 	0.051605 	4922 	0.050891
40.53 	0.059601 	4916 	0.058410
40.55 	0.049511 	4908 	0.049272
40.57 	0.046421 	4890 	0.045463
40.59 	0.052866 	4937 	0.052629
40.61 	0.046809 	4935 	0.046077
40.63 	0.051724 	4930 	0.050417
40.65 	0.048410 	4937 	0.047560
40.67 	0.051298 	4932 	0.050466
40.69 	0.049423 	4937 	0.048355
40.71 	0.053933 	4932 	0.052983
40.73 	0.050954 	4926 	0.049884
40.75 	0.052322 	4931 	0.051728
40.77 	0.050618 	4939 	0.049649
40.79 	0.052193 	4924 	0.051460
40.81 	0.049383 	4941 	0.048553
40.83 	0.056412 	4928 	0.055323
40.85 	0.050975 	4924 	0.050380
40.87 	0.051948 	4928 	0.050878
40.89 	0.050091 	4931 	0.049497
40.91 	0.050376 	4923 	0.049543
40.93 	0.048034 	4934 	0.047440
40.95 	0.050885 	4913 	0.050289
40.97 	0.048741 	4924 	0.048503
40.99 	0.051381 	4924 	0.050548
41.01 	0.050285 	4912 	0.049808
41.03 	0.050968 	4905 	0.050132
41.05 	0.053890 	4936 	0.053059
41.07 	0.049087 	4930 	0.048493
41.09 	0.047378 	4939 	0.046548
41.11 	0.051064 	4935 	0.049877
41.13 	0.047204 	4936 	0.047086
41.15 	0.052014 	4941 	0.051777
41.17 	0.044386 	4934 	0.043555
41.19 	0.044422 	4930 	0.043947
41.21 	0.047802 	4937 	0.047328
41.23 	0.044341 	4939 	0.043867
41.25 	0.050274 	4933 	0.049799
41.27 	0.044616 	4931 	0.043784
41.29 	0.046469 	4928 	0.045994
41.31 	0.046017 	4933 	0.045423
41.33 	0.046992 	4937 	0.046043
41.35 	0.046578 	4938 	0.045866
41.37 	0.047522 	4924 	0.047403
41.39 	0.058788 	4933 	0.058075
41.41 	0.046894 	4926 	0.046181
41.43 	0.045851 	4929 	0.044306
41.45 	0.046398 	4914 	0.045921
41.47 	0.049330 	4926 	0.048260
41.49 	0.054988 	4892 	0.053790
41.51 	0.052632 	4940 	0.052039
41.53 	0.048544 	4944 	0.047833
41.55 	0.047822 	4935 	0.046753
41.57 	0.048371 	4941 	0.047610
41.59 	0.048044 	4933 	0.047094
41.61 	0.048657 	4953 	0.048303
41.63 	0.049818 	4938 	0.049106
41.65 	0.048489 	4929 	0.047399
41.67 	0.053036 	4940 	0.052088
41.69 	0.046089 	4947 	0.045141
41.71 	0.046007 	4934 	0.045295
41.73 	0.048622 	4936 	0.048385
41.75 	0.044634 	4929 	0.044277
41.77 	0.048573 	4941 	0.047743
41.79 	0.043689 	4944 	0.043077
41.81 	0.049230 	4936 	0.048874
41.83 	0.047484 	4928 	0.047246
41.85 	0.048593 	4939 	0.048237
41.87 	0.047011 	4935 	0.046180
41.89 	0.048652 	4933 	0.048058
41.91 	0.047812 	4936 	0.047575
41.93 	0.045012 	4932 	0.044537
41.95 	0.042993 	4931 	0.042399
41.97 	0.042532 	4914 	0.042174
41.99 	0.045260 	4905 	0.044663
42.01 	0.044719 	4942 	0.044482
42.03 	0.039684 	4939 	0.039328
42.05 	0.048465 	4952 	0.047992
42.07 	0.045574 	4937 	0.045100
42.09 	0.041431 	4948 	0.041076
42.11 	0.047927 	4945 	0.046861
42.13 	0.046107 	4945 	0.045752
42.15 	0.048603 	4938 	0.048010
42.17 	0.043920 	4918 	0.043563
42.19 	0.045640 	4908 	0.045043
42.21 	0.050806 	4901 	0.050089
42.23 	0.050695 	4892 	0.049737
42.25 	0.049499 	4889 	0.049020
42.27 	0.045753 	4874 	0.045152
42.29 	0.046062 	4863 	0.045821
42.31 	0.043872 	4855 	0.043510
42.33 	0.044477 	4834 	0.043871
42.35 	0.048987 	4838 	0.047776
42.37 	0.040787 	4830 	0.040180
42.39 	0.050167 	4804 	0.049313
42.41 	0.045171 	4804 	0.045049
42.43 	0.046327 	4792 	0.045085
42.45 	0.043132 	4776 	0.042274
42.47 	0.048688 	4765 	0.048442
42.49 	0.043861 	4765 	0.043616
42.51 	0.050390 	4743 	0.049649
42.53 	0.041244 	4728 	0.040748
42.55 	0.046941 	4708 	0.046568
42.57 	0.049471 	4730 	0.048481
42.59 	0.048002 	4729 	0.047382
42.61 	0.042056 	4708 	0.041683
42.63 	0.044595 	4709 	0.044098
42.65 	0.046531 	4685 	0.045906
42.67 	0.048463 	4684 	0.047963
42.69 	0.050278 	4674 	0.049401
42.71 	0.045464 	4663 	0.044836
42.73 	0.050431 	4640 	0.050179
42.75 	0.042019 	4617 	0.041638
42.77 	0.046739 	4600 	0.046357
42.79 	0.044304 	4582 	0.043920
42.81 	0.044936 	4562 	0.044680
42.83 	0.042549 	4536 	0.042419
42.85 	0.047041 	4528 	0.046523
42.87 	0.048900 	4499 	0.048509
42.89 	0.045759 	4480 	0.045105
42.91 	0.044210 	4456 	0.043553
42.93 	0.045884 	4446 	0.044830
42.95 	0.043478 	4416 	0.042948
42.97 	0.047944 	4401 	0.046879
42.99 	0.048119 	4385 	0.047451
43.01 	0.046069 	4363 	0.044861
43.03 	0.048234 	4333 	0.047288
43.05 	0.045087 	4325 	0.044816
43.07 	0.045158 	4296 	0.044886
43.09 	0.045762 	4283 	0.045626
43.11 	0.046769 	4255 	0.046218
43.13 	0.046259 	4237 	0.045983
43.15 	0.048264 	4206 	0.047707
43.17 	0.050730 	4179 	0.049468
43.19 	0.048402 	4194 	0.047844
43.21 	0.042426 	4172 	0.041583
43.23 	0.044054 	4154 	0.043631
43.25 	0.040387 	4135 	0.039679
43.27 	0.044093 	4105 	0.042951
43.29 	0.046098 	4100 	0.045383
43.31 	0.043148 	4079 	0.042717
43.33 	0.046655 	4051 	0.045619
43.35 	0.042163 	4032 	0.041291
43.37 	0.039601 	4015 	0.038580
43.39 	0.046477 	4002 	0.045599
43.41 	0.041289 	3972 	0.040994
43.43 	0.052020 	3960 	0.051133
43.45 	0.047268 	3935 	0.046375
43.47 	0.045397 	3921 	0.044799
43.49 	0.044906 	3897 	0.044305
43.51 	0.044364 	3877 	0.043307
43.53 	0.046596 	3863 	0.046141
43.55 	0.055331 	2964 	0.054145
43.57 	0.043789 	2238 	0.043266
43.59 	0.047537 	1746 	0.047202
43.61 	0.047372 	1351 	0.046939
43.63 	0.044955 	1001 	0.044955
43.65 	0.039301 	687 	0.038449
43.67 	0.051793 	502 	0.051793
43.69 	0.051771 	367 	0.051771
43.71 	0.046025 	239 	0.046025
43.73 	0.033333 	120 	0.033333
43.75 	0.062500 	16 	0.062500