File: Example_Data/25SC_s1_0044.004.dat
#F C:\frames\spec\25SC_s1_0044.004
#C title =s:44 frm:4 25SC_s1
#C wavelength =0.15406

#S 1  fr_average C:\frames\spec\25SC_s1_0044.004 C:\win32app\speccom\mask.axs chi 0 180 0 360 0.02
#C 2 theta =0.000000 to 180 deg
#C   q   =0.000000 to 81.568 nm^-1
#C  chi  =0.000000 to 360 deg
#C collumns:
#C  1 position (2theta or chi in degrees)
#C  2 average intensity (sum of all counts in the region divided with number of pixels)
#C  3 Number of pixels in region)
#C  4 error (sum of sqrt(intensity) for all pixels divided by number)
#N 4
#L TTh  Int  N_pix  Err
32.99 	0.049180 	61 	0.049180
33.01 	0.060710 	873 	0.059368
33.03 	0.048886 	1391 	0.048043
33.05 	0.057484 	1757 	0.056484
33.07 	0.067317 	2050 	0.066460
33.09 	0.058372 	2347 	0.057374
33.11 	0.056611 	2579 	0.055211
33.13 	0.065521 	2793 	0.063633
33.15 	0.049350 	2999 	0.048764
33.17 	0.055920 	3201 	0.054273
33.19 	0.049671 	3342 	0.048970
33.21 	0.061991 	3436 	0.060115
33.23 	0.055067 	3523 	0.053903
33.25 	0.058970 	3612 	0.057348
33.27 	0.052617 	3630 	0.051810
33.29 	0.053180 	3648 	0.052190
33.31 	0.060109 	3660 	0.058989
33.33 	0.058600 	3686 	0.057647
33.35 	0.064970 	3694 	0.063702
33.37 	0.062466 	3714 	0.061835
33.39 	0.051757 	3729 	0.051285
33.41 	0.063102 	3740 	0.062162
33.43 	0.061154 	3761 	0.059596
33.45 	0.054333 	3773 	0.053402
33.47 	0.057925 	3798 	0.056846
33.49 	0.055658 	3809 	0.054274
33.51 	0.054260 	3815 	0.053799
33.53 	0.054934 	3841 	0.054324
33.55 	0.058028 	3843 	0.057113
33.57 	0.072737 	3877 	0.071352
33.59 	0.055928 	3880 	0.055324
33.61 	0.059862 	3909 	0.059262
33.63 	0.062261 	3919 	0.061065
33.65 	0.059781 	3931 	0.058291
33.67 	0.058422 	3954 	0.057089
33.69 	0.065520 	3953 	0.063593
33.71 	0.065157 	3975 	0.063831
33.73 	0.055694 	4004 	0.055109
33.75 	0.055014 	3999 	0.054721
33.77 	0.058634 	4025 	0.057760
33.79 	0.056917 	4041 	0.056192
33.81 	0.060674 	4038 	0.059223
33.83 	0.060494 	4050 	0.059192
33.85 	0.054891 	4099 	0.054177
33.87 	0.059110 	4111 	0.057685
33.89 	0.068915 	4121 	0.067920
33.91 	0.059291 	4149 	0.057880
33.93 	0.056613 	4151 	0.055766
33.95 	0.062425 	4181 	0.061445
33.97 	0.058473 	4190 	0.056935
33.99 	0.060476 	4200 	0.058803
34.01 	0.054118 	4213 	0.053006
34.03 	0.066682 	4244 	0.065854
34.05 	0.057855 	4252 	0.056891
34.07 	0.060450 	4268 	0.059626
34.09 	0.064396 	4286 	0.062733
34.11 	0.056950 	4302 	0.055725
34.13 	0.052693 	4308 	0.051718
34.15 	0.060494 	4331 	0.059683
34.17 	0.063448 	4350 	0.062079
34.19 	0.061669 	4362 	0.060326
34.21 	0.057195 	4371 	0.056525
34.23 	0.063282 	4393 	0.061260
34.25 	0.057902 	4404 	0.057503
34.27 	0.054726 	4422 	0.054064
34.29 	0.059526 	4435 	0.058866
34.31 	0.052041 	4458 	0.051778
34.33 	0.060389 	4471 	0.059210
34.35 	0.063782 	4484 	0.062999
34.37 	0.054331 	4491 	0.053418
34.39 	0.056419 	4502 	0.055639
34.41 	0.063632 	4526 	0.062338
34.43 	0.061027 	4539 	0.059865
34.45 	0.054686 	4535 	0.054040
34.47 	0.055967 	4592 	0.054946
34.49 	0.057864 	4597 	0.057099
34.51 	0.059705 	4606 	0.059069
34.53 	0.058152 	4643 	0.056491
34.55 	0.059660 	4643 	0.059029
34.57 	0.060730 	4660 	0.059347
34.59 	0.059037 	4675 	0.058160
34.61 	0.059187 	4697 	0.057940
34.63 	0.057113 	4710 	0.056118
34.65 	0.059521 	4721 	0.058901
34.67 	0.057794 	4741 	0.057052
34.69 	0.066891 	4754 	0.065269
34.71 	0.058120 	4766 	0.057260
34.73 	0.060790 	4787 	0.059423
34.75 	0.056780 	4808 	0.056537
34.77 	0.063719 	4818 	0.063111
34.79 	0.056385 	4824 	0.055170
34.81 	0.057379 	4845 	0.056532
34.83 	0.060469 	4862 	0.059626
34.85 	0.059355 	4869 	0.058272
34.87 	0.058135 	4868 	0.057533
34.89 	0.056534 	4882 	0.054734
34.91 	0.052028 	4882 	0.051068
34.93 	0.052868 	4899 	0.052270
34.95 	0.066258 	4890 	0.065160
34.97 	0.062424 	4902 	0.061468
34.99 	0.057586 	4897 	0.056749
35.01 	0.059313 	4923 	0.058481
35.03 	0.057657 	4943 	0.056235
35.05 	0.060441 	4947 	0.059375
35.07 	0.055061 	4940 	0.054349
35.09 	0.061579 	4953 	0.060278
35.11 	0.054174 	4947 	0.053464
35.13 	0.054256 	4958 	0.053901
35.15 	0.049018 	4937 	0.048543
35.17 	0.064699 	4946 	0.063751
35.19 	0.061311 	4942 	0.060719
35.21 	0.058443 	4945 	0.057495
35.23 	0.066734 	4945 	0.065076
35.25 	0.062310 	4943 	0.060987
35.27 	0.066087 	4948 	0.064785
35.29 	0.061476 	4945 	0.060292
35.31 	0.054936 	4933 	0.054105
35.33 	0.060692 	4943 	0.059033
35.35 	0.057467 	4942 	0.056281
35.37 	0.053655 	4939 	0.053180
35.39 	0.059252 	4945 	0.058304
35.41 	0.052578 	4926 	0.051508
35.43 	0.054328 	4933 	0.053022
35.45 	0.061778 	4937 	0.060335
35.47 	0.059420 	4931 	0.057638
35.49 	0.050916 	4910 	0.050320
35.51 	0.054202 	4926 	0.053013
35.53 	0.060214 	4949 	0.059267
35.55 	0.060465 	4945 	0.059143
35.57 	0.058180 	4933 	0.057467
35.59 	0.057432 	4945 	0.056484
35.61 	0.055038 	4942 	0.054327
35.63 	0.060287 	4943 	0.058865
35.65 	0.059858 	4945 	0.058318
35.67 	0.059085 	4942 	0.057900
35.69 	0.057016 	4946 	0.055476
35.71 	0.061373 	4937 	0.060286
35.73 	0.059360 	4936 	0.057817
35.75 	0.060434 	4931 	0.059365
35.77 	0.058776 	4951 	0.057475
35.79 	0.069749 	4932 	0.067967
35.81 	0.062031 	4933 	0.060587
35.83 	0.057420 	4946 	0.055387
35.85 	0.058967 	4935 	0.057898
35.87 	0.053829 	4923 	0.052481
35.89 	0.054925 	4934 	0.054331
35.91 	0.056018 	4927 	0.055305
35.93 	0.056830 	4927 	0.056235
35.95 	0.058979 	4917 	0.057887
35.97 	0.061279 	4912 	0.060086
35.99 	0.056084 	4939 	0.055254
36.01 	0.057404 	4930 	0.057285
36.03 	0.058264 	4943 	0.057909
36.05 	0.056421 	4945 	0.055591
36.07 	0.057299 	4939 	0.056469
36.09 	0.061134 	4940 	0.060066
36.11 	0.055184 	4929 	0.054471
36.13 	0.056860 	4942 	0.055556
36.15 	0.062158 	4939 	0.060597
36.17 	0.053604 	4925 	0.052534
36.19 	0.051822 	4940 	0.051348
36.21 	0.055995 	4929 	0.055520
36.23 	0.057953 	4935 	0.056529
36.25 	0.059705 	4941 	0.058381
36.27 	0.055228 	4925 	0.054753
36.29 	0.065301 	4931 	0.063975
36.31 	0.053774 	4928 	0.053061
36.33 	0.056558 	4933 	0.055608
36.35 	0.060459 	4929 	0.059864
36.37 	0.057282 	4923 	0.056449
36.39 	0.057915 	4921 	0.057082
36.41 	0.056577 	4896 	0.056218
36.43 	0.053977 	4928 	0.053740
36.45 	0.058418 	4930 	0.056398
36.47 	0.055511 	4936 	0.053968
36.49 	0.060502 	4942 	0.059079
36.51 	0.051895 	4933 	0.051420
36.53 	0.056039 	4943 	0.055091
36.55 	0.055206 	4927 	0.054136
36.57 	0.055533 	4934 	0.054346
36.59 	0.062361 	4939 	0.060918
36.61 	0.060231 	4931 	0.059400
36.63 	0.060840 	4931 	0.060602
36.65 	0.059002 	4932 	0.057696
36.67 	0.057606 	4930 	0.056062
36.69 	0.059850 	4929 	0.059612
36.71 	0.058118 	4921 	0.056690
36.73 	0.055431 	4925 	0.055194
36.75 	0.055623 	4944 	0.054300
36.77 	0.054279 	4919 	0.053684
36.79 	0.053444 	4921 	0.052611
36.81 	0.060008 	4916 	0.058817
36.83 	0.052492 	4915 	0.052016
36.85 	0.054512 	4898 	0.053436
36.87 	0.055623 	4944 	0.054063
36.89 	0.055940 	4916 	0.055940
36.91 	0.059300 	4941 	0.058213
36.93 	0.059432 	4930 	0.058363
36.95 	0.054936 	4933 	0.054105
36.97 	0.057357 	4934 	0.056645
36.99 	0.059777 	4935 	0.058214
37.01 	0.048044 	4933 	0.047331
37.03 	0.057271 	4924 	0.056676
37.05 	0.054800 	4927 	0.054087
37.07 	0.060182 	4935 	0.058877
37.09 	0.053571 	4928 	0.052858
37.11 	0.053293 	4935 	0.052225
37.13 	0.055240 	4924 	0.054169
37.15 	0.059279 	4909 	0.057966
37.17 	0.055330 	4934 	0.053867
37.19 	0.052995 	4925 	0.052400
37.21 	0.051861 	4917 	0.050908
37.23 	0.055714 	4918 	0.054761
37.25 	0.054571 	4911 	0.053856
37.27 	0.057213 	4894 	0.055996
37.29 	0.053955 	4930 	0.053005
37.31 	0.059777 	4935 	0.058946
37.33 	0.048305 	4927 	0.047711
37.35 	0.061158 	4938 	0.060091
37.37 	0.053988 	4927 	0.052661
37.39 	0.054350 	4931 	0.053043
37.41 	0.054756 	4931 	0.053924
37.43 	0.059205 	4932 	0.058493
37.45 	0.054427 	4924 	0.053476
37.47 	0.060256 	4929 	0.059523
37.49 	0.055454 	4923 	0.054502
37.51 	0.056558 	4933 	0.055845
37.53 	0.057125 	4919 	0.055935
37.55 	0.051724 	4930 	0.051011
37.57 	0.061117 	4925 	0.059689
37.59 	0.050254 	4915 	0.049539
37.61 	0.061154 	4922 	0.060202
37.63 	0.055092 	4919 	0.054616
37.65 	0.059170 	4918 	0.058456
37.67 	0.060971 	4904 	0.059398
37.69 	0.055125 	4898 	0.054168
37.71 	0.046257 	4929 	0.046019
37.73 	0.051532 	4929 	0.051056
37.75 	0.059514 	4940 	0.058427
37.77 	0.060163 	4920 	0.058714
37.79 	0.060243 	4930 	0.058818
37.81 	0.052301 	4933 	0.051707
37.83 	0.056098 	4920 	0.055621
37.85 	0.052824 	4922 	0.052229
37.87 	0.054464 	4939 	0.053871
37.89 	0.056041 	4925 	0.055565
37.91 	0.061663 	4930 	0.060713
37.93 	0.054279 	4919 	0.053327
37.95 	0.054664 	4921 	0.053473
37.97 	0.053763 	4929 	0.052575
37.99 	0.057818 	4912 	0.057221
38.01 	0.060065 	4928 	0.059114
38.03 	0.062946 	4909 	0.061494
38.05 	0.055025 	4925 	0.054312
38.07 	0.053982 	4909 	0.053505
38.09 	0.051251 	4878 	0.050530
38.11 	0.050456 	4935 	0.049625
38.13 	0.054081 	4937 	0.053231
38.15 	0.055104 	4918 	0.054151
38.17 	0.056187 	4930 	0.055355
38.19 	0.052941 	4930 	0.051991
38.21 	0.058095 	4923 	0.057361
38.23 	0.054070 	4938 	0.053715
38.25 	0.058776 	4917 	0.057465
38.27 	0.054970 	4930 	0.054257
38.29 	0.059504 	4924 	0.058910
38.31 	0.063528 	4927 	0.062220
38.33 	0.061332 	4924 	0.060024
38.35 	0.056818 	4928 	0.056462
38.37 	0.060520 	4924 	0.059568
38.39 	0.071298 	4909 	0.070462
38.41 	0.066220 	4923 	0.064673
38.43 	0.060212 	4916 	0.058782
38.45 	0.066694 	4918 	0.065503
38.47 	0.063379 	4907 	0.062304
38.49 	0.059873 	4877 	0.058652
38.51 	0.062855 	4932 	0.061548
38.53 	0.076689 	4929 	0.075243
38.55 	0.064019 	4936 	0.063307
38.57 	0.071907 	4923 	0.070123
38.59 	0.065191 	4924 	0.063525
38.61 	0.062804 	4936 	0.061123
38.63 	0.063769 	4924 	0.062580
38.65 	0.064864 	4918 	0.063792
38.67 	0.063196 	4937 	0.062128
38.69 	0.064405 	4922 	0.063433
38.71 	0.059098 	4924 	0.057909
38.73 	0.055104 	4918 	0.054489
38.75 	0.056627 	4927 	0.055438
38.77 	0.055454 	4923 	0.054978
38.79 	0.059181 	4934 	0.058706
38.81 	0.060261 	4912 	0.059307
38.83 	0.057329 	4919 	0.056138
38.85 	0.058225 	4912 	0.057490
38.87 	0.051721 	4911 	0.051363
38.89 	0.054319 	4897 	0.053242
38.91 	0.057924 	4903 	0.056251
38.93 	0.058931 	4938 	0.058100
38.95 	0.053680 	4918 	0.052966
38.97 	0.054756 	4931 	0.053805
38.99 	0.055094 	4937 	0.054244
39.01 	0.051037 	4918 	0.050203
39.03 	0.061411 	4934 	0.060698
39.05 	0.053604 	4925 	0.052871
39.07 	0.053209 	4924 	0.052376
39.09 	0.054235 	4923 	0.053283
39.11 	0.055770 	4931 	0.054938
39.13 	0.050376 	4923 	0.050138
39.15 	0.055748 	4915 	0.054913
39.17 	0.053676 	4937 	0.052727
39.19 	0.049827 	4917 	0.049231
39.21 	0.056212 	4910 	0.055257
39.23 	0.053401 	4925 	0.052212
39.25 	0.045916 	4922 	0.044588
39.27 	0.054175 	4910 	0.053101
39.29 	0.053867 	4901 	0.053628
39.31 	0.052826 	4884 	0.052586
39.33 	0.052930 	4931 	0.051624
39.35 	0.055522 	4935 	0.054572
39.37 	0.054575 	4929 	0.053505
39.39 	0.058024 	4929 	0.056954
39.41 	0.055567 	4931 	0.054854
39.43 	0.054733 	4933 	0.053665
39.45 	0.050761 	4925 	0.050167
39.47 	0.055454 	4923 	0.054383
39.49 	0.048247 	4933 	0.047890
39.51 	0.054021 	4924 	0.053426
39.53 	0.057079 	4923 	0.056246
39.55 	0.055092 	4919 	0.054616
39.57 	0.060815 	4933 	0.059588
39.59 	0.052932 	4912 	0.052455
39.61 	0.049157 	4923 	0.048205
39.63 	0.054653 	4922 	0.053700
39.65 	0.060089 	4926 	0.058762
39.67 	0.056177 	4913 	0.054866
39.69 	0.056957 	4916 	0.055507
39.71 	0.055158 	4895 	0.054081
39.73 	0.056642 	4908 	0.055568
39.75 	0.048498 	4928 	0.047547
39.77 	0.057548 	4935 	0.056361
39.79 	0.048112 	4926 	0.047399
39.81 	0.050132 	4927 	0.049399
39.83 	0.052290 	4934 	0.051440
39.85 	0.057642 	4927 	0.056215
39.87 	0.058477 	4925 	0.057407
39.89 	0.054925 	4934 	0.053837
39.91 	0.053230 	4922 	0.052873
39.93 	0.055297 	4937 	0.054091
39.95 	0.056968 	4915 	0.056134
39.97 	0.052354 	4928 	0.051760
39.99 	0.053933 	4932 	0.053577
40.01 	0.054290 	4918 	0.053695
40.03 	0.049107 	4928 	0.048394
40.05 	0.055115 	4917 	0.054162
40.07 	0.057485 	4923 	0.056414
40.09 	0.052278 	4916 	0.051186
40.11 	0.053295 	4916 	0.052104
40.13 	0.056373 	4896 	0.055276
40.15 	0.056381 	4913 	0.055646
40.17 	0.054180 	4928 	0.052992
40.19 	0.054575 	4929 	0.053624
40.21 	0.053698 	4935 	0.052748
40.23 	0.050487 	4932 	0.049774
40.25 	0.050813 	4920 	0.049841
40.27 	0.053474 	4937 	0.052268
40.29 	0.052973 	4927 	0.052003
40.31 	0.046973 	4939 	0.046380
40.33 	0.054136 	4932 	0.053305
40.35 	0.050823 	4919 	0.049871
40.37 	0.055184 	4929 	0.054352
40.39 	0.050091 	4931 	0.049972
40.41 	0.047107 	4925 	0.046512
40.43 	0.049980 	4922 	0.049028
40.45 	0.054125 	4933 	0.053650
40.47 	0.050020 	4918 	0.048929
40.49 	0.045879 	4926 	0.045403
40.51 	0.053434 	4922 	0.053077
40.53 	0.058177 	4916 	0.057462
40.55 	0.051956 	4908 	0.051220
40.57 	0.048671 	4890 	0.048311
40.59 	0.048410 	4937 	0.047935
40.61 	0.051266 	4935 	0.050079
40.63 	0.053955 	4930 	0.053005
40.65 	0.050030 	4937 	0.049556
40.67 	0.049270 	4932 	0.048439
40.69 	0.051246 	4937 	0.050514
40.71 	0.055556 	4932 	0.054962
40.73 	0.053187 	4926 	0.052593
40.75 	0.053133 	4931 	0.052658
40.77 	0.051427 	4939 	0.050479
40.79 	0.049350 	4924 	0.048279
40.81 	0.053835 	4941 	0.052887
40.83 	0.052760 	4928 	0.052284
40.85 	0.052396 	4924 	0.051445
40.87 	0.048498 	4928 	0.047785
40.89 	0.048469 	4931 	0.047756
40.91 	0.049970 	4923 	0.049494
40.93 	0.048642 	4934 	0.048048
40.95 	0.051089 	4913 	0.050254
40.97 	0.049553 	4924 	0.049196
40.99 	0.050569 	4924 	0.049736
41.01 	0.046213 	4912 	0.045975
41.03 	0.048930 	4905 	0.047935
41.05 	0.048825 	4936 	0.048350
41.07 	0.050913 	4930 	0.050437
41.09 	0.054869 	4939 	0.053802
41.11 	0.049240 	4935 	0.048409
41.13 	0.050446 	4936 	0.049378
41.15 	0.050597 	4941 	0.049530
41.17 	0.050263 	4934 	0.049432
41.19 	0.044828 	4930 	0.043877
41.21 	0.049828 	4937 	0.048760
41.23 	0.054869 	4939 	0.053921
41.25 	0.053112 	4933 	0.052399
41.27 	0.052119 	4931 	0.051288
41.29 	0.044643 	4928 	0.044167
41.31 	0.048449 	4933 	0.047618
41.33 	0.051448 	4937 	0.050736
41.35 	0.050425 	4938 	0.049951
41.37 	0.046913 	4924 	0.046080
41.39 	0.048652 	4933 	0.048177
41.41 	0.055420 	4926 	0.055182
41.43 	0.048286 	4929 	0.048048
41.45 	0.053521 	4914 	0.052328
41.47 	0.048721 	4926 	0.047651
41.49 	0.053148 	4892 	0.052549
41.51 	0.044939 	4940 	0.044228
41.53 	0.049353 	4944 	0.048879
41.55 	0.054914 	4935 	0.053727
41.57 	0.057073 	4941 	0.056006
41.59 	0.049260 	4933 	0.048785
41.61 	0.045831 	4953 	0.045239
41.63 	0.047995 	4938 	0.047264
41.65 	0.050923 	4929 	0.050091
41.67 	0.047571 	4940 	0.046859
41.69 	0.049121 	4947 	0.048529
41.71 	0.051885 	4934 	0.051291
41.73 	0.051864 	4936 	0.050677
41.75 	0.051126 	4929 	0.050056
41.77 	0.051002 	4941 	0.050172
41.79 	0.048948 	4944 	0.047981
41.81 	0.045989 	4936 	0.045514
41.83 	0.046063 	4928 	0.045231
41.85 	0.049200 	4939 	0.048607
41.87 	0.050861 	4935 	0.049555
41.89 	0.044800 	4933 	0.044207
41.91 	0.050648 	4936 	0.050055
41.93 	0.040552 	4932 	0.039958
41.95 	0.043399 	4931 	0.043043
41.97 	0.049451 	4914 	0.048378
41.99 	0.046483 	4905 	0.046005
42.01 	0.050992 	4942 	0.050280
42.03 	0.048188 	4939 	0.047713
42.05 	0.048061 	4952 	0.047687
42.07 	0.048815 	4937 	0.048222
42.09 	0.046686 	4948 	0.045857
42.11 	0.047927 	4945 	0.047335
42.13 	0.046107 	4945 	0.045278
42.15 	0.047590 	4938 	0.046997
42.17 	0.049614 	4918 	0.048760
42.19 	0.043806 	4908 	0.042851
42.21 	0.049786 	4901 	0.049069
42.23 	0.051922 	4892 	0.050485
42.25 	0.048681 	4889 	0.048561
42.27 	0.047394 	4874 	0.046413
42.29 	0.046885 	4863 	0.046282
42.31 	0.046344 	4855 	0.045620
42.33 	0.041994 	4834 	0.041267
42.35 	0.043820 	4838 	0.043335
42.37 	0.042236 	4830 	0.041993
42.39 	0.043297 	4804 	0.043175
42.41 	0.045587 	4804 	0.044612
42.43 	0.046745 	4792 	0.046011
42.45 	0.047529 	4776 	0.046916
42.47 	0.043652 	4765 	0.043283
42.49 	0.049528 	4765 	0.048667
42.51 	0.046806 	4743 	0.046188
42.53 	0.051184 	4728 	0.050689
42.55 	0.046941 	4708 	0.046444
42.57 	0.048203 	4730 	0.046573
42.59 	0.049905 	4729 	0.049162
42.61 	0.043118 	4708 	0.042620
42.63 	0.047568 	4709 	0.047071
42.65 	0.051014 	4685 	0.050389
42.67 	0.043766 	4684 	0.043016
42.69 	0.045357 	4674 	0.044856
42.71 	0.048038 	4663 	0.047786
42.73 	0.041164 	4640 	0.040659
42.75 	0.045484 	4617 	0.044596
42.77 	0.044348 	4600 	0.044093
42.79 	0.047141 	4582 	0.047013
42.81 	0.051074 	4562 	0.050560
42.83 	0.042549 	4536 	0.042419
42.85 	0.048366 	4528 	0.047590
42.87 	0.048455 	4499 	0.047674
42.89 	0.048884 	4480 	0.048230
42.91 	0.042864 	4456 	0.042075
42.93 	0.043635 	4446 	0.043239
42.95 	0.048234 	4416 	0.047703
42.97 	0.046580 	4401 	0.046048
42.99 	0.045154 	4385 	0.043952
43.01 	0.050653 	4363 	0.049557
43.03 	0.050081 	4333 	0.049518
43.05 	0.049942 	4325 	0.049265
43.07 	0.045158 	4296 	0.044204
43.09 	0.048097 	4283 	0.047413
43.11 	0.044888 	4255 	0.044613
43.13 	0.050035 	4237 	0.048791
43.15 	0.043985 	4206 	0.043288
43.17 	0.045465 	4179 	0.045185
43.19 	0.041726 	4194 	0.041307
43.21 	0.045781 	4172 	0.045079
43.23 	0.048869 	4154 	0.048587
43.25 	0.048126 	4135 	0.047701
43.27 	0.047747 	4105 	0.047319
43.29 	0.040000 	4100 	0.039286
43.31 	0.046825 	4079 	0.045964
43.33 	0.044187 	4051 	0.043608
43.35 	0.047123 	4032 	0.046687
43.37 	0.051308 	4015 	0.050578
43.39 	0.050725 	4002 	0.049407
43.41 	0.043807 	3972 	0.042774
43.43 	0.039141 	3960 	0.038993
43.45 	0.042694 	3935 	0.042098
43.47 	0.052538 	3921 	0.051940
43.49 	0.043367 	3897 	0.042765
43.51 	0.046170 	3877 	0.045716
43.53 	0.041419 	3863 	0.040509
43.55 	0.046896 	2964 	0.046698
43.57 	0.049151 	2238 	0.048628
43.59 	0.045246 	1746 	0.043569
43.61 	0.048113 	1351 	0.047679
43.63 	0.038961 	1001 	0.037791
43.65 	0.042213 	687 	0.042213
43.67 	0.047809 	502 	0.046642
43.69 	0.068120 	367 	0.068120
43.71 	0.046025 	239 	0.046025
43.73 	0.066667 	120 	0.066667
43.75 	0.062500 	16 	0.062500