File: Example_Data/25SC_s1_0018.004.dat
#F C:\frames\spec\25SC_s1_0018.004
#C title =s:18 frm:4 25SC_s1
#C wavelength =0.15406

#S 1  fr_average C:\frames\spec\25SC_s1_0018.004 C:\win32app\speccom\mask.axs chi 0 180 0 360 0.02
#C 2 theta =0.000000 to 180 deg
#C   q   =0.000000 to 81.568 nm^-1
#C  chi  =0.000000 to 360 deg
#C collumns:
#C  1 position (2theta or chi in degrees)
#C  2 average intensity (sum of all counts in the region divided with number of pixels)
#C  3 Number of pixels in region)
#C  4 error (sum of sqrt(intensity) for all pixels divided by number)
#N 4
#L TTh  Int  N_pix  Err
32.99 	0.032787 	61 	0.032787
33.01 	0.045819 	873 	0.045819
33.03 	0.069015 	1391 	0.068173
33.05 	0.064883 	1757 	0.063883
33.07 	0.058049 	2050 	0.056906
33.09 	0.051555 	2347 	0.051306
33.11 	0.053897 	2579 	0.053215
33.13 	0.051199 	2793 	0.049731
33.15 	0.049350 	2999 	0.048959
33.17 	0.064980 	3201 	0.064065
33.19 	0.055655 	3342 	0.053902
33.21 	0.060536 	3436 	0.059172
33.23 	0.053364 	3523 	0.051867
33.25 	0.053710 	3612 	0.053061
33.27 	0.057300 	3630 	0.056493
33.29 	0.054276 	3648 	0.052765
33.31 	0.053552 	3660 	0.052912
33.33 	0.059414 	3686 	0.058460
33.35 	0.052247 	3694 	0.051613
33.37 	0.058966 	3714 	0.057678
33.39 	0.061142 	3729 	0.060043
33.41 	0.058824 	3740 	0.058040
33.43 	0.056634 	3761 	0.055232
33.45 	0.051948 	3773 	0.051482
33.47 	0.061875 	3798 	0.060641
33.49 	0.058283 	3809 	0.057668
33.51 	0.069725 	3815 	0.068625
33.53 	0.059360 	3841 	0.057809
33.55 	0.064273 	3843 	0.062901
33.57 	0.058035 	3877 	0.056675
33.59 	0.057216 	3880 	0.056311
33.61 	0.065490 	3909 	0.064291
33.63 	0.064302 	3919 	0.062658
33.65 	0.060290 	3931 	0.058800
33.67 	0.065250 	3954 	0.063769
33.69 	0.062737 	3953 	0.061700
33.71 	0.064151 	3975 	0.063267
33.73 	0.058941 	4004 	0.057771
33.75 	0.064516 	3999 	0.063637
33.77 	0.056894 	4025 	0.055730
33.79 	0.062361 	4041 	0.061346
33.81 	0.063398 	4038 	0.062092
33.83 	0.057037 	4050 	0.056458
33.85 	0.062210 	4099 	0.061496
33.87 	0.060083 	4111 	0.059228
33.89 	0.055569 	4121 	0.055000
33.91 	0.059532 	4149 	0.058685
33.93 	0.058299 	4151 	0.057452
33.95 	0.060273 	4181 	0.060133
33.97 	0.052745 	4190 	0.052185
33.99 	0.057143 	4200 	0.055609
34.01 	0.062188 	4213 	0.061354
34.03 	0.059378 	4244 	0.058688
34.05 	0.062088 	4252 	0.060711
34.07 	0.062559 	4268 	0.061735
34.09 	0.061596 	4286 	0.060503
34.11 	0.060205 	4302 	0.058684
34.13 	0.058728 	4308 	0.058048
34.15 	0.064650 	4331 	0.063433
34.17 	0.062069 	4350 	0.061530
34.19 	0.063044 	4362 	0.061433
34.21 	0.061771 	4371 	0.061101
34.23 	0.058957 	4393 	0.057491
34.25 	0.060854 	4404 	0.060322
34.27 	0.058571 	4422 	0.057776
34.29 	0.055017 	4435 	0.054071
34.31 	0.062360 	4458 	0.060914
34.33 	0.059271 	4471 	0.058616
34.35 	0.063559 	4484 	0.061861
34.37 	0.061011 	4491 	0.059707
34.39 	0.058863 	4502 	0.057562
34.41 	0.059213 	4526 	0.058437
34.43 	0.058383 	4539 	0.057350
34.45 	0.058214 	4535 	0.057051
34.47 	0.059451 	4592 	0.058431
34.49 	0.061779 	4597 	0.060505
34.51 	0.062093 	4606 	0.060800
34.53 	0.060090 	4643 	0.058450
34.55 	0.065906 	4643 	0.064392
34.57 	0.060515 	4660 	0.059132
34.59 	0.060321 	4675 	0.059694
34.61 	0.059613 	4697 	0.058719
34.63 	0.052866 	4710 	0.051996
34.65 	0.062910 	4721 	0.061897
34.67 	0.069395 	4741 	0.068653
34.69 	0.058898 	4754 	0.057789
34.71 	0.062946 	4766 	0.062208
34.73 	0.056821 	4787 	0.055699
34.75 	0.060732 	4808 	0.059757
34.77 	0.055625 	4818 	0.054287
34.79 	0.053690 	4824 	0.053083
34.81 	0.056347 	4845 	0.055259
34.83 	0.057178 	4862 	0.056094
34.85 	0.055042 	4869 	0.054200
34.87 	0.058956 	4868 	0.057873
34.89 	0.064113 	4882 	0.063273
34.91 	0.059607 	4882 	0.058627
34.93 	0.058379 	4899 	0.057423
34.95 	0.060532 	4890 	0.059454
34.97 	0.054264 	4902 	0.053049
34.99 	0.064325 	4897 	0.063368
35.01 	0.059110 	4923 	0.057444
35.03 	0.061097 	4943 	0.059556
35.05 	0.062058 	4947 	0.060874
35.07 	0.058300 	4940 	0.057470
35.09 	0.058550 	4953 	0.057249
35.11 	0.059632 	4947 	0.057974
35.13 	0.061113 	4958 	0.060404
35.15 	0.055297 	4937 	0.054703
35.17 	0.061666 	4946 	0.060955
35.19 	0.060704 	4942 	0.059756
35.21 	0.065925 	4945 	0.064267
35.23 	0.066734 	4945 	0.065431
35.25 	0.062715 	4943 	0.061866
35.27 	0.058610 	4948 	0.057544
35.29 	0.060061 	4945 	0.058758
35.31 	0.058788 	4933 	0.058075
35.33 	0.063524 	4943 	0.062083
35.35 	0.057871 	4942 	0.056311
35.37 	0.055072 	4939 	0.054360
35.39 	0.059656 	4945 	0.057978
35.41 	0.065164 	4926 	0.063837
35.43 	0.066694 	4933 	0.065150
35.45 	0.062994 	4937 	0.061807
35.47 	0.061042 	4931 	0.060092
35.49 	0.069043 	4910 	0.067373
35.51 	0.064352 	4926 	0.062925
35.53 	0.055365 	4949 	0.054181
35.55 	0.061476 	4945 	0.060035
35.57 	0.063248 	4933 	0.062535
35.59 	0.055207 	4945 	0.054260
35.61 	0.062728 	4942 	0.061779
35.63 	0.057455 	4943 	0.056744
35.65 	0.064914 	4945 	0.063966
35.67 	0.060097 	4942 	0.059030
35.69 	0.066721 	4946 	0.065418
35.71 	0.058132 	4937 	0.057302
35.73 	0.063006 	4936 	0.062176
35.75 	0.059420 	4931 	0.058232
35.77 	0.055342 	4951 	0.054495
35.79 	0.062449 	4932 	0.061855
35.81 	0.061423 	4933 	0.060097
35.83 	0.065710 	4946 	0.064407
35.85 	0.071125 	4935 	0.069463
35.87 	0.056876 	4923 	0.055924
35.89 	0.059181 	4934 	0.057994
35.91 	0.063933 	4927 	0.062468
35.93 	0.059062 	4927 	0.058349
35.95 	0.057962 	4917 	0.057366
35.97 	0.059853 	4912 	0.058760
35.99 	0.061146 	4939 	0.059960
36.01 	0.061663 	4930 	0.060356
36.03 	0.061703 	4943 	0.060874
36.05 	0.060465 	4945 	0.059024
36.07 	0.065600 	4939 	0.064632
36.09 	0.060526 	4940 	0.059459
36.11 	0.063907 	4929 	0.062838
36.13 	0.055848 	4942 	0.055255
36.15 	0.055679 	4939 	0.054968
36.17 	0.051980 	4925 	0.051365
36.19 	0.059514 	4940 	0.058803
36.21 	0.055792 	4929 	0.055079
36.23 	0.062614 	4935 	0.061190
36.25 	0.066586 	4941 	0.065282
36.27 	0.059086 	4925 	0.058254
36.29 	0.056378 	4931 	0.055903
36.31 	0.056818 	4928 	0.055372
36.33 	0.056963 	4933 	0.055895
36.35 	0.054372 	4929 	0.053540
36.37 	0.060735 	4923 	0.059883
36.39 	0.060760 	4921 	0.060046
36.41 	0.062909 	4896 	0.061353
36.43 	0.061080 	4928 	0.060129
36.45 	0.057404 	4930 	0.055740
36.47 	0.057942 	4936 	0.056874
36.49 	0.060097 	4942 	0.059267
36.51 	0.058990 	4933 	0.058278
36.53 	0.065547 	4943 	0.064244
36.55 	0.057236 	4927 	0.055809
36.57 	0.056952 	4934 	0.056121
36.59 	0.062361 	4939 	0.061630
36.61 	0.053133 	4931 	0.051826
36.63 	0.058812 	4931 	0.057248
36.65 	0.069749 	4932 	0.068066
36.67 	0.059229 	4930 	0.058279
36.69 	0.057010 	4929 	0.056178
36.71 	0.058728 	4921 	0.057776
36.73 	0.060305 	4925 	0.058977
36.75 	0.054409 	4944 	0.053698
36.77 	0.062818 	4919 	0.061746
36.79 	0.061573 	4921 	0.060382
36.81 	0.050651 	4916 	0.049340
36.83 	0.059817 	4915 	0.059201
36.85 	0.054308 	4898 	0.053112
36.87 	0.056634 	4944 	0.055805
36.89 	0.050041 	4916 	0.048968
36.91 	0.053430 	4941 	0.052363
36.93 	0.050304 	4930 	0.049591
36.95 	0.059396 	4933 	0.058683
36.97 	0.056546 	4934 	0.055953
36.99 	0.054914 	4935 	0.054439
37.01 	0.054936 	4933 	0.054461
37.03 	0.054224 	4924 	0.053272
37.05 	0.056221 	4927 	0.055507
37.07 	0.053901 	4935 	0.052951
37.09 	0.054180 	4928 	0.053110
37.11 	0.055724 	4935 	0.054656
37.13 	0.058895 	4924 	0.058062
37.15 	0.061316 	4909 	0.059765
37.17 	0.056141 	4934 	0.055666
37.19 	0.050761 	4925 	0.049691
37.21 	0.053285 	4917 	0.051855
37.23 	0.055510 	4918 	0.054677
37.25 	0.052739 	4911 	0.052262
37.27 	0.059052 	4894 	0.058214
37.29 	0.058621 	4930 	0.057314
37.31 	0.051266 	4935 	0.050436
37.33 	0.058656 	4927 	0.057824
37.35 	0.051033 	4938 	0.049847
37.37 	0.053379 	4927 	0.052547
37.39 	0.049888 	4931 	0.048938
37.41 	0.056378 	4931 	0.055309
37.43 	0.053325 	4932 	0.052613
37.45 	0.055849 	4924 	0.054521
37.47 	0.062690 	4929 	0.061858
37.49 	0.055048 	4923 	0.054096
37.51 	0.057977 	4933 	0.056908
37.53 	0.055906 	4919 	0.055548
37.55 	0.056389 	4930 	0.055558
37.57 	0.051574 	4925 	0.050979
37.59 	0.055137 	4915 	0.053568
37.61 	0.053230 	4922 	0.052278
37.63 	0.055499 	4919 	0.054170
37.65 	0.050020 	4918 	0.049187
37.67 	0.063825 	4904 	0.062392
37.69 	0.054104 	4898 	0.053506
37.71 	0.054372 	4929 	0.053897
37.73 	0.057212 	4929 	0.056618
37.75 	0.051417 	4940 	0.050468
37.77 	0.056911 	4920 	0.055839
37.79 	0.048073 	4930 	0.047241
37.81 	0.060409 	4933 	0.059222
37.83 	0.054472 	4920 	0.053995
37.85 	0.053637 	4922 	0.052685
37.87 	0.051022 	4939 	0.050311
37.89 	0.053604 	4925 	0.052415
37.91 	0.053550 	4930 	0.053312
37.93 	0.060378 	4919 	0.058810
37.95 	0.058525 	4921 	0.057691
37.97 	0.055995 	4929 	0.055163
37.99 	0.058021 	4912 	0.057306
38.01 	0.060065 	4928 	0.058639
38.03 	0.057649 	4909 	0.056933
38.05 	0.054416 	4925 	0.053108
38.07 	0.055001 	4909 	0.054027
38.09 	0.059656 	4878 	0.058455
38.11 	0.058359 	4935 	0.057646
38.13 	0.060968 	4937 	0.059900
38.15 	0.058967 	4918 	0.057637
38.17 	0.057809 	4930 	0.056978
38.19 	0.057606 	4930 	0.057250
38.21 	0.057688 	4923 	0.056855
38.23 	0.062576 	4938 	0.061271
38.25 	0.057759 	4917 	0.056925
38.27 	0.061663 	4930 	0.060950
38.29 	0.070268 	4924 	0.068345
38.31 	0.064948 	4927 	0.063165
38.33 	0.062145 	4924 	0.061431
38.35 	0.071631 	4928 	0.069848
38.37 	0.065191 	4924 	0.064001
38.39 	0.067223 	4909 	0.066030
38.41 	0.061751 	4923 	0.060204
38.43 	0.072417 	4916 	0.071225
38.45 	0.064457 	4918 	0.063623
38.47 	0.064194 	4907 	0.063000
38.49 	0.066229 	4877 	0.065388
38.51 	0.066504 	4932 	0.065079
38.53 	0.065125 	4929 	0.063817
38.55 	0.066248 	4936 	0.065061
38.57 	0.062767 	4923 	0.061220
38.59 	0.059708 	4924 	0.058994
38.61 	0.061994 	4936 	0.061281
38.63 	0.058083 	4924 	0.057250
38.65 	0.053680 	4918 	0.052608
38.67 	0.057120 	4937 	0.056408
38.69 	0.055465 	4922 	0.054513
38.71 	0.063769 	4924 	0.062342
38.73 	0.055104 	4918 	0.054508
38.75 	0.054394 	4927 	0.053800
38.77 	0.053626 	4923 	0.052912
38.79 	0.060600 	4934 	0.059413
38.81 	0.055171 	4912 	0.053978
38.83 	0.053669 	4919 	0.052459
38.85 	0.056393 	4912 	0.054823
38.87 	0.057422 	4911 	0.056587
38.89 	0.055340 	4897 	0.054742
38.91 	0.055884 	4903 	0.054570
38.93 	0.053665 	4938 	0.053310
38.95 	0.053070 	4918 	0.051879
38.97 	0.050700 	4931 	0.049868
38.99 	0.056309 	4937 	0.055716
39.01 	0.052257 	4918 	0.051523
39.03 	0.060397 	4934 	0.058716
39.05 	0.062132 	4925 	0.061299
39.07 	0.050772 	4924 	0.049939
39.09 	0.053220 	4923 	0.052149
39.11 	0.051511 	4931 	0.050560
39.13 	0.054641 	4923 	0.053928
39.15 	0.056765 	4915 	0.055911
39.17 	0.051448 	4937 	0.050598
39.19 	0.055928 	4917 	0.054975
39.21 	0.056619 	4910 	0.055426
39.23 	0.060508 	4925 	0.058842
39.25 	0.051402 	4922 	0.050569
39.27 	0.053768 	4910 	0.053052
39.29 	0.057743 	4901 	0.056668
39.31 	0.054464 	4884 	0.053984
39.33 	0.054958 	4931 	0.053533
39.35 	0.057143 	4935 	0.057024
39.37 	0.053966 	4929 	0.053372
39.39 	0.055995 	4929 	0.054926
39.41 	0.057189 	4931 	0.056358
39.43 	0.060409 	4933 	0.058846
39.45 	0.061929 	4925 	0.060858
39.47 	0.053423 	4923 	0.052590
39.49 	0.063248 	4933 	0.062040
39.51 	0.052803 	4924 	0.052327
39.53 	0.054032 	4923 	0.053318
39.55 	0.055906 	4919 	0.055310
39.57 	0.053314 	4933 	0.052246
39.59 	0.057003 	4912 	0.056168
39.61 	0.053626 	4923 	0.052793
39.63 	0.052824 	4922 	0.052467
39.65 	0.052984 	4926 	0.052271
39.67 	0.059638 	4913 	0.058426
39.69 	0.057974 	4916 	0.057378
39.71 	0.058223 	4895 	0.057385
39.73 	0.056642 	4908 	0.056045
39.75 	0.056006 	4928 	0.055174
39.77 	0.054711 	4935 	0.053999
39.79 	0.052375 	4926 	0.051424
39.81 	0.064136 	4927 	0.062928
39.83 	0.060600 	4934 	0.059531
39.85 	0.060280 	4927 	0.059567
39.87 	0.054416 	4925 	0.053564
39.89 	0.054722 	4934 	0.053654
39.91 	0.062170 	4922 	0.060742
39.93 	0.054284 	4937 	0.052979
39.95 	0.052085 	4915 	0.051370
39.97 	0.057833 	4928 	0.056367
39.99 	0.058191 	4932 	0.057598
40.01 	0.056120 	4918 	0.055525
40.03 	0.054383 	4928 	0.053155
40.05 	0.056539 	4917 	0.055466
40.07 	0.058095 	4923 	0.056905
40.09 	0.051058 	4916 	0.050104
40.11 	0.054719 	4916 	0.053885
40.13 	0.050654 	4896 	0.050055
40.15 	0.052717 	4913 	0.052002
40.17 	0.050731 	4928 	0.049423
40.19 	0.061270 	4929 	0.060319
40.21 	0.048835 	4935 	0.048479
40.23 	0.059408 	4932 	0.058458
40.25 	0.059553 	4920 	0.058700
40.27 	0.050233 	4937 	0.049758
40.29 	0.050132 	4927 	0.049300
40.31 	0.054869 	4939 	0.053802
40.33 	0.047040 	4932 	0.046683
40.35 	0.051840 	4919 	0.050768
40.37 	0.057415 	4929 	0.056583
40.39 	0.055364 	4931 	0.054651
40.41 	0.053198 	4925 	0.052722
40.43 	0.047338 	4922 	0.046386
40.45 	0.057571 	4933 	0.056107
40.47 	0.055510 	4918 	0.054319
40.49 	0.052984 	4926 	0.052033
40.51 	0.048964 	4922 	0.048250
40.53 	0.055126 	4916 	0.054769
40.55 	0.048696 	4908 	0.048099
40.57 	0.059509 	4890 	0.057902
40.59 	0.054284 	4937 	0.053453
40.61 	0.049645 	4935 	0.048696
40.63 	0.050710 	4930 	0.050116
40.65 	0.058943 	4937 	0.058468
40.67 	0.049270 	4932 	0.048439
40.69 	0.048613 	4937 	0.048019
40.71 	0.054136 	4932 	0.053186
40.73 	0.055826 	4926 	0.054994
40.75 	0.060434 	4931 	0.059127
40.77 	0.047580 	4939 	0.046987
40.79 	0.053006 	4924 	0.052034
40.81 	0.047561 	4941 	0.046968
40.83 	0.049107 	4928 	0.048018
40.85 	0.051990 	4924 	0.051276
40.87 	0.055195 	4928 	0.054482
40.89 	0.056378 	4931 	0.055190
40.91 	0.053423 	4923 	0.052709
40.93 	0.045399 	4934 	0.044806
40.95 	0.050478 	4913 	0.049524
40.97 	0.054630 	4924 	0.053441
40.99 	0.055443 	4924 	0.053777
41.01 	0.052524 	4912 	0.051690
41.03 	0.043833 	4905 	0.042997
41.05 	0.050243 	4936 	0.049056
41.07 	0.055984 	4930 	0.055865
41.09 	0.056287 	4939 	0.056049
41.11 	0.057143 	4935 	0.056312
41.13 	0.054295 	4936 	0.053346
41.15 	0.054847 	4941 	0.054254
41.17 	0.054722 	4934 	0.054247
41.19 	0.053753 	4930 	0.052921
41.21 	0.051043 	4937 	0.050331
41.23 	0.047985 	4939 	0.046918
41.25 	0.056355 	4933 	0.055029
41.27 	0.052322 	4931 	0.051134
41.29 	0.055804 	4928 	0.054139
41.31 	0.049463 	4933 	0.049107
41.33 	0.054487 	4937 	0.053399
41.35 	0.047995 	4938 	0.047165
41.37 	0.049350 	4924 	0.048736
41.39 	0.049463 	4933 	0.048750
41.41 	0.053390 	4926 	0.052419
41.43 	0.049503 	4929 	0.049265
41.45 	0.053724 	4914 	0.052532
41.47 	0.051969 	4926 	0.051117
41.49 	0.054579 	4892 	0.053960
41.51 	0.049190 	4940 	0.048004
41.53 	0.054005 	4944 	0.053768
41.55 	0.049037 	4935 	0.048325
41.57 	0.048371 	4941 	0.047897
41.59 	0.052504 	4933 	0.051554
41.61 	0.052292 	4953 	0.051937
41.63 	0.044957 	4938 	0.044483
41.65 	0.053763 	4929 	0.053169
41.67 	0.046559 	4940 	0.045847
41.69 	0.050738 	4947 	0.048942
41.71 	0.050466 	4934 	0.049041
41.73 	0.054092 	4936 	0.053380
41.75 	0.047474 	4929 	0.046642
41.77 	0.042906 	4941 	0.042076
41.79 	0.046926 	4944 	0.046215
41.81 	0.047407 	4936 	0.046576
41.83 	0.040990 	4928 	0.040515
41.85 	0.050820 	4939 	0.050108
41.87 	0.042553 	4935 	0.042197
41.89 	0.046625 	4933 	0.046269
41.91 	0.047407 	4936 	0.046695
41.93 	0.048662 	4932 	0.047830
41.95 	0.055161 	4931 	0.053736
41.97 	0.050265 	4914 	0.049907
41.99 	0.049745 	4905 	0.048651
42.01 	0.054634 	4942 	0.053804
42.03 	0.045353 	4939 	0.044879
42.05 	0.044225 	4952 	0.043397
42.07 	0.047600 	4937 	0.047362
42.09 	0.042846 	4948 	0.042609
42.11 	0.051365 	4945 	0.050773
42.13 	0.046714 	4945 	0.045766
42.15 	0.045970 	4938 	0.045377
42.17 	0.052460 	4918 	0.052103
42.19 	0.045844 	4908 	0.045127
42.21 	0.047337 	4901 	0.046620
42.23 	0.051513 	4892 	0.050794
42.25 	0.044590 	4889 	0.044350
42.27 	0.048010 	4874 	0.047289
42.29 	0.040716 	4863 	0.040475
42.31 	0.043048 	4855 	0.042807
42.33 	0.045511 	4834 	0.045026
42.35 	0.051261 	4838 	0.050777
42.37 	0.051553 	4830 	0.050684
42.39 	0.046836 	4804 	0.046470
42.41 	0.049750 	4804 	0.049384
42.43 	0.044449 	4792 	0.043838
42.45 	0.055695 	4776 	0.055082
42.47 	0.051836 	4765 	0.051099
42.49 	0.047429 	4765 	0.046814
42.51 	0.044487 	4743 	0.043869
42.53 	0.052665 	4728 	0.052293
42.55 	0.053101 	4708 	0.051857
42.57 	0.046512 	4730 	0.045521
42.59 	0.050116 	4729 	0.049745
42.61 	0.054163 	4708 	0.053790
42.63 	0.043321 	4709 	0.042575
42.65 	0.048239 	4685 	0.047614
42.67 	0.048676 	4684 	0.048301
42.69 	0.042790 	4674 	0.042038
42.71 	0.047823 	4663 	0.046923
42.73 	0.040948 	4640 	0.040443
42.75 	0.050249 	4617 	0.049615
42.77 	0.051304 	4600 	0.051050
42.79 	0.046268 	4582 	0.045757
42.81 	0.044717 	4562 	0.044332
42.83 	0.041667 	4536 	0.041150
42.85 	0.043949 	4528 	0.043302
42.87 	0.049122 	4499 	0.048341
42.89 	0.051116 	4480 	0.050724
42.91 	0.047352 	4456 	0.046826
42.93 	0.044759 	4446 	0.044496
42.95 	0.046875 	4416 	0.046344
42.97 	0.046126 	4401 	0.045572
42.99 	0.043101 	4385 	0.042834
43.01 	0.050195 	4363 	0.049099
43.03 	0.048696 	4333 	0.047885
43.05 	0.043468 	4325 	0.043062
43.07 	0.045391 	4296 	0.044573
43.09 	0.045529 	4283 	0.044822
43.11 	0.046298 	4255 	0.045748
43.13 	0.043663 	4237 	0.043663
43.15 	0.049453 	4206 	0.048618
43.17 	0.043790 	4179 	0.043510
43.19 	0.053648 	4194 	0.053229
43.21 	0.043145 	4172 	0.042443
43.23 	0.046221 	4154 	0.045656
43.25 	0.053204 	4135 	0.052779
43.27 	0.047259 	4105 	0.045952
43.29 	0.047561 	4100 	0.046847
43.31 	0.049522 	4079 	0.048660
43.33 	0.053073 	4051 	0.052350
43.35 	0.051587 	4032 	0.051006
43.37 	0.039103 	4015 	0.038520
43.39 	0.050225 	4002 	0.049347
43.41 	0.050101 	3972 	0.049363
43.43 	0.052273 	3960 	0.051237
43.45 	0.048793 	3935 	0.048197
43.47 	0.043611 	3921 	0.043313
43.49 	0.045420 	3897 	0.044969
43.51 	0.048749 	3877 	0.047842
43.53 	0.047890 	3863 	0.047435
43.55 	0.035762 	2964 	0.035565
43.57 	0.041555 	2238 	0.041555
43.59 	0.036655 	1746 	0.036655
43.61 	0.054034 	1351 	0.052733
43.63 	0.061938 	1001 	0.060768
43.65 	0.052402 	687 	0.052402
43.67 	0.047809 	502 	0.047809
43.69 	0.035422 	367 	0.035422
43.71 	0.037657 	239 	0.037657
43.73 	0.033333 	120 	0.033333
43.75 	0.062500 	16 	0.062500