File: Example_Data/25SC_s1_0027.001.dat
#F C:\frames\spec\25SC_s1_0027.001
#C title =s:27 frm:1 25SC_s1
#C wavelength =0.15406

#S 1  fr_average C:\frames\spec\25SC_s1_0027.001 C:\win32app\speccom\mask.axs chi 0 180 0 360 0.02
#C 2 theta =0.000000 to 180 deg
#C   q   =0.000000 to 81.568 nm^-1
#C  chi  =0.000000 to 360 deg
#C collumns:
#C  1 position (2theta or chi in degrees)
#C  2 average intensity (sum of all counts in the region divided with number of pixels)
#C  3 Number of pixels in region)
#C  4 error (sum of sqrt(intensity) for all pixels divided by number)
#N 4
#L TTh  Int  N_pix  Err
32.99 	0.049180 	61 	0.049180
33.01 	0.057274 	873 	0.057274
33.03 	0.068296 	1391 	0.067033
33.05 	0.067729 	1757 	0.066729
33.07 	0.061463 	2050 	0.060320
33.09 	0.052833 	2347 	0.052584
33.11 	0.065529 	2579 	0.064621
33.13 	0.058360 	2793 	0.057312
33.15 	0.062688 	2999 	0.061711
33.17 	0.057170 	3201 	0.055523
33.19 	0.051466 	3342 	0.051116
33.21 	0.062573 	3436 	0.061010
33.23 	0.058473 	3523 	0.058140
33.25 	0.062016 	3612 	0.060718
33.27 	0.062259 	3630 	0.060484
33.29 	0.062774 	3648 	0.061971
33.31 	0.060109 	3660 	0.058669
33.33 	0.058600 	3686 	0.057488
33.35 	0.058202 	3694 	0.056617
33.37 	0.065967 	3714 	0.064863
33.39 	0.059533 	3729 	0.057937
33.41 	0.067112 	3740 	0.065703
33.43 	0.058761 	3761 	0.057982
33.45 	0.058839 	3773 	0.057752
33.47 	0.058452 	3798 	0.056755
33.49 	0.055920 	3809 	0.054997
33.51 	0.056619 	3815 	0.054930
33.53 	0.060401 	3841 	0.059333
33.55 	0.064273 	3843 	0.062901
33.57 	0.060098 	3877 	0.058864
33.59 	0.056701 	3880 	0.055644
33.61 	0.066769 	3909 	0.064521
33.63 	0.056902 	3919 	0.056005
33.65 	0.055202 	3931 	0.053861
33.67 	0.061457 	3954 	0.060716
33.69 	0.056666 	3953 	0.055925
33.71 	0.062642 	3975 	0.061315
33.73 	0.053696 	4004 	0.052941
33.75 	0.061765 	3999 	0.060740
33.77 	0.062609 	4025 	0.061881
33.79 	0.046276 	4041 	0.045696
33.81 	0.053492 	4038 	0.052766
33.83 	0.067407 	4050 	0.065816
33.85 	0.054891 	4099 	0.053605
33.87 	0.056920 	4111 	0.056778
33.89 	0.054113 	4121 	0.053402
33.91 	0.058568 	4149 	0.056874
33.93 	0.064563 	4151 	0.063152
33.95 	0.053815 	4181 	0.053114
33.97 	0.057995 	4190 	0.057133
33.99 	0.057143 	4200 	0.056306
34.01 	0.054356 	4213 	0.053521
34.03 	0.059378 	4244 	0.058550
34.05 	0.054563 	4252 	0.053185
34.07 	0.059278 	4268 	0.058729
34.09 	0.058563 	4286 	0.057743
34.11 	0.053464 	4302 	0.053191
34.13 	0.066156 	4308 	0.064932
34.15 	0.053567 	4331 	0.052598
34.17 	0.058621 	4350 	0.057947
34.19 	0.054562 	4362 	0.054294
34.21 	0.059025 	4371 	0.057663
34.23 	0.057136 	4393 	0.056336
34.25 	0.057221 	4404 	0.055891
34.27 	0.054953 	4422 	0.053893
34.29 	0.057272 	4435 	0.056215
34.31 	0.060790 	4458 	0.059738
34.33 	0.060389 	4471 	0.059472
34.35 	0.053970 	4484 	0.052794
34.37 	0.055444 	4491 	0.054531
34.39 	0.063527 	4502 	0.062747
34.41 	0.060318 	4526 	0.059542
34.43 	0.051774 	4539 	0.051386
34.45 	0.059757 	4535 	0.058724
34.47 	0.056185 	4592 	0.055419
34.49 	0.055036 	4597 	0.054016
34.51 	0.052540 	4606 	0.051650
34.53 	0.056644 	4643 	0.056140
34.55 	0.053629 	4643 	0.052599
34.57 	0.062446 	4660 	0.061315
34.59 	0.050267 	4675 	0.049891
34.61 	0.055780 	4697 	0.054907
34.63 	0.061359 	4710 	0.059722
34.65 	0.056979 	4721 	0.055594
34.67 	0.062434 	4741 	0.060581
34.69 	0.053008 	4754 	0.052022
34.71 	0.057281 	4766 	0.056666
34.73 	0.059745 	4787 	0.058399
34.75 	0.057196 	4808 	0.056100
34.77 	0.058323 	4818 	0.057350
34.79 	0.054104 	4824 	0.053133
34.81 	0.061094 	4845 	0.059381
34.83 	0.054093 	4862 	0.053491
34.85 	0.055864 	4869 	0.054540
34.87 	0.056902 	4868 	0.056060
34.89 	0.057968 	4882 	0.057008
34.91 	0.056944 	4882 	0.055744
34.93 	0.059400 	4899 	0.058324
34.95 	0.061145 	4890 	0.060067
34.97 	0.060180 	4902 	0.059582
34.99 	0.056361 	4897 	0.055883
35.01 	0.060532 	4923 	0.059580
35.03 	0.051588 	4943 	0.050403
35.05 	0.052153 	4947 	0.051561
35.07 	0.057895 	4940 	0.056828
35.09 	0.055320 	4953 	0.054000
35.11 	0.051546 	4947 	0.050343
35.13 	0.060105 	4958 	0.059278
35.15 	0.055702 	4937 	0.055227
35.17 	0.054387 	4946 	0.053440
35.19 	0.058478 	4942 	0.057530
35.21 	0.062690 	4945 	0.061742
35.23 	0.055612 	4945 	0.054546
35.25 	0.055837 	4943 	0.054414
35.27 	0.054163 	4948 	0.052979
35.29 	0.058038 	4945 	0.056972
35.31 	0.054328 	4933 	0.053853
35.33 	0.053611 	4943 	0.052782
35.35 	0.051599 	4942 	0.050769
35.37 	0.050820 	4939 	0.050108
35.39 	0.061476 	4945 	0.060292
35.41 	0.055826 	4926 	0.054875
35.43 	0.057166 	4933 	0.055860
35.45 	0.058132 	4937 	0.057658
35.47 	0.054958 	4931 	0.053533
35.49 	0.057230 	4910 	0.056395
35.51 	0.059074 	4926 	0.058242
35.53 	0.051930 	4949 	0.050864
35.55 	0.054601 	4945 	0.053771
35.57 	0.057774 	4933 	0.057299
35.59 	0.058847 	4945 	0.057781
35.61 	0.057669 	4942 	0.056820
35.63 	0.055432 	4943 	0.054583
35.65 	0.060263 	4945 	0.059434
35.67 	0.058074 	4942 	0.057007
35.69 	0.054387 	4946 	0.053795
35.71 	0.057322 	4937 	0.056848
35.73 	0.056118 	4936 	0.054694
35.75 	0.053539 	4931 	0.052588
35.77 	0.052919 	4951 	0.052327
35.79 	0.057380 	4932 	0.056905
35.81 	0.059801 	4933 	0.059208
35.83 	0.056611 	4946 	0.055427
35.85 	0.058156 	4935 	0.056593
35.87 	0.056673 	4923 	0.055126
35.89 	0.057762 	4934 	0.056318
35.91 	0.055612 	4927 	0.054899
35.93 	0.053785 	4927 	0.052715
35.95 	0.053081 	4917 	0.051532
35.97 	0.061686 	4912 	0.060851
35.99 	0.060134 	4939 	0.059541
36.01 	0.054564 	4930 	0.053970
36.03 	0.055027 	4943 	0.054672
36.05 	0.056623 	4945 	0.056149
36.07 	0.060741 	4939 	0.059674
36.09 	0.060121 	4940 	0.059173
36.11 	0.057010 	4929 	0.056415
36.13 	0.051599 	4942 	0.050887
36.15 	0.056084 	4939 	0.054542
36.17 	0.060102 	4925 	0.058912
36.19 	0.058704 	4940 	0.057637
36.21 	0.060459 	4929 	0.059151
36.23 	0.057345 	4935 	0.056277
36.25 	0.056264 	4941 	0.055434
36.27 	0.056041 	4925 	0.055446
36.29 	0.055161 	4931 	0.054211
36.31 	0.059456 	4928 	0.058505
36.33 	0.063450 	4933 	0.062738
36.35 	0.054372 	4929 	0.053897
36.37 	0.058298 	4923 	0.057703
36.39 	0.057509 	4921 	0.057390
36.41 	0.058415 	4896 	0.058056
36.43 	0.058644 	4928 	0.057218
36.45 	0.060649 	4930 	0.059936
36.47 	0.052674 	4936 	0.052318
36.49 	0.052206 	4942 	0.051139
36.51 	0.055747 	4933 	0.054797
36.53 	0.055837 	4943 	0.054158
36.55 	0.053582 	4927 	0.053087
36.57 	0.054925 	4934 	0.054331
36.59 	0.060336 	4939 	0.059269
36.61 	0.054147 	4931 	0.053434
36.63 	0.058609 	4931 	0.056926
36.65 	0.063666 	4932 	0.062597
36.67 	0.059432 	4930 	0.058838
36.69 	0.063299 	4929 	0.062586
36.71 	0.054257 	4921 	0.053424
36.73 	0.059898 	4925 	0.059066
36.75 	0.053803 	4944 	0.053092
36.77 	0.055499 	4919 	0.054050
36.79 	0.050599 	4921 	0.050004
36.81 	0.058177 	4916 	0.056847
36.83 	0.054120 	4915 	0.053405
36.85 	0.059412 	4898 	0.058814
36.87 	0.053196 	4944 	0.052485
36.89 	0.057364 	4916 	0.056410
36.91 	0.060919 	4941 	0.059378
36.93 	0.058418 	4930 	0.056992
36.95 	0.058585 	4933 	0.057398
36.97 	0.056952 	4934 	0.056002
36.99 	0.049645 	4935 	0.049052
37.01 	0.059599 	4933 	0.058886
37.03 	0.049350 	4924 	0.048993
37.05 	0.052973 	4927 	0.052498
37.07 	0.054306 	4935 	0.053119
37.09 	0.051136 	4928 	0.050285
37.11 	0.060385 	4935 	0.059554
37.13 	0.055443 	4924 	0.054253
37.15 	0.053371 	4909 	0.052655
37.17 	0.053304 	4934 	0.052572
37.19 	0.058883 	4925 	0.057932
37.21 	0.059182 	4917 	0.058229
37.23 	0.059374 	4918 	0.058540
37.25 	0.053553 	4911 	0.052003
37.27 	0.052718 	4894 	0.052359
37.29 	0.054158 	4930 	0.053089
37.31 	0.057143 	4935 	0.056530
37.33 	0.056424 	4927 	0.055116
37.35 	0.055083 	4938 	0.054015
37.37 	0.055206 	4927 	0.054968
37.39 	0.056378 	4931 	0.054695
37.41 	0.055364 	4931 	0.054295
37.43 	0.054947 	4932 	0.053878
37.45 	0.051584 	4924 	0.050632
37.47 	0.059038 	4929 	0.058088
37.49 	0.056470 	4923 	0.055875
37.51 	0.057166 	4933 	0.055722
37.53 	0.053060 	4919 	0.051988
37.55 	0.049696 	4930 	0.048864
37.57 	0.051777 	4925 	0.050944
37.59 	0.061241 	4915 	0.059195
37.61 	0.054246 	4922 	0.053651
37.63 	0.049604 	4919 	0.048651
37.65 	0.054494 	4918 	0.054375
37.67 	0.057708 	4904 	0.057350
37.69 	0.057370 	4898 	0.056414
37.71 	0.050923 	4929 	0.050091
37.73 	0.055589 	4929 	0.054401
37.75 	0.058502 	4940 	0.056960
37.77 	0.066870 	4920 	0.065203
37.79 	0.056389 	4930 	0.055558
37.81 	0.051287 	4933 	0.050575
37.83 	0.052236 	4920 	0.051383
37.85 	0.056278 	4922 	0.055683
37.87 	0.062766 	4939 	0.061580
37.89 	0.052183 	4925 	0.051826
37.91 	0.050304 	4930 	0.049354
37.93 	0.052246 	4919 	0.051294
37.95 	0.057509 	4921 	0.056556
37.97 	0.053763 	4929 	0.052813
37.99 	0.059650 	4912 	0.058457
38.01 	0.054586 	4928 	0.053734
38.03 	0.047668 	4909 	0.047548
38.05 	0.055838 	4925 	0.055005
38.07 	0.056631 	4909 	0.055179
38.09 	0.056786 	4878 	0.055945
38.11 	0.048227 	4935 	0.047633
38.13 	0.055702 	4937 	0.055109
38.15 	0.056324 	4918 	0.055133
38.17 	0.058012 	4930 	0.057180
38.19 	0.066329 	4930 	0.064527
38.21 	0.060126 	4923 	0.058817
38.23 	0.053463 	4938 	0.052751
38.25 	0.062436 	4917 	0.061483
38.27 	0.062069 	4930 	0.061000
38.29 	0.061129 	4924 	0.060058
38.31 	0.059062 	4927 	0.057279
38.33 	0.062754 	4924 	0.061207
38.35 	0.068791 	4928 	0.067364
38.37 	0.060520 	4924 	0.059449
38.39 	0.071909 	4909 	0.070596
38.41 	0.068657 	4923 	0.067348
38.43 	0.072010 	4916 	0.070461
38.45 	0.071167 	4918 	0.068547
38.47 	0.074180 	4907 	0.072489
38.49 	0.072791 	4877 	0.071229
38.51 	0.076440 	4932 	0.075489
38.53 	0.071414 	4929 	0.070107
38.55 	0.074352 	4936 	0.072928
38.57 	0.071907 	4923 	0.069607
38.59 	0.069659 	4924 	0.068093
38.61 	0.074757 	4936 	0.073214
38.63 	0.072705 	4924 	0.071159
38.65 	0.072997 	4918 	0.072044
38.67 	0.072919 	4937 	0.071376
38.69 	0.065421 	4922 	0.064211
38.71 	0.068034 	4924 	0.066844
38.73 	0.066287 	4918 	0.064719
38.75 	0.063122 	4927 	0.062527
38.77 	0.065814 	4923 	0.064267
38.79 	0.064653 	4934 	0.063822
38.81 	0.056596 	4912 	0.056358
38.83 	0.059362 	4919 	0.058290
38.85 	0.051099 	4912 	0.049668
38.87 	0.054164 	4911 	0.053448
38.89 	0.055748 	4897 	0.055150
38.91 	0.050377 	4903 	0.049899
38.93 	0.051033 	4938 	0.050321
38.95 	0.056934 	4918 	0.056199
38.97 	0.057392 	4931 	0.056798
38.99 	0.051043 	4937 	0.050569
39.01 	0.053884 	4918 	0.053407
39.03 	0.049453 	4934 	0.048978
39.05 	0.049949 	4925 	0.049355
39.07 	0.047116 	4924 	0.046402
39.09 	0.051798 	4923 	0.050965
39.11 	0.047049 	4931 	0.046693
39.13 	0.044891 	4923 	0.044177
39.15 	0.045982 	4915 	0.044770
39.17 	0.053474 	4937 	0.052881
39.19 	0.053081 	4917 	0.052485
39.21 	0.044196 	4910 	0.043718
39.23 	0.050152 	4925 	0.049439
39.25 	0.050589 	4922 	0.050113
39.27 	0.044807 	4910 	0.044329
39.29 	0.048562 	4901 	0.047725
39.31 	0.048526 	4884 	0.048046
39.33 	0.045427 	4931 	0.044595
39.35 	0.047822 	4935 	0.047347
39.37 	0.043214 	4929 	0.042976
39.39 	0.044228 	4929 	0.043396
39.41 	0.048266 	4931 	0.047672
39.43 	0.043787 	4933 	0.043193
39.45 	0.045279 	4925 	0.045041
39.47 	0.043876 	4923 	0.043281
39.49 	0.045408 	4933 	0.044696
39.51 	0.040008 	4924 	0.039532
39.53 	0.047126 	4923 	0.046531
39.55 	0.043911 	4919 	0.043058
39.57 	0.050274 	4933 	0.049442
39.59 	0.046010 	4912 	0.045533
39.61 	0.046110 	4923 	0.045515
39.63 	0.046119 	4922 	0.045167
39.65 	0.046691 	4926 	0.045740
39.67 	0.040912 	4913 	0.040316
39.69 	0.042107 	4916 	0.041512
39.71 	0.045965 	4895 	0.045367
39.73 	0.046251 	4908 	0.045893
39.75 	0.044440 	4928 	0.043370
39.77 	0.037487 	4935 	0.037131
39.79 	0.046894 	4926 	0.046418
39.81 	0.039984 	4927 	0.039627
39.83 	0.041143 	4934 	0.041024
39.85 	0.040593 	4927 	0.039998
39.87 	0.041218 	4925 	0.040861
39.89 	0.044791 	4934 	0.043723
39.91 	0.043478 	4922 	0.043240
39.93 	0.038687 	4937 	0.038450
39.95 	0.044761 	4915 	0.044165
39.97 	0.039773 	4928 	0.039397
39.99 	0.043998 	4932 	0.043286
40.01 	0.041684 	4918 	0.041445
40.03 	0.047078 	4928 	0.046226
40.05 	0.041285 	4917 	0.040451
40.07 	0.043673 	4923 	0.043197
40.09 	0.040683 	4916 	0.039969
40.11 	0.043938 	4916 	0.043819
40.13 	0.044526 	4896 	0.043928
40.15 	0.052514 	4913 	0.052037
40.17 	0.042411 	4928 	0.042054
40.19 	0.047677 	4929 	0.047083
40.21 	0.045593 	4935 	0.044999
40.23 	0.044809 	4932 	0.043483
40.25 	0.047561 	4920 	0.046728
40.27 	0.044967 	4937 	0.044492
40.29 	0.046479 	4927 	0.045746
40.31 	0.048998 	4939 	0.048049
40.33 	0.045215 	4932 	0.044740
40.35 	0.042488 	4919 	0.042131
40.37 	0.042402 	4929 	0.041808
40.39 	0.042791 	4931 	0.041959
40.41 	0.041218 	4925 	0.040505
40.43 	0.040431 	4922 	0.039717
40.45 	0.045408 	4933 	0.044815
40.47 	0.045750 	4918 	0.045274
40.49 	0.041819 	4926 	0.041224
40.51 	0.039821 	4922 	0.039345
40.53 	0.039666 	4916 	0.039190
40.55 	0.043195 	4908 	0.042956
40.57 	0.042331 	4890 	0.041852
40.59 	0.043549 	4937 	0.043074
40.61 	0.040527 	4935 	0.039933
40.63 	0.041379 	4930 	0.041023
40.65 	0.042739 	4937 	0.042383
40.67 	0.045620 	4932 	0.045145
40.69 	0.041118 	4937 	0.040881
40.71 	0.037105 	4932 	0.036867
40.73 	0.039789 	4926 	0.039075
40.75 	0.045630 	4931 	0.045392
40.77 	0.037255 	4939 	0.037255
40.79 	0.037165 	4924 	0.037046
40.81 	0.045740 	4941 	0.045365
40.83 	0.048701 	4928 	0.048226
40.85 	0.040008 	4924 	0.039889
40.87 	0.042411 	4928 	0.041935
40.89 	0.045427 	4931 	0.045071
40.91 	0.042657 	4923 	0.042419
40.93 	0.040940 	4934 	0.040466
40.95 	0.040708 	4913 	0.040351
40.97 	0.045695 	4924 	0.045338
40.99 	0.035540 	4924 	0.035183
41.01 	0.039088 	4912 	0.038969
41.03 	0.041386 	4905 	0.040670
41.05 	0.038898 	4936 	0.038186
41.07 	0.037525 	4930 	0.036456
41.09 	0.043936 	4939 	0.043462
41.11 	0.038298 	4935 	0.038060
41.13 	0.040924 	4936 	0.040568
41.15 	0.041692 	4941 	0.041218
41.17 	0.039522 	4934 	0.039047
41.19 	0.041582 	4930 	0.041345
41.21 	0.037675 	4937 	0.037200
41.23 	0.035230 	4939 	0.034993
41.25 	0.043787 	4933 	0.043193
41.27 	0.043196 	4931 	0.042602
41.29 	0.041396 	4928 	0.040921
41.31 	0.038313 	4933 	0.038195
41.33 	0.039498 	4937 	0.039260
41.35 	0.041110 	4938 	0.041110
41.37 	0.039399 	4924 	0.039280
41.39 	0.040746 	4933 	0.040509
41.41 	0.041413 	4926 	0.040580
41.43 	0.039765 	4929 	0.039170
41.45 	0.035409 	4914 	0.034932
41.47 	0.037556 	4926 	0.037199
41.49 	0.038430 	4892 	0.038191
41.51 	0.039676 	4940 	0.039320
41.53 	0.044903 	4944 	0.044784
41.55 	0.042958 	4935 	0.042721
41.57 	0.036227 	4941 	0.036109
41.59 	0.039530 	4933 	0.039173
41.61 	0.043206 	4953 	0.042615
41.63 	0.035642 	4938 	0.035167
41.65 	0.044431 	4929 	0.044312
41.67 	0.036842 	4940 	0.036368
41.69 	0.043461 	4947 	0.042158
41.71 	0.044386 	4934 	0.043555
41.73 	0.041734 	4936 	0.041378
41.75 	0.040373 	4929 	0.040017
41.77 	0.042906 	4941 	0.042314
41.79 	0.045510 	4944 	0.044799
41.81 	0.041126 	4936 	0.040770
41.83 	0.034497 	4928 	0.034259
41.85 	0.039077 	4939 	0.038958
41.87 	0.039919 	4935 	0.039444
41.89 	0.039327 	4933 	0.038971
41.91 	0.035859 	4936 	0.035028
41.93 	0.038727 	4932 	0.038489
41.95 	0.041574 	4931 	0.041198
41.97 	0.036834 	4914 	0.036476
41.99 	0.040979 	4905 	0.040859
42.01 	0.039862 	4942 	0.039151
42.03 	0.036040 	4939 	0.035684
42.05 	0.039176 	4952 	0.038940
42.07 	0.040713 	4937 	0.040120
42.09 	0.039006 	4948 	0.038887
42.11 	0.035187 	4945 	0.035187
42.13 	0.042265 	4945 	0.041436
42.15 	0.038680 	4938 	0.038561
42.17 	0.037414 	4918 	0.036937
42.19 	0.041565 	4908 	0.041207
42.21 	0.035095 	4901 	0.034617
42.23 	0.039043 	4892 	0.038205
42.25 	0.036408 	4889 	0.035689
42.27 	0.038572 	4874 	0.038091
42.29 	0.033518 	4863 	0.033277
42.31 	0.042225 	4855 	0.041863
42.33 	0.040546 	4834 	0.040304
42.35 	0.037205 	4838 	0.036963
42.37 	0.040994 	4830 	0.040387
42.39 	0.043089 	4804 	0.042723
42.41 	0.038093 	4804 	0.037606
42.43 	0.047579 	4792 	0.047090
42.45 	0.033082 	4776 	0.032714
42.47 	0.035887 	4765 	0.035518
42.49 	0.039035 	4765 	0.038912
42.51 	0.038583 	4743 	0.038213
42.53 	0.034687 	4728 	0.034439
42.55 	0.040144 	4708 	0.039398
42.57 	0.040381 	4730 	0.039266
42.59 	0.038697 	4729 	0.038078
42.61 	0.035896 	4708 	0.035523
42.63 	0.038649 	4709 	0.038649
42.65 	0.035005 	4685 	0.034505
42.67 	0.036721 	4684 	0.036095
42.69 	0.037013 	4674 	0.036366
42.71 	0.037101 	4663 	0.036221
42.73 	0.039224 	4640 	0.038845
42.75 	0.038337 	4617 	0.037956
42.77 	0.037609 	4600 	0.037354
42.79 	0.034483 	4582 	0.034227
42.81 	0.038799 	4562 	0.038157
42.83 	0.038580 	4536 	0.037805
42.85 	0.042182 	4528 	0.041406
42.87 	0.041343 	4499 	0.040171
42.89 	0.043750 	4480 	0.043358
42.91 	0.041741 	4456 	0.041610
42.93 	0.036212 	4446 	0.035685
42.95 	0.040534 	4416 	0.040402
42.97 	0.039536 	4401 	0.039004
42.99 	0.036032 	4385 	0.035631
43.01 	0.036901 	4363 	0.036767
43.03 	0.036234 	4333 	0.035828
43.05 	0.034913 	4325 	0.034642
43.07 	0.038175 	4296 	0.037902
43.09 	0.036657 	4283 	0.036520
43.11 	0.035723 	4255 	0.034897
43.13 	0.035638 	4237 	0.035224
43.15 	0.043747 	4206 	0.043167
43.17 	0.035176 	4179 	0.034896
43.19 	0.033143 	4194 	0.032724
43.21 	0.046021 	4172 	0.045881
43.23 	0.033221 	4154 	0.033221
43.25 	0.037727 	4135 	0.037302
43.27 	0.034592 	4105 	0.033855
43.29 	0.039268 	4100 	0.038697
43.31 	0.038980 	4079 	0.038980
43.33 	0.036534 	4051 	0.035811
43.35 	0.036954 	4032 	0.036809
43.37 	0.044832 	4015 	0.044248
43.39 	0.039230 	4002 	0.039084
43.41 	0.033484 	3972 	0.033042
43.43 	0.034343 	3960 	0.034196
43.45 	0.035070 	3935 	0.034921
43.47 	0.037490 	3921 	0.037192
43.49 	0.037721 	3897 	0.037095
43.51 	0.033273 	3877 	0.032493
43.53 	0.037018 	3863 	0.036260
43.55 	0.036437 	2964 	0.036240
43.57 	0.031725 	2238 	0.031201
43.59 	0.036082 	1746 	0.035411
43.61 	0.041451 	1351 	0.041017
43.63 	0.029970 	1001 	0.029970
43.65 	0.032023 	687 	0.030318
43.67 	0.047809 	502 	0.046642
43.69 	0.032698 	367 	0.032698
43.71 	0.020921 	239 	0.020921
43.73 	0.033333 	120 	0.033333
43.75 	0.062500 	16 	0.062500