File: Example_Data/25SC_s1_0050.000.dat
#F C:\frames\spec\25SC_s1_0050.000
#C title =s:50 frm:0 25SC_s1
#C wavelength =0.15406

#S 1  fr_average C:\frames\spec\25SC_s1_0050.000 C:\win32app\speccom\mask.axs chi 0 180 0 360 0.02
#C 2 theta =0.000000 to 180 deg
#C   q   =0.000000 to 81.568 nm^-1
#C  chi  =0.000000 to 360 deg
#C collumns:
#C  1 position (2theta or chi in degrees)
#C  2 average intensity (sum of all counts in the region divided with number of pixels)
#C  3 Number of pixels in region)
#C  4 error (sum of sqrt(intensity) for all pixels divided by number)
#N 4
#L TTh  Int  N_pix  Err
32.99 	0.049180 	61 	0.049180
33.01 	0.042383 	873 	0.041712
33.03 	0.048886 	1391 	0.048886
33.05 	0.048378 	1757 	0.047711
33.07 	0.062927 	2050 	0.061212
33.09 	0.050703 	2347 	0.049954
33.11 	0.055836 	2579 	0.055117
33.13 	0.060508 	2793 	0.059669
33.15 	0.057352 	2999 	0.056376
33.17 	0.057794 	3201 	0.057428
33.19 	0.060443 	3342 	0.059566
33.21 	0.065483 	3436 	0.064290
33.23 	0.057054 	3523 	0.056222
33.25 	0.067276 	3612 	0.065654
33.27 	0.067493 	3630 	0.066041
33.29 	0.054002 	3648 	0.053012
33.31 	0.059836 	3660 	0.058369
33.33 	0.052903 	3686 	0.052267
33.35 	0.058744 	3694 	0.057951
33.37 	0.052773 	3714 	0.051827
33.39 	0.057656 	3729 	0.056059
33.41 	0.060695 	3740 	0.059912
33.43 	0.061420 	3761 	0.060330
33.45 	0.059634 	3773 	0.059168
33.47 	0.063454 	3798 	0.062375
33.49 	0.057495 	3809 	0.056547
33.51 	0.062385 	3815 	0.061003
33.53 	0.057537 	3841 	0.056775
33.55 	0.057767 	3843 	0.056980
33.57 	0.058550 	3877 	0.057342
33.59 	0.055155 	3880 	0.054400
33.61 	0.059862 	3909 	0.058963
33.63 	0.058433 	3919 	0.057063
33.65 	0.067922 	3931 	0.066282
33.67 	0.060192 	3954 	0.059600
33.69 	0.061472 	3953 	0.060880
33.71 	0.054340 	3975 	0.053455
33.73 	0.061189 	4004 	0.060311
33.75 	0.057014 	3999 	0.055842
33.77 	0.059130 	4025 	0.058112
33.79 	0.059886 	4041 	0.058437
33.81 	0.059435 	4038 	0.058565
33.83 	0.059259 	4050 	0.057958
33.85 	0.062698 	4099 	0.062269
33.87 	0.051812 	4111 	0.050957
33.89 	0.064547 	4121 	0.063837
33.91 	0.060738 	4149 	0.059749
33.93 	0.064563 	4151 	0.063716
33.95 	0.062664 	4181 	0.061964
33.97 	0.062291 	4190 	0.061313
33.99 	0.055000 	4200 	0.054163
34.01 	0.056967 	4213 	0.055993
34.03 	0.058907 	4244 	0.057941
34.05 	0.048448 	4252 	0.047621
34.07 	0.058107 	4268 	0.057283
34.09 	0.053896 	4286 	0.053076
34.11 	0.054626 	4302 	0.052992
34.13 	0.060353 	4308 	0.059537
34.15 	0.061879 	4331 	0.061338
34.17 	0.058391 	4350 	0.057987
34.19 	0.056396 	4362 	0.055725
34.21 	0.053077 	4371 	0.052541
34.23 	0.054860 	4393 	0.053793
34.25 	0.057448 	4404 	0.056229
34.27 	0.063320 	4422 	0.062260
34.29 	0.062909 	4435 	0.061698
34.31 	0.052490 	4458 	0.051439
34.33 	0.057482 	4471 	0.056171
34.35 	0.058653 	4484 	0.058000
34.37 	0.054331 	4491 	0.053396
34.39 	0.055531 	4502 	0.054620
34.41 	0.056341 	4526 	0.055047
34.43 	0.058824 	4539 	0.057791
34.45 	0.056670 	4535 	0.055508
34.47 	0.052700 	4592 	0.052063
34.49 	0.059604 	4597 	0.058840
34.51 	0.058402 	4606 	0.057766
34.53 	0.062675 	4643 	0.061287
34.55 	0.053414 	4643 	0.052510
34.57 	0.056223 	4660 	0.055092
34.59 	0.047059 	4675 	0.046307
34.61 	0.055142 	4697 	0.054393
34.63 	0.057325 	4710 	0.055812
34.65 	0.057827 	4721 	0.057206
34.67 	0.049146 	4741 	0.048404
34.69 	0.059318 	4754 	0.058333
34.71 	0.054763 	4766 	0.053391
34.73 	0.052643 	4787 	0.051766
34.75 	0.058236 	4808 	0.057120
34.77 	0.065795 	4818 	0.064336
34.79 	0.058043 	4824 	0.057315
34.81 	0.055108 	4845 	0.054383
34.83 	0.054504 	4862 	0.053661
34.85 	0.059766 	4869 	0.058683
34.87 	0.061832 	4868 	0.060629
34.89 	0.058583 	4882 	0.057623
34.91 	0.057558 	4882 	0.056579
34.93 	0.055317 	4899 	0.053883
34.95 	0.055624 	4890 	0.054426
34.97 	0.063443 	4902 	0.061412
34.99 	0.060649 	4897 	0.060051
35.01 	0.055251 	4923 	0.054061
35.03 	0.056039 	4943 	0.055091
35.05 	0.058621 	4947 	0.057793
35.07 	0.062146 	4940 	0.061079
35.09 	0.057339 	4953 	0.056275
35.11 	0.056600 	4947 	0.056008
35.13 	0.051230 	4958 	0.050148
35.15 	0.056309 	4937 	0.054886
35.17 	0.060655 	4946 	0.058721
35.19 	0.057062 	4942 	0.055620
35.21 	0.060465 	4945 	0.059517
35.23 	0.060465 	4945 	0.058669
35.25 	0.058467 	4943 	0.057400
35.27 	0.057195 	4948 	0.056484
35.29 	0.059454 	4945 	0.057677
35.31 	0.060004 	4933 	0.058342
35.33 	0.054218 	4943 	0.052865
35.35 	0.052610 	4942 	0.051543
35.37 	0.058919 	4939 	0.057496
35.39 	0.058645 	4945 	0.057816
35.41 	0.059886 	4926 	0.058578
35.43 	0.059599 	4933 	0.057817
35.45 	0.060968 	4937 	0.060019
35.47 	0.059217 	4931 	0.057792
35.49 	0.056415 	4910 	0.055580
35.51 	0.060698 	4926 	0.059628
35.53 	0.053344 	4949 	0.052989
35.55 	0.062892 	4945 	0.061826
35.57 	0.053112 	4933 	0.052280
35.59 	0.059252 	4945 	0.058541
35.61 	0.061716 	4942 	0.061005
35.63 	0.059276 	4943 	0.057716
35.65 	0.055612 	4945 	0.054901
35.67 	0.060704 	4942 	0.059637
35.69 	0.054792 	4946 	0.054318
35.71 	0.059955 	4937 	0.059481
35.73 	0.055308 	4936 	0.054952
35.75 	0.059420 	4931 	0.058232
35.77 	0.055746 	4951 	0.054918
35.79 	0.059205 	4932 	0.058136
35.81 	0.057774 	4933 	0.057062
35.83 	0.057016 	4946 	0.056424
35.85 	0.060993 	4935 	0.059925
35.87 	0.053220 	4923 	0.052506
35.89 	0.058370 	4934 	0.057896
35.91 	0.060889 	4927 	0.060413
35.93 	0.062310 	4927 	0.061002
35.95 	0.064267 	4917 	0.063075
35.97 	0.060464 	4912 	0.059491
35.99 	0.056894 	4939 	0.055945
36.01 	0.061460 	4930 	0.060985
36.03 	0.055634 	4943 	0.054568
36.05 	0.054803 	4945 	0.054092
36.07 	0.062158 	4939 	0.060972
36.09 	0.057490 	4940 	0.057016
36.11 	0.057821 	4929 	0.057227
36.13 	0.054229 	4942 	0.053518
36.15 	0.060539 	4939 	0.059214
36.17 	0.059289 	4925 	0.059051
36.19 	0.051417 	4940 	0.050824
36.21 	0.063705 	4929 	0.062734
36.23 	0.058967 	4935 	0.058254
36.25 	0.053835 	4941 	0.053361
36.27 	0.063756 	4925 	0.062191
36.29 	0.063070 	4931 	0.061526
36.31 	0.058644 	4928 	0.057575
36.33 	0.057369 	4933 	0.056775
36.35 	0.064110 	4929 	0.062684
36.37 	0.061751 	4923 	0.060799
36.39 	0.057712 	4921 	0.056283
36.41 	0.061683 	4896 	0.059749
36.43 	0.056006 	4928 	0.055056
36.45 	0.058215 	4930 	0.057027
36.47 	0.065032 	4936 	0.064439
36.49 	0.056050 	4942 	0.055102
36.51 	0.060612 	4933 	0.059900
36.53 	0.052195 	4943 	0.051721
36.55 	0.056424 	4927 	0.055829
36.57 	0.047021 	4934 	0.046427
36.59 	0.058716 	4939 	0.058005
36.61 	0.061245 	4931 	0.059463
36.63 	0.059623 	4931 	0.058910
36.65 	0.055353 	4932 	0.054284
36.67 	0.058215 	4930 	0.057264
36.69 	0.058633 	4929 	0.057682
36.71 	0.058728 	4921 	0.058014
36.73 	0.056447 	4925 	0.055238
36.75 	0.062095 	4944 	0.061266
36.77 	0.055702 	4919 	0.054750
36.79 	0.051616 	4921 	0.050663
36.81 	0.060822 	4916 	0.059511
36.83 	0.061851 	4915 	0.060540
36.85 	0.058800 	4898 	0.057843
36.87 	0.059466 	4944 	0.058874
36.89 	0.056347 	4916 	0.055155
36.91 	0.057276 	4941 	0.056683
36.93 	0.059026 	4930 	0.058313
36.95 	0.053517 	4933 	0.052923
36.97 	0.056546 	4934 	0.055953
36.99 	0.060790 	4935 	0.059841
37.01 	0.058585 	4933 	0.057754
37.03 	0.059504 	4924 	0.058077
37.05 	0.064948 	4927 	0.064116
37.07 	0.057953 	4935 	0.056766
37.09 	0.056412 	4928 	0.055699
37.11 	0.053901 	4935 	0.052951
37.13 	0.059708 	4924 	0.058518
37.15 	0.062334 	4909 	0.060903
37.17 	0.052696 	4934 	0.052221
37.19 	0.059289 	4925 	0.058814
37.21 	0.065487 	4917 	0.064415
37.23 	0.060797 	4918 	0.060321
37.25 	0.058847 	4911 	0.057655
37.27 	0.058439 	4894 	0.057601
37.29 	0.060041 	4930 	0.058496
37.31 	0.059574 	4935 	0.057399
37.33 	0.053582 	4927 	0.052988
37.35 	0.057108 	4938 	0.056377
37.37 	0.058047 	4927 	0.057334
37.39 	0.058609 	4931 	0.057896
37.41 	0.067329 	4931 	0.066240
37.43 	0.057989 	4932 	0.056801
37.45 	0.060317 	4924 	0.058889
37.47 	0.058430 	4929 	0.057598
37.49 	0.057892 	4923 	0.057297
37.51 	0.055747 	4933 	0.054797
37.53 	0.063631 	4919 	0.062063
37.55 	0.058418 	4930 	0.057824
37.57 	0.056041 	4925 	0.055446
37.59 	0.054934 	4915 	0.054219
37.61 	0.057903 	4922 	0.056713
37.63 	0.059362 	4919 	0.058766
37.65 	0.050834 	4918 	0.050357
37.67 	0.061582 	4904 	0.060607
37.69 	0.056145 	4898 	0.056026
37.71 	0.062690 	4929 	0.061621
37.73 	0.061879 	4929 	0.060928
37.75 	0.058907 	4940 	0.057958
37.77 	0.057317 	4920 	0.056722
37.79 	0.063286 	4930 	0.061860
37.81 	0.058788 	4933 	0.056769
37.83 	0.056504 	4920 	0.055909
37.85 	0.056684 	4922 	0.055970
37.87 	0.057704 	4939 	0.056755
37.89 	0.057056 	4925 	0.056342
37.91 	0.058621 	4930 	0.057789
37.93 	0.057329 	4919 	0.056376
37.95 	0.057712 	4921 	0.056998
37.97 	0.053561 	4929 	0.052729
37.99 	0.057003 	4912 	0.056049
38.01 	0.056209 	4928 	0.055358
38.03 	0.058057 	4909 	0.057579
38.05 	0.061117 	4925 	0.060641
38.07 	0.056223 	4909 	0.055269
38.09 	0.055146 	4878 	0.054285
38.11 	0.052482 	4935 	0.051295
38.13 	0.067450 	4937 	0.065621
38.15 	0.056324 	4918 	0.055013
38.17 	0.064503 	4930 	0.063315
38.19 	0.062677 	4930 	0.061727
38.21 	0.067235 	4923 	0.066046
38.23 	0.071486 	4938 	0.069944
38.25 	0.074436 	4917 	0.072867
38.27 	0.067546 	4930 	0.067189
38.29 	0.068440 	4924 	0.066874
38.31 	0.076314 	4927 	0.074887
38.33 	0.078595 	4924 	0.077405
38.35 	0.081981 	4928 	0.079841
38.37 	0.077782 	4924 	0.075264
38.39 	0.081076 	4909 	0.080121
38.41 	0.082267 	4923 	0.080363
38.43 	0.080146 	4916 	0.078240
38.45 	0.077267 	4918 	0.075600
38.47 	0.078663 	4907 	0.077350
38.49 	0.085708 	4877 	0.083527
38.51 	0.085969 	4932 	0.084306
38.53 	0.078515 	4929 	0.077426
38.55 	0.081037 	4936 	0.078901
38.57 	0.073532 	4923 	0.071986
38.59 	0.078595 	4924 	0.076910
38.61 	0.079214 	4936 	0.076840
38.63 	0.079407 	4924 	0.077623
38.65 	0.069947 	4918 	0.068518
38.67 	0.067652 	4937 	0.066941
38.69 	0.061764 	4922 	0.059978
38.71 	0.065191 	4924 	0.064596
38.73 	0.067304 	4918 	0.065636
38.75 	0.064948 	4927 	0.063759
38.77 	0.053220 	4923 	0.052030
38.79 	0.058573 	4934 	0.056792
38.81 	0.055578 	4912 	0.054624
38.83 	0.058142 	4919 	0.057427
38.85 	0.052524 	4912 	0.052286
38.87 	0.044797 	4911 	0.044320
38.89 	0.053911 	4897 	0.052475
38.91 	0.052417 	4903 	0.051820
38.93 	0.047590 	4938 	0.047116
38.95 	0.050224 	4918 	0.049132
38.97 	0.046644 	4931 	0.046030
38.99 	0.049018 	4937 	0.048424
39.01 	0.045140 	4918 	0.044783
39.03 	0.046210 	4934 	0.045735
39.05 	0.047716 	4925 	0.047002
39.07 	0.042851 	4924 	0.042494
39.09 	0.050579 	4923 	0.049270
39.11 	0.051714 	4931 	0.051357
39.13 	0.048548 	4923 	0.047953
39.15 	0.049440 	4915 	0.048487
39.17 	0.051448 	4937 	0.051092
39.19 	0.055318 	4917 	0.054584
39.21 	0.045418 	4910 	0.044821
39.23 	0.049949 	4925 	0.049711
39.25 	0.041447 	4922 	0.040732
39.27 	0.046232 	4910 	0.045397
39.29 	0.045093 	4901 	0.044615
39.31 	0.047502 	4884 	0.047022
39.33 	0.043196 	4931 	0.042721
39.35 	0.043161 	4935 	0.042330
39.37 	0.044634 	4929 	0.044040
39.39 	0.043011 	4929 	0.042278
39.41 	0.040763 	4931 	0.040644
39.43 	0.043787 	4933 	0.043193
39.45 	0.041827 	4925 	0.041352
39.47 	0.045501 	4923 	0.045144
39.49 	0.041760 	4933 	0.041403
39.51 	0.040820 	4924 	0.040464
39.53 	0.040626 	4923 	0.040507
39.55 	0.042285 	4919 	0.041690
39.57 	0.043989 	4933 	0.043871
39.59 	0.045195 	4912 	0.044599
39.61 	0.040626 	4923 	0.040507
39.63 	0.045104 	4922 	0.044628
39.65 	0.044864 	4926 	0.044032
39.67 	0.050885 	4913 	0.050170
39.69 	0.047600 	4916 	0.046646
39.71 	0.042901 	4895 	0.042403
39.73 	0.043602 	4908 	0.043244
39.75 	0.042005 	4928 	0.041411
39.77 	0.042958 	4935 	0.042484
39.79 	0.042022 	4926 	0.041427
39.81 	0.048711 	4927 	0.047622
39.83 	0.044589 	4934 	0.044114
39.85 	0.042013 	4927 	0.041657
39.87 	0.047716 	4925 	0.047478
39.89 	0.043778 	4934 	0.043422
39.91 	0.045510 	4922 	0.044796
39.93 	0.046992 	4937 	0.046043
39.95 	0.045371 	4915 	0.044656
39.97 	0.043831 	4928 	0.043712
39.99 	0.045012 	4932 	0.044418
40.01 	0.041480 	4918 	0.041004
40.03 	0.043831 	4928 	0.043593
40.05 	0.045760 	4917 	0.045402
40.07 	0.037376 	4923 	0.036781
40.09 	0.043938 	4916 	0.043342
40.11 	0.043124 	4916 	0.042767
40.13 	0.043301 	4896 	0.043061
40.15 	0.041522 	4913 	0.040926
40.17 	0.047484 	4928 	0.046652
40.19 	0.041996 	4929 	0.041283
40.21 	0.045795 	4935 	0.045439
40.23 	0.047851 	4932 	0.047019
40.25 	0.041870 	4920 	0.041275
40.27 	0.044764 	4937 	0.044645
40.29 	0.042216 	4927 	0.041860
40.31 	0.039279 	4939 	0.038923
40.33 	0.042579 	4932 	0.042104
40.35 	0.043301 	4919 	0.042706
40.37 	0.045648 	4929 	0.044816
40.39 	0.039546 	4931 	0.038576
40.41 	0.042234 	4925 	0.041758
40.43 	0.041243 	4922 	0.040172
40.45 	0.046625 	4933 	0.045675
40.47 	0.039854 	4918 	0.039238
40.49 	0.042428 	4926 	0.041952
40.51 	0.038602 	4922 	0.038483
40.53 	0.040887 	4916 	0.040172
40.55 	0.039527 	4908 	0.039289
40.57 	0.045603 	4890 	0.044885
40.59 	0.039903 	4937 	0.039784
40.61 	0.042553 	4935 	0.041960
40.63 	0.044219 	4930 	0.043625
40.65 	0.042536 	4937 	0.041943
40.67 	0.045620 	4932 	0.045264
40.69 	0.042333 	4937 	0.041859
40.71 	0.044201 	4932 	0.043370
40.73 	0.038977 	4926 	0.038382
40.75 	0.045021 	4931 	0.044427
40.77 	0.040494 	4939 	0.040257
40.79 	0.045085 	4924 	0.044609
40.81 	0.040073 	4941 	0.039362
40.83 	0.044440 	4928 	0.043608
40.85 	0.041024 	4924 	0.040548
40.87 	0.045049 	4928 	0.044692
40.89 	0.040357 	4931 	0.039882
40.91 	0.043876 	4923 	0.043638
40.93 	0.035874 	4934 	0.035755
40.95 	0.047018 	4913 	0.046899
40.97 	0.041430 	4924 	0.041073
40.99 	0.041633 	4924 	0.041276
41.01 	0.037663 	4912 	0.037424
41.03 	0.041998 	4905 	0.041401
41.05 	0.045178 	4936 	0.044466
41.07 	0.040162 	4930 	0.039331
41.09 	0.043531 	4939 	0.043057
41.11 	0.039311 	4935 	0.038718
41.13 	0.043963 	4936 	0.042895
41.15 	0.039668 	4941 	0.039075
41.17 	0.040738 	4934 	0.040500
41.19 	0.039959 	4930 	0.039247
41.21 	0.043954 	4937 	0.043005
41.23 	0.042316 	4939 	0.042198
41.25 	0.040543 	4933 	0.039712
41.27 	0.045427 	4931 	0.044595
41.29 	0.042411 	4928 	0.041816
41.31 	0.044598 	4933 	0.044004
41.33 	0.040713 	4937 	0.040001
41.35 	0.040907 	4938 	0.040314
41.37 	0.043461 	4924 	0.043342
41.39 	0.040949 	4933 	0.040474
41.41 	0.041210 	4926 	0.040853
41.43 	0.046257 	4929 	0.046019
41.45 	0.043956 	4914 	0.043241
41.47 	0.040195 	4926 	0.039957
41.49 	0.040065 	4892 	0.039946
41.51 	0.043725 	4940 	0.043013
41.53 	0.046117 	4944 	0.045406
41.55 	0.042553 	4935 	0.041960
41.57 	0.037239 	4941 	0.037002
41.59 	0.042570 	4933 	0.042214
41.61 	0.048052 	4953 	0.047342
41.63 	0.035844 	4938 	0.035133
41.65 	0.039968 	4929 	0.039730
41.67 	0.035020 	4940 	0.034427
41.69 	0.039418 	4947 	0.038234
41.71 	0.039116 	4934 	0.038641
41.73 	0.039911 	4936 	0.038605
41.75 	0.045242 	4929 	0.044767
41.77 	0.040275 	4941 	0.040275
41.79 	0.034790 	4944 	0.034671
41.81 	0.035251 	4936 	0.034895
41.83 	0.037744 	4928 	0.037387
41.85 	0.037255 	4939 	0.036306
41.87 	0.041135 	4935 	0.040897
41.89 	0.041962 	4933 	0.041606
41.91 	0.047002 	4936 	0.046527
41.93 	0.038929 	4932 	0.038454
41.95 	0.038532 	4931 	0.037938
41.97 	0.043956 	4914 	0.043598
41.99 	0.038532 	4905 	0.038174
42.01 	0.042291 	4942 	0.041698
42.03 	0.038469 	4939 	0.038114
42.05 	0.036349 	4952 	0.035994
42.07 	0.042739 	4937 	0.042383
42.09 	0.036783 	4948 	0.036427
42.11 	0.043074 	4945 	0.042718
42.13 	0.044894 	4945 	0.044420
42.15 	0.041110 	4938 	0.040873
42.17 	0.035177 	4918 	0.034820
42.19 	0.035656 	4908 	0.035298
42.21 	0.034279 	4901 	0.034040
42.23 	0.040474 	4892 	0.039377
42.25 	0.035999 	4889 	0.035640
42.27 	0.039393 	4874 	0.038431
42.29 	0.037631 	4863 	0.037511
42.31 	0.035633 	4855 	0.035392
42.33 	0.039305 	4834 	0.038820
42.35 	0.040099 	4838 	0.039736
42.37 	0.036232 	4830 	0.035989
42.39 	0.040591 	4804 	0.040347
42.41 	0.039759 	4804 	0.038783
42.43 	0.037145 	4792 	0.036656
42.45 	0.035804 	4776 	0.035436
42.47 	0.043442 	4765 	0.042704
42.49 	0.035257 	4765 	0.034888
42.51 	0.037740 	4743 	0.037246
42.53 	0.038494 	4728 	0.038122
42.55 	0.039720 	4708 	0.039222
42.57 	0.039112 	4730 	0.038617
42.59 	0.033411 	4729 	0.032915
42.61 	0.038658 	4708 	0.038409
42.63 	0.035676 	4709 	0.035552
42.65 	0.042689 	4685 	0.042189
42.67 	0.039283 	4684 	0.038887
42.69 	0.034446 	4674 	0.033945
42.71 	0.037958 	4663 	0.037582
42.73 	0.035776 	4640 	0.035650
42.75 	0.035737 	4617 	0.035230
42.77 	0.039565 	4600 	0.039438
42.79 	0.042340 	4582 	0.041700
42.81 	0.040114 	4562 	0.039472
42.83 	0.038580 	4536 	0.038064
42.85 	0.037986 	4528 	0.037727
42.87 	0.040009 	4499 	0.039748
42.89 	0.040402 	4480 	0.040140
42.91 	0.039946 	4456 	0.039683
42.93 	0.040711 	4446 	0.040184
42.95 	0.037364 	4416 	0.037364
42.97 	0.042945 	4401 	0.042146
42.99 	0.037856 	4385 	0.037723
43.01 	0.035526 	4363 	0.035257
43.03 	0.040619 	4333 	0.040348
43.05 	0.036763 	4325 	0.036763
43.07 	0.035382 	4296 	0.035382
43.09 	0.039692 	4283 	0.039555
43.11 	0.036428 	4255 	0.036428
43.13 	0.040831 	4237 	0.040278
43.15 	0.039943 	4206 	0.039247
43.17 	0.034458 	4179 	0.034037
43.19 	0.037673 	4194 	0.037394
43.21 	0.038351 	4172 	0.038211
43.23 	0.036832 	4154 	0.035986
43.25 	0.034825 	4135 	0.034541
43.27 	0.036297 	4105 	0.036012
43.29 	0.036341 	4100 	0.036199
43.31 	0.037509 	4079 	0.036935
43.33 	0.033078 	4051 	0.032500
43.35 	0.037698 	4032 	0.037117
43.37 	0.044832 	4015 	0.043373
43.39 	0.036482 	4002 	0.036043
43.41 	0.034491 	3972 	0.034344
43.43 	0.030303 	3960 	0.030007
43.45 	0.037865 	3935 	0.037270
43.47 	0.038766 	3921 	0.038616
43.49 	0.040287 	3897 	0.040137
43.51 	0.043848 	3877 	0.043395
43.53 	0.038571 	3863 	0.038268
43.55 	0.041835 	2964 	0.041242
43.57 	0.029937 	2238 	0.029414
43.59 	0.036082 	1746 	0.036082
43.61 	0.036269 	1351 	0.036269
43.63 	0.031968 	1001 	0.030798
43.65 	0.032023 	687 	0.032023
43.67 	0.045817 	502 	0.045817
43.69 	0.032698 	367 	0.032698
43.71 	0.046025 	239 	0.046025
43.73 	0.016667 	120 	0.016667
43.75 	0.000000 	16 	0.000000