File: Example_Data/25SC_s1_0022.004.dat
#F C:\frames\spec\25SC_s1_0022.004
#C title =s:22 frm:4 25SC_s1
#C wavelength =0.15406

#S 1  fr_average C:\frames\spec\25SC_s1_0022.004 C:\win32app\speccom\mask.axs chi 0 180 0 360 0.02
#C 2 theta =0.000000 to 180 deg
#C   q   =0.000000 to 81.568 nm^-1
#C  chi  =0.000000 to 360 deg
#C collumns:
#C  1 position (2theta or chi in degrees)
#C  2 average intensity (sum of all counts in the region divided with number of pixels)
#C  3 Number of pixels in region)
#C  4 error (sum of sqrt(intensity) for all pixels divided by number)
#N 4
#L TTh  Int  N_pix  Err
32.99 	0.065574 	61 	0.065574
33.01 	0.079038 	873 	0.077696
33.03 	0.054637 	1391 	0.054216
33.05 	0.060330 	1757 	0.057608
33.07 	0.054146 	2050 	0.053003
33.09 	0.063911 	2347 	0.062414
33.11 	0.061264 	2579 	0.060356
33.13 	0.068743 	2793 	0.066611
33.15 	0.056352 	2999 	0.056157
33.17 	0.059669 	3201 	0.058571
33.19 	0.054458 	3342 	0.053757
33.21 	0.061118 	3436 	0.059044
33.23 	0.059324 	3523 	0.058161
33.25 	0.063953 	3612 	0.062980
33.27 	0.058953 	3630 	0.058469
33.29 	0.060855 	3648 	0.059731
33.31 	0.066667 	3660 	0.065066
33.33 	0.062127 	3686 	0.060856
33.35 	0.059015 	3694 	0.058539
33.37 	0.056274 	3714 	0.055485
33.39 	0.056852 	3729 	0.056223
33.41 	0.062032 	3740 	0.060622
33.43 	0.053975 	3761 	0.053352
33.45 	0.062285 	3773 	0.060422
33.47 	0.057925 	3798 	0.057154
33.49 	0.062484 	3809 	0.062022
33.51 	0.053997 	3815 	0.053383
33.53 	0.054413 	3841 	0.053803
33.55 	0.055165 	3843 	0.054251
33.57 	0.067062 	3877 	0.066307
33.59 	0.057990 	3880 	0.056480
33.61 	0.063955 	3909 	0.062906
33.63 	0.060475 	3919 	0.059727
33.65 	0.061308 	3931 	0.060711
33.67 	0.060445 	3954 	0.059087
33.69 	0.059701 	3953 	0.058664
33.71 	0.055346 	3975 	0.055199
33.73 	0.063187 	4004 	0.061870
33.75 	0.055014 	3999 	0.053988
33.77 	0.063851 	4025 	0.062978
33.79 	0.063351 	4041 	0.062626
33.81 	0.060674 	4038 	0.058498
33.83 	0.064444 	4050 	0.062564
33.85 	0.063186 	4099 	0.061900
33.87 	0.066650 	4111 	0.065487
33.89 	0.057025 	4121 	0.056030
33.91 	0.054230 	4149 	0.052677
33.93 	0.059504 	4151 	0.058657
33.95 	0.056446 	4181 	0.055885
33.97 	0.055847 	4190 	0.055148
33.99 	0.056429 	4200 	0.055313
34.01 	0.059815 	4213 	0.058981
34.03 	0.058907 	4244 	0.058217
34.05 	0.062559 	4252 	0.060722
34.07 	0.062090 	4268 	0.060443
34.09 	0.059263 	4286 	0.058443
34.11 	0.056718 	4302 	0.055628
34.13 	0.062906 	4308 	0.061546
34.15 	0.064650 	4331 	0.063568
34.17 	0.065517 	4350 	0.064709
34.19 	0.057084 	4362 	0.055663
34.21 	0.065202 	4371 	0.064398
34.23 	0.060779 	4393 	0.059712
34.25 	0.058583 	4404 	0.057785
34.27 	0.068069 	4422 	0.066612
34.29 	0.064262 	4435 	0.063205
34.31 	0.055630 	4458 	0.054054
34.33 	0.063297 	4471 	0.061856
34.35 	0.057538 	4484 	0.056156
34.37 	0.059675 	4491 	0.058501
34.39 	0.056864 	4502 	0.055562
34.41 	0.057888 	4526 	0.056335
34.43 	0.061688 	4539 	0.060655
34.45 	0.060639 	4535 	0.059606
34.47 	0.061629 	4592 	0.060608
34.49 	0.063085 	4597 	0.062320
34.51 	0.057099 	4606 	0.056061
34.53 	0.064829 	4643 	0.063946
34.55 	0.059014 	4643 	0.057857
34.57 	0.060730 	4660 	0.059850
34.59 	0.063316 	4675 	0.061415
34.61 	0.060890 	4697 	0.060266
34.63 	0.054777 	4710 	0.053658
34.65 	0.058674 	4721 	0.057309
34.67 	0.059903 	4741 	0.059388
34.69 	0.060370 	4754 	0.060124
34.71 	0.061687 	4766 	0.060458
34.73 	0.062043 	4787 	0.061064
34.75 	0.056572 	4808 	0.056085
34.77 	0.054379 	4818 	0.054015
34.79 	0.061360 	4824 	0.060267
34.81 	0.060062 	4845 	0.059095
34.83 	0.060675 	4862 	0.059470
34.85 	0.064490 	4869 	0.063146
34.87 	0.055464 	4868 	0.054622
34.89 	0.062679 	4882 	0.061220
34.91 	0.060426 	4882 	0.059226
34.93 	0.053889 	4899 	0.053171
34.95 	0.061963 	4890 	0.060765
34.97 	0.055080 	4902 	0.054243
34.99 	0.059424 	4897 	0.058348
35.01 	0.062360 	4923 	0.061527
35.03 	0.056443 	4943 	0.055614
35.05 	0.060441 	4947 	0.059493
35.07 	0.057692 	4940 	0.056862
35.09 	0.056935 	4953 	0.055634
35.11 	0.054983 	4947 	0.053325
35.13 	0.062122 	4958 	0.061058
35.15 	0.056309 	4937 	0.054748
35.17 	0.059644 	4946 	0.058815
35.19 	0.058883 	4942 	0.057816
35.21 	0.060465 	4945 	0.059517
35.23 	0.058443 	4945 	0.057495
35.25 	0.060894 	4943 	0.060302
35.27 	0.057599 	4948 	0.057007
35.29 	0.049545 	4945 	0.048716
35.31 	0.053314 	4933 	0.052008
35.33 	0.059276 	4943 	0.058209
35.35 	0.065561 	4942 	0.064494
35.37 	0.055679 	4939 	0.054730
35.39 	0.064105 	4945 	0.063394
35.41 	0.056435 	4926 	0.055960
35.43 	0.053720 	4933 	0.052889
35.45 	0.057727 	4937 	0.057233
35.47 	0.058406 	4931 	0.057693
35.49 	0.059267 	4910 	0.057477
35.51 	0.058465 	4926 	0.056900
35.53 	0.061224 	4949 	0.059331
35.55 	0.055207 	4945 	0.054141
35.57 	0.062234 	4933 	0.060334
35.59 	0.061881 	4945 	0.060539
35.61 	0.057062 	4942 	0.056114
35.63 	0.063120 	4943 	0.061934
35.65 	0.059858 	4945 	0.058792
35.67 	0.059288 	4942 	0.057984
35.69 	0.053376 	4946 	0.052784
35.71 	0.061778 	4937 	0.060216
35.73 	0.058144 	4936 	0.056701
35.75 	0.061854 	4931 	0.060903
35.77 	0.057766 	4951 	0.056228
35.79 	0.054947 	4932 	0.054235
35.81 	0.055342 	4933 	0.053917
35.83 	0.062070 	4946 	0.060412
35.85 	0.063830 	4935 	0.062524
35.87 	0.055454 	4923 	0.054502
35.89 	0.065261 	4934 	0.064292
35.91 	0.058453 	4927 	0.057859
35.93 	0.055003 	4927 	0.053814
35.95 	0.056742 	4917 	0.056027
35.97 	0.051099 	4912 	0.050622
35.99 	0.058919 	4939 	0.057970
36.01 	0.055578 	4930 	0.054984
36.03 	0.057253 	4943 	0.055693
36.05 	0.065116 	4945 	0.063102
36.07 	0.054262 	4939 	0.053550
36.09 	0.060121 	4940 	0.058936
36.11 	0.054778 	4929 	0.053708
36.13 	0.056455 	4942 	0.054894
36.15 	0.063373 	4939 	0.061950
36.17 	0.053807 	4925 	0.052975
36.19 	0.057895 	4940 	0.057302
36.21 	0.060256 	4929 	0.059186
36.23 	0.058967 	4935 	0.057384
36.25 	0.059705 	4941 	0.058361
36.27 	0.057462 	4925 	0.055896
36.29 	0.062056 	4931 	0.061344
36.31 	0.059253 	4928 	0.058778
36.33 	0.056963 	4933 	0.055657
36.35 	0.061270 	4929 	0.059963
36.37 	0.055048 	4923 	0.053620
36.39 	0.056086 	4921 	0.055729
36.41 	0.061479 	4896 	0.059923
36.43 	0.052557 	4928 	0.052319
36.45 	0.060446 	4930 	0.059615
36.47 	0.060373 	4936 	0.059423
36.49 	0.059692 	4942 	0.058251
36.51 	0.053720 	4933 	0.053245
36.53 	0.057657 	4943 	0.055604
36.55 	0.056830 	4927 	0.055522
36.57 	0.050872 	4934 	0.050278
36.59 	0.056084 	4939 	0.055373
36.61 	0.064490 	4931 	0.063540
36.63 	0.059623 	4931 	0.058296
36.65 	0.057989 	4932 	0.057395
36.67 	0.054564 	4930 	0.053495
36.69 	0.059038 	4929 	0.058325
36.71 	0.059134 	4921 	0.057468
36.73 	0.054416 	4925 	0.053227
36.75 	0.056837 	4944 	0.055533
36.77 	0.053466 	4919 	0.052633
36.79 	0.054664 	4921 	0.054307
36.81 	0.046583 	4916 	0.046106
36.83 	0.050254 	4915 	0.050016
36.85 	0.054716 	4898 	0.054118
36.87 	0.057039 	4944 	0.056091
36.89 	0.057160 	4916 	0.055572
36.91 	0.056264 	4941 	0.055908
36.93 	0.054158 	4930 	0.053326
36.95 	0.053314 	4933 	0.052364
36.97 	0.056141 	4934 	0.054954
36.99 	0.056535 	4935 	0.055348
37.01 	0.050882 	4933 	0.050526
37.03 	0.051584 	4924 	0.051108
37.05 	0.054394 	4927 	0.052967
37.07 	0.055522 	4935 	0.054909
37.09 	0.050933 	4928 	0.050339
37.11 	0.053090 	4935 	0.052141
37.13 	0.056255 	4924 	0.055046
37.15 	0.049705 	4909 	0.048989
37.17 	0.054317 	4934 	0.053248
37.19 	0.057462 	4925 	0.056391
37.21 	0.050437 	4917 	0.049246
37.23 	0.054494 	4918 	0.053541
37.25 	0.061291 	4911 	0.059740
37.27 	0.056396 	4894 	0.055199
37.29 	0.053347 	4930 	0.052634
37.31 	0.061196 	4935 	0.060127
37.33 	0.051350 	4927 	0.050517
37.35 	0.057716 	4938 	0.056411
37.37 	0.051350 	4927 	0.050399
37.39 	0.052322 	4931 	0.051728
37.41 	0.049686 	4931 	0.048597
37.43 	0.056367 	4932 	0.055891
37.45 	0.054427 	4924 	0.054070
37.47 	0.056807 	4929 	0.055618
37.49 	0.054845 	4923 	0.054488
37.51 	0.053720 	4933 	0.052770
37.53 	0.056922 	4919 	0.056089
37.55 	0.057201 	4930 	0.056488
37.57 	0.053401 	4925 	0.052806
37.59 	0.051272 	4915 	0.050299
37.61 	0.053230 	4922 	0.052397
37.63 	0.053263 	4919 	0.052548
37.65 	0.059577 	4918 	0.058267
37.67 	0.052610 	4904 	0.051535
37.69 	0.056145 	4898 	0.055308
37.71 	0.051126 	4929 	0.050294
37.73 	0.050923 	4929 	0.049953
37.75 	0.056883 	4940 	0.055934
37.77 	0.057520 	4920 	0.057044
37.79 	0.053550 	4930 	0.052599
37.81 	0.054328 	4933 	0.053378
37.83 	0.056098 	4920 	0.055621
37.85 	0.051605 	4922 	0.051129
37.87 	0.049605 	4939 	0.048775
37.89 	0.066396 	4925 	0.065325
37.91 	0.052130 	4930 	0.051298
37.93 	0.053669 	4919 	0.052717
37.95 	0.059744 	4921 	0.058435
37.97 	0.052343 	4929 	0.051749
37.99 	0.051710 	4912 	0.050756
38.01 	0.059253 	4928 	0.058302
38.03 	0.054390 	4909 	0.052719
38.05 	0.054416 	4925 	0.053108
38.07 	0.056631 	4909 	0.055437
38.09 	0.058016 	4878 	0.057175
38.11 	0.054914 	4935 	0.054083
38.13 	0.052056 	4937 	0.050869
38.15 	0.052257 	4918 	0.051304
38.17 	0.055578 	4930 	0.054746
38.19 	0.057606 	4930 	0.056181
38.21 	0.059313 	4923 	0.058243
38.23 	0.062981 	4938 	0.061557
38.25 	0.055725 	4917 	0.055010
38.27 	0.063083 	4930 	0.061657
38.29 	0.064379 	4924 	0.063427
38.31 	0.068602 	4927 	0.067532
38.33 	0.065191 	4924 	0.064477
38.35 	0.061485 	4928 	0.060297
38.37 	0.067628 	4924 	0.065724
38.39 	0.072316 	4909 	0.069890
38.41 	0.071704 	4923 	0.070514
38.43 	0.068552 	4916 	0.066745
38.45 	0.065677 	4918 	0.064486
38.47 	0.067047 	4907 	0.065495
38.49 	0.066229 	4877 	0.064648
38.51 	0.069343 	4932 	0.068037
38.53 	0.069994 	4929 	0.068924
38.55 	0.060778 	4936 	0.060185
38.57 	0.063376 	4923 	0.062305
38.59 	0.059301 	4924 	0.057874
38.61 	0.059360 	4936 	0.058529
38.63 	0.059911 	4924 	0.059316
38.65 	0.065677 	4918 	0.065320
38.67 	0.055094 	4937 	0.054738
38.69 	0.063186 	4922 	0.062353
38.71 	0.054021 	4924 	0.052693
38.73 	0.057137 	4918 	0.056303
38.75 	0.057642 	4927 	0.056690
38.77 	0.050782 	4923 	0.049830
38.79 	0.051480 	4934 	0.050411
38.81 	0.054764 	4912 	0.053452
38.83 	0.059768 	4919 	0.059054
38.85 	0.057207 	4912 	0.055637
38.87 	0.051313 	4911 	0.050598
38.89 	0.059833 	4897 	0.058995
38.91 	0.051805 	4903 	0.051088
38.93 	0.055286 	4938 	0.053961
38.95 	0.052867 	4918 	0.052152
38.97 	0.055567 	4931 	0.054478
38.99 	0.054487 	4937 	0.053419
39.01 	0.055510 	4918 	0.054319
39.03 	0.047629 	4934 	0.046916
39.05 	0.053401 	4925 	0.052568
39.07 	0.056864 	4924 	0.056151
39.09 	0.048345 	4923 	0.047750
39.11 	0.048672 	4931 	0.048078
39.13 	0.052610 	4923 	0.052015
39.15 	0.054323 	4915 	0.053728
39.17 	0.050841 	4937 	0.050366
39.19 	0.051658 	4917 	0.050566
39.21 	0.057230 	4910 	0.056753
39.23 	0.053198 	4925 	0.052603
39.25 	0.053637 	4922 	0.053161
39.27 	0.054990 	4910 	0.053916
39.29 	0.050806 	4901 	0.050208
39.31 	0.056716 	4884 	0.055636
39.33 	0.057595 	4931 	0.056882
39.35 	0.052280 	4935 	0.051449
39.37 	0.049503 	4929 	0.049028
39.39 	0.058633 	4929 	0.057781
39.41 	0.056986 	4931 	0.056274
39.43 	0.056963 	4933 	0.056370
39.45 	0.057462 	4925 	0.056629
39.47 	0.053220 	4923 	0.052248
39.49 	0.054733 	4933 	0.053665
39.51 	0.054021 	4924 	0.053069
39.53 	0.052001 	4923 	0.050811
39.55 	0.056516 	4919 	0.055682
39.57 	0.055950 	4933 	0.055237
39.59 	0.053746 	4912 	0.052792
39.61 	0.054641 	4923 	0.053571
39.63 	0.058106 	4922 	0.056916
39.65 	0.056435 	4926 	0.055603
39.67 	0.058620 	4913 	0.056593
39.69 	0.053906 	4916 	0.053429
39.71 	0.050051 	4895 	0.049094
39.73 	0.055216 	4908 	0.054619
39.75 	0.060471 	4928 	0.058925
39.77 	0.054306 	4935 	0.053099
39.79 	0.056029 	4926 	0.054721
39.81 	0.056830 	4927 	0.055760
39.83 	0.056546 	4934 	0.055834
39.85 	0.058859 	4927 	0.057908
39.87 	0.052995 	4925 	0.052638
39.89 	0.056546 	4934 	0.055834
39.91 	0.059732 	4922 	0.058185
39.93 	0.049018 	4937 	0.048068
39.95 	0.060427 	4915 	0.059116
39.97 	0.047890 	4928 	0.047533
39.99 	0.053528 	4932 	0.052578
40.01 	0.055714 	4918 	0.054880
40.03 	0.053774 	4928 	0.053180
40.05 	0.047997 	4917 	0.047520
40.07 	0.058298 	4923 	0.056989
40.09 	0.058788 	4916 	0.057596
40.11 	0.052482 	4916 	0.051171
40.13 	0.049020 	4896 	0.048780
40.15 	0.051903 	4913 	0.050472
40.17 	0.061688 	4928 	0.060737
40.19 	0.054169 	4929 	0.053932
40.21 	0.055522 	4935 	0.055047
40.23 	0.051906 	4932 	0.051193
40.25 	0.053252 	4920 	0.052300
40.27 	0.054892 	4937 	0.054417
40.29 	0.050335 	4927 	0.049503
40.31 	0.056489 	4939 	0.056133
40.33 	0.051906 	4932 	0.050956
40.35 	0.056719 	4919 	0.056362
40.37 	0.051735 	4929 	0.051378
40.39 	0.053742 	4931 	0.053266
40.41 	0.050558 	4925 	0.050202
40.43 	0.052418 	4922 	0.051684
40.45 	0.053720 	4933 	0.052295
40.47 	0.055714 	4918 	0.054999
40.49 	0.056435 	4926 	0.055841
40.51 	0.053434 	4922 	0.052224
40.53 	0.055736 	4916 	0.054783
40.55 	0.047881 	4908 	0.047046
40.57 	0.051534 	4890 	0.050935
40.59 	0.049625 	4937 	0.049151
40.61 	0.057548 	4935 	0.056480
40.63 	0.054158 	4930 	0.053445
40.65 	0.046384 	4937 	0.045297
40.67 	0.048662 	4932 	0.048305
40.69 	0.054892 	4937 	0.053942
40.71 	0.051500 	4932 	0.050550
40.73 	0.049533 	4926 	0.049057
40.75 	0.052525 	4931 	0.051456
40.77 	0.047176 	4939 	0.046444
40.79 	0.047929 	4924 	0.046838
40.81 	0.053633 	4941 	0.052783
40.83 	0.056818 	4928 	0.056343
40.85 	0.058895 	4924 	0.058062
40.87 	0.054586 	4928 	0.053278
40.89 	0.050700 	4931 	0.050581
40.91 	0.052204 	4923 	0.051728
40.93 	0.051885 	4934 	0.051291
40.95 	0.054142 	4913 	0.053307
40.97 	0.053412 	4924 	0.052936
40.99 	0.048335 	4924 	0.047383
41.01 	0.049471 	4912 	0.048874
41.03 	0.054027 	4905 	0.053071
41.05 	0.052066 	4936 	0.051710
41.07 	0.049696 	4930 	0.048983
41.09 	0.056084 	4939 	0.055254
41.11 	0.053698 	4935 	0.052986
41.13 	0.051459 	4936 	0.050035
41.15 	0.047156 	4941 	0.046682
41.17 	0.054317 	4934 	0.053130
41.19 	0.050101 	4930 	0.049032
41.21 	0.046992 	4937 	0.046399
41.23 	0.051832 	4939 	0.051121
41.25 	0.049666 	4933 	0.049309
41.27 	0.047252 	4931 	0.046896
41.29 	0.049310 	4928 	0.048478
41.31 	0.050882 	4933 	0.050169
41.33 	0.056107 	4937 	0.055276
41.35 	0.051438 	4938 	0.050133
41.37 	0.047725 	4924 	0.047250
41.39 	0.046422 	4933 	0.045710
41.41 	0.053999 	4926 	0.053167
41.43 	0.051532 	4929 	0.050700
41.45 	0.049451 	4914 	0.048855
41.47 	0.053390 	4926 	0.052796
41.49 	0.050899 	4892 	0.050301
41.51 	0.051822 	4940 	0.050972
41.53 	0.054612 	4944 	0.053782
41.55 	0.048430 	4935 	0.047717
41.57 	0.057681 	4941 	0.056139
41.59 	0.049666 	4933 	0.049191
41.61 	0.057541 	4953 	0.056575
41.63 	0.050223 	4938 	0.049392
41.65 	0.045648 	4929 	0.045411
41.67 	0.051417 	4940 	0.050212
41.69 	0.048919 	4947 	0.048563
41.71 	0.041751 	4934 	0.041395
41.73 	0.044165 	4936 	0.043572
41.75 	0.053358 	4929 	0.052645
41.77 	0.048573 	4941 	0.048336
41.79 	0.044296 	4944 	0.043467
41.81 	0.049635 	4936 	0.048567
41.83 	0.046469 	4928 	0.045994
41.85 	0.057097 	4939 	0.056741
41.87 	0.048227 	4935 	0.047277
41.89 	0.049666 	4933 	0.049072
41.91 	0.047002 	4936 	0.046507
41.93 	0.046837 	4932 	0.046481
41.95 	0.046238 	4931 	0.045763
41.97 	0.048230 	4914 	0.047157
41.99 	0.046075 	4905 	0.045598
42.01 	0.047956 	4942 	0.047127
42.03 	0.048390 	4939 	0.047797
42.05 	0.048263 	4952 	0.047435
42.07 	0.043954 	4937 	0.043123
42.09 	0.047696 	4948 	0.047341
42.11 	0.045298 	4945 	0.044588
42.13 	0.049343 	4945 	0.048750
42.15 	0.041515 	4938 	0.040922
42.17 	0.049817 	4918 	0.049221
42.19 	0.048492 	4908 	0.047776
42.21 	0.046113 	4901 	0.045396
42.23 	0.048855 	4892 	0.047618
42.25 	0.047863 	4889 	0.047263
42.27 	0.044932 	4874 	0.044692
42.29 	0.051820 	4863 	0.050595
42.31 	0.043048 	4855 	0.042566
42.33 	0.043856 	4834 	0.043129
42.35 	0.045680 	4838 	0.045196
42.37 	0.045756 	4830 	0.045634
42.39 	0.043922 	4804 	0.043312
42.41 	0.050375 	4804 	0.049765
42.43 	0.046119 	4792 	0.045752
42.45 	0.042085 	4776 	0.041227
42.47 	0.046380 	4765 	0.045396
42.49 	0.045331 	4765 	0.044224
42.51 	0.049125 	4743 	0.048137
42.53 	0.049704 	4728 	0.049084
42.55 	0.047579 	4708 	0.046459
42.57 	0.048837 	4730 	0.048094
42.59 	0.046099 	4729 	0.045603
42.61 	0.043755 	4708 	0.043133
42.63 	0.042684 	4709 	0.041938
42.65 	0.045678 	4685 	0.045303
42.67 	0.046328 	4684 	0.045828
42.69 	0.049422 	4674 	0.048545
42.71 	0.040532 	4663 	0.040406
42.73 	0.049138 	4640 	0.047875
42.75 	0.046784 	4617 	0.046022
42.77 	0.051522 	4600 	0.050758
42.79 	0.046923 	4582 	0.046411
42.81 	0.049759 	4562 	0.049117
42.83 	0.048280 	4536 	0.047506
42.85 	0.051678 	4528 	0.051161
42.87 	0.041120 	4499 	0.040860
42.89 	0.047991 	4480 	0.046531
42.91 	0.047576 	4456 	0.047313
42.93 	0.045209 	4446 	0.044023
42.95 	0.046875 	4416 	0.045946
42.97 	0.051352 	4401 	0.050287
42.99 	0.048575 	4385 	0.047907
43.01 	0.049966 	4363 	0.049026
43.03 	0.042234 	4333 	0.041693
43.05 	0.041618 	4325 	0.041212
43.07 	0.050047 	4296 	0.049228
43.09 	0.047630 	4283 	0.047083
43.11 	0.045593 	4255 	0.044630
43.13 	0.046967 	4237 	0.046414
43.15 	0.046600 	4206 	0.045904
43.17 	0.045465 	4179 	0.045045
43.19 	0.045780 	4194 	0.045640
43.21 	0.047220 	4172 	0.046494
43.23 	0.047906 	4154 	0.047201
43.25 	0.050302 	4135 	0.049452
43.27 	0.043118 	4105 	0.042262
43.29 	0.048049 	4100 	0.047168
43.31 	0.046580 	4079 	0.045718
43.33 	0.049617 	4051 	0.048894
43.35 	0.046379 	4032 	0.045943
43.37 	0.056787 	4015 	0.055766
43.39 	0.046977 	4002 	0.046684
43.41 	0.049345 	3972 	0.048313
43.43 	0.048990 	3960 	0.047954
43.45 	0.048285 	3935 	0.048136
43.47 	0.049222 	3921 	0.048475
43.49 	0.050295 	3897 	0.049694
43.51 	0.045138 	3877 	0.044685
43.53 	0.044007 	3863 	0.043704
43.55 	0.051619 	2964 	0.050829
43.57 	0.047811 	2238 	0.047549
43.59 	0.047537 	1746 	0.045860
43.61 	0.044412 	1351 	0.043978
43.63 	0.039960 	1001 	0.039375
43.65 	0.039301 	687 	0.038449
43.67 	0.035857 	502 	0.034690
43.69 	0.029973 	367 	0.029973
43.71 	0.041841 	239 	0.041841
43.73 	0.041667 	120 	0.041667
43.75 	0.000000 	16 	0.000000