File: Example_Data/25SC_s1_0044.003.dat
#F C:\frames\spec\25SC_s1_0044.003
#C title =s:44 frm:3 25SC_s1
#C wavelength =0.15406

#S 1  fr_average C:\frames\spec\25SC_s1_0044.003 C:\win32app\speccom\mask.axs chi 0 180 0 360 0.02
#C 2 theta =0.000000 to 180 deg
#C   q   =0.000000 to 81.568 nm^-1
#C  chi  =0.000000 to 360 deg
#C collumns:
#C  1 position (2theta or chi in degrees)
#C  2 average intensity (sum of all counts in the region divided with number of pixels)
#C  3 Number of pixels in region)
#C  4 error (sum of sqrt(intensity) for all pixels divided by number)
#N 4
#L TTh  Int  N_pix  Err
32.99 	0.114754 	61 	0.114754
33.01 	0.054983 	873 	0.052970
33.03 	0.064702 	1391 	0.063859
33.05 	0.058623 	1757 	0.056956
33.07 	0.058049 	2050 	0.056620
33.09 	0.060929 	2347 	0.059431
33.11 	0.060101 	2579 	0.058965
33.13 	0.070175 	2793 	0.068917
33.15 	0.063021 	2999 	0.062044
33.17 	0.060606 	3201 	0.059691
33.19 	0.056852 	3342 	0.055801
33.21 	0.057625 	3436 	0.056773
33.23 	0.053364 	3523 	0.052865
33.25 	0.058970 	3612 	0.057673
33.27 	0.061157 	3630 	0.060350
33.29 	0.062500 	3648 	0.061028
33.31 	0.066667 	3660 	0.065226
33.33 	0.051818 	3686 	0.050705
33.35 	0.055766 	3694 	0.055290
33.37 	0.061389 	3714 	0.060601
33.39 	0.059533 	3729 	0.058748
33.41 	0.059893 	3740 	0.057857
33.43 	0.060090 	3761 	0.058844
33.45 	0.065200 	3773 	0.063958
33.47 	0.063454 	3798 	0.062066
33.49 	0.060121 	3809 	0.059659
33.51 	0.063696 	3815 	0.063082
33.53 	0.052590 	3841 	0.051675
33.55 	0.055425 	3843 	0.054181
33.57 	0.062677 	3877 	0.061469
33.59 	0.058763 	3880 	0.057253
33.61 	0.061141 	3909 	0.060542
33.63 	0.066599 	3919 	0.065229
33.65 	0.052150 	3931 	0.051255
33.67 	0.061204 	3954 	0.060167
33.69 	0.058690 	3953 	0.058245
33.71 	0.063899 	3975 	0.062868
33.73 	0.066933 	4004 	0.065031
33.75 	0.054514 	3999 	0.053342
33.77 	0.058634 	4025 	0.057615
33.79 	0.055679 	4041 	0.054954
33.81 	0.060426 	4038 	0.058830
33.83 	0.059259 	4050 	0.058391
33.85 	0.058551 	4099 	0.057075
33.87 	0.055461 	4111 	0.055176
33.89 	0.061150 	4121 	0.060297
33.91 	0.057363 	4149 	0.056940
33.93 	0.062636 	4151 	0.061789
33.95 	0.057881 	4181 	0.056480
33.97 	0.057757 	4190 	0.056359
33.99 	0.054286 	4200 	0.053309
34.01 	0.054830 	4213 	0.053718
34.03 	0.058435 	4244 	0.056365
34.05 	0.055268 	4252 	0.054717
34.07 	0.061621 	4268 	0.059974
34.09 	0.061596 	4286 	0.060366
34.11 	0.067643 	4302 	0.066281
34.13 	0.059424 	4308 	0.058472
34.15 	0.058185 	4331 	0.057103
34.17 	0.055172 	4350 	0.054634
34.19 	0.062357 	4362 	0.061685
34.21 	0.060169 	4371 	0.058807
34.23 	0.050990 	4393 	0.050057
34.25 	0.064487 	4404 	0.063290
34.27 	0.062189 	4422 	0.061129
34.29 	0.056144 	4435 	0.055198
34.31 	0.062360 	4458 	0.061177
34.33 	0.060389 	4471 	0.059996
34.35 	0.058876 	4484 	0.057962
34.37 	0.059675 	4491 	0.058892
34.39 	0.055531 	4502 	0.054490
34.41 	0.057667 	4526 	0.056890
34.43 	0.058383 	4539 	0.057609
34.45 	0.057552 	4535 	0.057036
34.47 	0.056620 	4592 	0.055472
34.49 	0.055688 	4597 	0.054287
34.51 	0.063178 	4606 	0.061907
34.53 	0.060952 	4643 	0.060069
34.55 	0.057506 	4643 	0.056728
34.57 	0.059871 	4660 	0.058866
34.59 	0.055829 	4675 	0.054952
34.61 	0.058548 	4697 	0.057800
34.63 	0.064331 	4710 	0.063212
34.65 	0.060580 	4721 	0.059588
34.67 	0.057794 	4741 	0.057052
34.69 	0.056584 	4754 	0.055578
34.71 	0.057491 	4766 	0.056876
34.73 	0.058910 	4787 	0.058298
34.75 	0.066556 	4808 	0.065561
34.77 	0.052927 	4818 	0.052683
34.79 	0.057629 	4824 	0.056657
34.81 	0.055728 	4845 	0.054881
34.83 	0.056561 	4862 	0.055236
34.85 	0.062230 	4869 	0.060647
34.87 	0.057108 	4868 	0.056125
34.89 	0.058378 	4882 	0.057038
34.91 	0.056329 	4882 	0.055969
34.93 	0.058175 	4899 	0.057099
34.95 	0.063804 	4890 	0.062486
34.97 	0.058956 	4902 	0.058119
34.99 	0.060649 	4897 	0.060051
35.01 	0.061142 	4923 	0.060428
35.03 	0.058669 	4943 	0.057484
35.05 	0.060036 	4947 	0.058260
35.07 	0.054858 	4940 	0.054028
35.09 	0.053503 	4953 	0.052793
35.11 	0.057004 	4947 	0.056294
35.13 	0.053449 	4958 	0.053095
35.15 	0.062994 	4937 	0.061451
35.17 	0.061059 	4946 	0.060448
35.19 	0.054027 	4942 	0.053316
35.21 	0.059050 	4945 	0.057983
35.23 	0.056016 	4945 	0.055068
35.25 	0.055837 	4943 	0.055125
35.27 	0.062247 	4948 	0.061182
35.29 	0.060061 	4945 	0.058995
35.31 	0.051085 	4933 	0.050610
35.33 	0.055837 	4943 	0.055244
35.35 	0.055443 	4942 	0.054139
35.37 	0.059324 	4939 	0.058494
35.39 	0.058443 	4945 	0.057258
35.41 	0.056232 	4926 	0.055519
35.43 	0.057571 	4933 	0.056859
35.45 	0.057930 	4937 	0.057337
35.47 	0.058609 	4931 	0.057421
35.49 	0.058656 	4910 	0.057701
35.51 	0.063946 	4926 	0.062638
35.53 	0.053344 	4949 	0.052141
35.55 	0.055814 	4945 	0.054748
35.57 	0.061626 	4933 	0.060676
35.59 	0.052781 	4945 	0.051833
35.61 	0.054027 	4942 	0.053553
35.63 	0.059883 	4943 	0.058678
35.65 	0.060061 	4945 	0.059231
35.67 	0.053824 	4942 	0.052876
35.69 	0.057825 	4946 	0.057351
35.71 	0.054284 	4937 	0.053078
35.73 	0.057739 	4936 	0.056908
35.75 	0.054553 	4931 	0.053840
35.77 	0.053928 	4951 	0.053219
35.79 	0.059205 	4932 	0.058611
35.81 	0.054733 	4933 	0.053783
35.83 	0.053579 	4946 	0.052868
35.85 	0.056738 	4935 	0.056025
35.87 	0.060126 	4923 	0.059174
35.89 	0.052696 	4934 	0.051865
35.91 	0.059468 	4927 	0.058636
35.93 	0.060280 	4927 	0.059686
35.95 	0.053895 	4917 	0.052922
35.97 	0.054560 	4912 	0.053606
35.99 	0.054464 	4939 	0.053516
36.01 	0.063489 	4930 	0.062657
36.03 	0.056443 	4943 	0.055851
36.05 	0.051972 	4945 	0.051142
36.07 	0.053250 	4939 	0.052064
36.09 	0.057085 	4940 	0.055405
36.11 	0.057010 	4929 	0.056178
36.13 	0.055443 	4942 	0.054850
36.15 	0.059931 	4939 	0.059338
36.17 	0.054416 	4925 	0.053703
36.19 	0.060121 	4940 	0.059054
36.21 	0.049706 	4929 	0.048517
36.23 	0.055927 	4935 	0.055096
36.25 	0.060514 	4941 	0.060040
36.27 	0.059289 	4925 	0.058219
36.29 	0.053742 	4931 	0.052554
36.31 	0.051948 	4928 	0.050878
36.33 	0.055544 	4933 	0.054832
36.35 	0.059647 	4929 	0.058934
36.37 	0.063985 	4923 	0.062914
36.39 	0.054257 	4921 	0.053662
36.41 	0.054943 	4896 	0.053128
36.43 	0.057833 	4928 	0.056625
36.45 	0.052535 	4930 	0.052060
36.47 	0.053687 	4936 	0.052738
36.49 	0.051599 	4942 	0.051243
36.51 	0.059599 	4933 	0.058292
36.53 	0.054218 	4943 	0.052796
36.55 	0.048914 	4927 	0.048082
36.57 	0.054520 	4934 	0.054045
36.59 	0.051832 	4939 	0.051477
36.61 	0.053742 	4931 	0.052910
36.63 	0.055770 	4931 	0.055176
36.65 	0.060827 	4932 	0.058689
36.67 	0.050101 	4930 	0.049270
36.69 	0.051532 	4929 	0.050561
36.71 	0.053648 	4921 	0.052933
36.73 	0.054619 	4925 	0.054025
36.75 	0.050769 	4944 	0.049821
36.77 	0.057939 	4919 	0.057085
36.79 	0.054867 	4921 	0.054391
36.81 	0.054109 	4916 	0.053275
36.83 	0.060020 	4915 	0.058709
36.85 	0.052470 	4898 	0.051992
36.87 	0.055218 	4944 	0.054389
36.89 	0.054109 	4916 	0.052917
36.91 	0.049787 	4941 	0.049076
36.93 	0.053753 	4930 	0.053040
36.95 	0.051490 	4933 	0.050184
36.97 	0.052088 	4934 	0.050900
36.99 	0.057345 	4935 	0.056633
37.01 	0.053112 	4933 	0.052993
37.03 	0.057271 	4924 	0.056418
37.05 	0.048914 	4927 	0.048439
37.07 	0.055117 	4935 	0.053653
37.09 	0.052151 	4928 	0.051675
37.11 	0.058156 	4935 	0.056969
37.13 	0.054833 	4924 	0.054477
37.15 	0.050723 	4909 	0.049530
37.17 	0.051277 	4934 	0.050565
37.19 	0.051371 	4925 	0.050657
37.21 	0.054301 	4917 	0.053587
37.23 	0.058154 	4918 	0.057320
37.25 	0.054368 	4911 	0.053891
37.27 	0.049857 	4894 	0.048660
37.29 	0.059229 	4930 	0.057566
37.31 	0.050861 	4935 	0.050149
37.33 	0.052162 	4927 	0.051567
37.35 	0.052248 	4938 	0.050943
37.37 	0.055815 	4927 	0.055220
37.39 	0.054147 	4931 	0.053078
37.41 	0.053742 	4931 	0.052554
37.43 	0.050284 	4932 	0.049452
37.45 	0.050975 	4924 	0.050618
37.47 	0.057010 	4929 	0.055465
37.49 	0.055454 	4923 	0.054978
37.51 	0.054531 	4933 	0.053818
37.53 	0.056516 	4919 	0.055186
37.55 	0.045436 	4930 	0.045080
37.57 	0.053807 	4925 	0.053093
37.59 	0.047202 	4915 	0.046487
37.61 	0.051808 	4922 	0.050360
37.63 	0.055499 	4919 	0.053931
37.65 	0.050630 	4918 	0.050035
37.67 	0.057300 	4904 	0.056464
37.69 	0.049000 	4898 	0.048162
37.71 	0.054169 	4929 	0.053694
37.73 	0.055589 	4929 	0.054757
37.75 	0.049190 	4940 	0.048360
37.77 	0.055488 	4920 	0.054297
37.79 	0.048479 	4930 	0.047885
37.81 	0.053314 	4933 	0.052701
37.83 	0.050000 	4920 	0.049405
37.85 	0.052418 	4922 	0.051347
37.87 	0.056489 	4939 	0.055659
37.89 	0.046904 	4925 	0.046309
37.91 	0.051724 	4930 	0.051110
37.93 	0.051027 	4919 	0.050312
37.95 	0.055477 	4921 	0.054762
37.97 	0.052140 	4929 	0.051427
37.99 	0.053950 	4912 	0.053115
38.01 	0.053774 	4928 	0.052110
38.03 	0.050519 	4909 	0.049803
38.05 	0.052386 	4925 	0.051434
38.07 	0.048482 	4909 	0.048005
38.09 	0.051456 	4878 	0.050615
38.11 	0.052888 	4935 	0.052413
38.13 	0.052258 	4937 	0.050934
38.15 	0.047784 	4918 	0.047069
38.17 	0.049290 	4930 	0.048696
38.19 	0.052738 	4930 	0.052025
38.21 	0.049563 	4923 	0.048730
38.23 	0.050425 	4938 	0.049595
38.25 	0.055928 	4917 	0.055094
38.27 	0.058418 	4930 	0.057091
38.29 	0.055240 	4924 	0.054526
38.31 	0.056424 	4927 	0.055473
38.33 	0.060926 	4924 	0.059380
38.35 	0.052354 	4928 	0.051284
38.37 	0.053412 	4924 	0.052460
38.39 	0.060501 	4909 	0.059427
38.41 	0.055657 	4923 	0.054805
38.43 	0.056143 	4916 	0.055309
38.45 	0.061610 	4918 	0.060658
38.47 	0.061137 	4907 	0.059824
38.49 	0.057822 	4877 	0.056982
38.51 	0.059002 	4932 	0.057933
38.53 	0.058430 	4929 	0.057717
38.55 	0.061183 	4936 	0.060352
38.57 	0.056876 	4923 	0.056162
38.59 	0.060723 	4924 	0.059395
38.61 	0.066248 	4936 	0.065061
38.63 	0.057271 	4924 	0.056914
38.65 	0.061814 	4918 	0.060742
38.67 	0.059348 	4937 	0.058755
38.69 	0.058716 	4922 	0.057526
38.71 	0.055037 	4924 	0.053966
38.73 	0.058357 	4918 	0.057642
38.75 	0.055206 	4927 	0.054612
38.77 	0.054845 	4923 	0.054131
38.79 	0.050061 	4934 	0.049111
38.81 	0.049267 	4912 	0.048671
38.83 	0.053873 	4919 	0.053158
38.85 	0.048656 	4912 	0.048179
38.87 	0.050092 	4911 	0.049376
38.89 	0.049826 	4897 	0.049228
38.91 	0.048746 	4903 	0.047551
38.93 	0.047388 	4938 	0.046775
38.95 	0.051444 	4918 	0.050848
38.97 	0.048063 	4931 	0.047350
38.99 	0.051448 	4937 	0.050855
39.01 	0.047987 	4918 	0.047153
39.03 	0.050466 	4934 	0.049398
39.05 	0.045076 	4925 	0.044600
39.07 	0.046913 	4924 	0.046437
39.09 	0.052813 	4923 	0.052575
39.11 	0.047455 	4931 	0.046742
39.13 	0.049970 	4923 	0.049494
39.15 	0.051882 	4915 	0.051048
39.17 	0.044156 	4937 	0.043326
39.19 	0.052268 	4917 	0.052029
39.21 	0.054175 	4910 	0.053817
39.23 	0.052995 	4925 	0.052162
39.25 	0.054449 	4922 	0.053854
39.27 	0.038900 	4910 	0.038423
39.29 	0.048153 	4901 	0.047417
39.31 	0.048731 	4884 	0.048011
39.33 	0.050700 	4931 	0.049868
39.35 	0.051266 	4935 	0.050910
39.37 	0.046663 	4929 	0.045950
39.39 	0.046663 	4929 	0.045831
39.41 	0.052930 	4931 	0.052099
39.43 	0.047030 	4933 	0.046555
39.45 	0.048325 	4925 	0.047730
39.47 	0.047329 	4923 	0.046496
39.49 	0.049463 	4933 	0.048632
39.51 	0.048335 	4924 	0.047859
39.53 	0.048141 	4923 	0.048022
39.55 	0.046554 	4919 	0.045959
39.57 	0.045003 	4933 	0.044291
39.59 	0.048046 	4912 	0.047569
39.61 	0.049563 	4923 	0.048968
39.63 	0.044900 	4922 	0.044543
39.65 	0.051766 	4926 	0.051172
39.67 	0.049868 	4913 	0.049152
39.69 	0.048617 	4916 	0.047902
39.71 	0.046578 	4895 	0.045860
39.73 	0.047881 	4908 	0.047284
39.75 	0.051136 	4928 	0.050304
39.77 	0.054306 	4935 	0.053000
39.79 	0.052984 	4926 	0.052390
39.81 	0.049523 	4927 	0.048691
39.83 	0.050872 	4934 	0.050278
39.85 	0.056424 	4927 	0.055710
39.87 	0.045685 	4925 	0.045328
39.89 	0.047021 	4934 	0.046546
39.91 	0.048151 	4922 	0.047437
39.93 	0.044764 	4937 	0.044408
39.95 	0.044151 	4915 	0.043793
39.97 	0.048093 	4928 	0.047479
39.99 	0.051298 	4932 	0.049596
40.01 	0.045750 	4918 	0.045393
40.03 	0.052354 	4928 	0.051997
40.05 	0.045556 	4917 	0.044603
40.07 	0.050782 	4923 	0.049711
40.09 	0.048210 	4916 	0.047495
40.11 	0.044955 	4916 	0.044240
40.13 	0.045343 	4896 	0.044266
40.15 	0.048646 	4913 	0.048289
40.17 	0.045049 	4928 	0.044217
40.19 	0.046460 	4929 	0.045509
40.21 	0.042148 	4935 	0.041436
40.23 	0.042174 	4932 	0.041698
40.25 	0.041260 	4920 	0.040903
40.27 	0.041321 	4937 	0.040352
40.29 	0.045058 	4927 	0.044226
40.31 	0.044138 	4939 	0.043645
40.33 	0.044607 	4932 	0.043538
40.35 	0.046351 	4919 	0.045994
40.37 	0.049909 	4929 	0.049314
40.39 	0.044616 	4931 	0.044022
40.41 	0.047716 	4925 	0.047002
40.43 	0.041853 	4922 	0.040881
40.45 	0.047841 	4933 	0.046772
40.47 	0.047580 	4918 	0.046627
40.49 	0.044255 	4926 	0.043541
40.51 	0.045510 	4922 	0.044915
40.53 	0.045566 	4916 	0.045089
40.55 	0.045436 	4908 	0.044959
40.57 	0.041309 	4890 	0.040231
40.59 	0.042131 	4937 	0.041538
40.61 	0.041337 	4935 	0.040863
40.63 	0.048884 	4930 	0.048171
40.65 	0.041928 	4937 	0.041335
40.67 	0.042782 	4932 	0.041832
40.69 	0.045169 	4937 	0.044695
40.71 	0.047040 	4932 	0.046565
40.73 	0.043037 	4926 	0.043037
40.75 	0.048874 	4931 	0.048162
40.77 	0.044138 	4939 	0.043783
40.79 	0.047522 	4924 	0.047284
40.81 	0.044121 	4941 	0.043172
40.83 	0.049310 	4928 	0.048835
40.85 	0.044679 	4924 	0.043846
40.87 	0.044643 	4928 	0.043930
40.89 	0.046441 	4931 	0.045966
40.91 	0.042657 	4923 	0.042181
40.93 	0.049047 	4934 	0.048454
40.95 	0.052921 	4913 	0.051947
40.97 	0.042242 	4924 	0.041647
40.99 	0.047522 	4924 	0.047522
41.01 	0.043160 	4912 	0.043040
41.03 	0.047910 	4905 	0.047313
41.05 	0.042950 	4936 	0.042475
41.07 	0.036105 	4930 	0.035511
41.09 	0.043531 	4939 	0.043294
41.11 	0.042958 	4935 	0.042602
41.13 	0.040316 	4936 	0.039485
41.15 	0.044323 	4941 	0.043730
41.17 	0.042764 	4934 	0.042527
41.19 	0.044422 	4930 	0.043709
41.21 	0.047600 	4937 	0.047125
41.23 	0.042114 	4939 	0.041758
41.25 	0.043584 	4933 	0.042634
41.27 	0.041777 	4931 	0.041539
41.29 	0.048093 	4928 	0.047617
41.31 	0.048044 	4933 	0.047806
41.33 	0.049423 	4937 	0.048592
41.35 	0.040502 	4938 	0.040265
41.37 	0.050772 	4924 	0.050296
41.39 	0.051490 	4933 	0.051134
41.41 	0.042631 	4926 	0.042274
41.43 	0.039968 	4929 	0.039254
41.45 	0.047416 	4914 	0.047058
41.47 	0.043037 	4926 	0.042561
41.49 	0.048242 	4892 	0.047284
41.51 	0.041093 	4940 	0.040619
41.53 	0.042476 	4944 	0.042002
41.55 	0.042148 	4935 	0.041792
41.57 	0.042299 	4941 	0.041351
41.59 	0.042976 	4933 	0.042382
41.61 	0.044619 	4953 	0.044383
41.63 	0.044350 	4938 	0.043737
41.65 	0.045648 	4929 	0.044935
41.67 	0.041700 	4940 	0.040989
41.69 	0.043663 	4947 	0.042834
41.71 	0.043575 	4934 	0.042982
41.73 	0.041126 	4936 	0.040770
41.75 	0.044837 	4929 	0.043529
41.77 	0.041894 	4941 	0.041064
41.79 	0.046926 	4944 	0.046096
41.81 	0.045583 	4936 	0.045109
41.83 	0.043628 	4928 	0.042915
41.85 	0.045758 	4939 	0.045047
41.87 	0.041135 	4935 	0.040660
41.89 	0.043787 	4933 	0.042956
41.91 	0.041329 	4936 	0.041092
41.93 	0.042376 	4932 	0.041901
41.95 	0.042791 	4931 	0.042078
41.97 	0.044363 	4914 	0.043171
41.99 	0.043629 	4905 	0.043032
42.01 	0.045528 	4942 	0.044698
42.03 	0.042114 	4939 	0.041758
42.05 	0.044628 	4952 	0.044155
42.07 	0.036662 	4937 	0.036187
42.09 	0.043048 	4948 	0.041864
42.11 	0.042265 	4945 	0.041791
42.13 	0.047927 	4945 	0.047315
42.15 	0.043742 	4938 	0.043387
42.17 	0.044734 	4918 	0.043900
42.19 	0.048900 	4908 	0.048422
42.21 	0.043461 	4901 	0.042982
42.23 	0.042314 	4892 	0.041835
42.25 	0.038454 	4889 	0.037855
42.27 	0.035700 	4874 	0.035339
42.29 	0.043800 	4863 	0.043680
42.31 	0.044078 	4855 	0.043716
42.33 	0.037857 	4834 	0.037372
42.35 	0.040306 	4838 	0.039943
42.37 	0.040580 	4830 	0.040095
42.39 	0.043297 	4804 	0.042424
42.41 	0.040799 	4804 	0.040677
42.43 	0.044658 	4792 	0.044047
42.45 	0.043970 	4776 	0.043479
42.47 	0.042183 	4765 	0.041568
42.49 	0.041763 	4765 	0.041271
42.51 	0.041746 	4743 	0.040881
42.53 	0.043782 	4728 	0.043162
42.55 	0.045879 	4708 	0.045506
42.57 	0.038055 	4730 	0.037683
42.59 	0.042504 	4729 	0.042008
42.61 	0.045242 	4708 	0.044869
42.63 	0.043958 	4709 	0.043336
42.65 	0.039701 	4685 	0.039326
42.67 	0.037361 	4684 	0.036611
42.69 	0.044501 	4674 	0.044126
42.71 	0.041175 	4663 	0.040798
42.73 	0.038578 	4640 	0.038451
42.75 	0.039636 	4617 	0.039255
42.77 	0.041739 	4600 	0.041102
42.79 	0.039721 	4582 	0.039465
42.81 	0.044717 	4562 	0.043947
42.83 	0.038801 	4536 	0.038672
42.85 	0.041299 	4528 	0.040910
42.87 	0.040453 	4499 	0.039933
42.89 	0.043080 	4480 	0.042427
42.91 	0.042639 	4456 	0.041719
42.93 	0.043635 	4446 	0.043371
42.95 	0.042572 	4416 	0.042307
42.97 	0.035901 	4401 	0.035768
42.99 	0.035348 	4385 	0.034813
43.01 	0.036901 	4363 	0.036498
43.03 	0.044080 	4333 	0.043540
43.05 	0.037688 	4325 	0.037552
43.07 	0.038408 	4296 	0.037999
43.09 	0.041793 	4283 	0.041656
43.11 	0.039718 	4255 	0.038754
43.13 	0.042011 	4237 	0.041320
43.15 	0.040656 	4206 	0.040378
43.17 	0.044030 	4179 	0.043469
43.19 	0.033143 	4194 	0.033143
43.21 	0.041946 	4172 	0.041244
43.23 	0.041406 	4154 	0.040983
43.25 	0.040629 	4135 	0.040345
43.27 	0.041413 	4105 	0.040699
43.29 	0.041707 	4100 	0.041136
43.31 	0.042903 	4079 	0.041754
43.33 	0.044187 	4051 	0.044042
43.35 	0.040427 	4032 	0.039991
43.37 	0.039601 	4015 	0.039456
43.39 	0.040980 	4002 	0.040980
43.41 	0.042296 	3972 	0.041854
43.43 	0.041919 	3960 	0.041475
43.45 	0.039644 	3935 	0.039198
43.47 	0.043866 	3921 	0.043269
43.49 	0.041570 	3897 	0.041420
43.51 	0.042043 	3877 	0.041438
43.53 	0.041419 	3863 	0.040357
43.55 	0.035088 	2964 	0.035088
43.57 	0.037980 	2238 	0.036672
43.59 	0.040664 	1746 	0.040664
43.61 	0.037010 	1351 	0.036576
43.63 	0.030969 	1001 	0.030969
43.65 	0.036390 	687 	0.036390
43.67 	0.031873 	502 	0.029539
43.69 	0.040872 	367 	0.037680
43.71 	0.037657 	239 	0.037657
43.73 	0.000000 	120 	0.000000
43.75 	0.000000 	16 	0.000000