File: Example_Data/25SC_s1_0024.003.dat
#F C:\frames\spec\25SC_s1_0024.003
#C title =s:24 frm:3 25SC_s1
#C wavelength =0.15406

#S 1  fr_average C:\frames\spec\25SC_s1_0024.003 C:\win32app\speccom\mask.axs chi 0 180 0 360 0.02
#C 2 theta =0.000000 to 180 deg
#C   q   =0.000000 to 81.568 nm^-1
#C  chi  =0.000000 to 360 deg
#C collumns:
#C  1 position (2theta or chi in degrees)
#C  2 average intensity (sum of all counts in the region divided with number of pixels)
#C  3 Number of pixels in region)
#C  4 error (sum of sqrt(intensity) for all pixels divided by number)
#N 4
#L TTh  Int  N_pix  Err
32.99 	0.065574 	61 	0.065574
33.01 	0.050401 	873 	0.049730
33.03 	0.058231 	1391 	0.057389
33.05 	0.060899 	1757 	0.060232
33.07 	0.067317 	2050 	0.065556
33.09 	0.058798 	2347 	0.058050
33.11 	0.057774 	2579 	0.056147
33.13 	0.056570 	2793 	0.056151
33.15 	0.058019 	2999 	0.057238
33.17 	0.056545 	3201 	0.055081
33.19 	0.067624 	3342 	0.066397
33.21 	0.059080 	3436 	0.057887
33.23 	0.055351 	3523 	0.054020
33.25 	0.053710 	3612 	0.051899
33.27 	0.061708 	3630 	0.060578
33.29 	0.055099 	3648 	0.054296
33.31 	0.064754 	3660 	0.063447
33.33 	0.062941 	3686 	0.062146
33.35 	0.063346 	3694 	0.062395
33.37 	0.067044 	3714 	0.065940
33.39 	0.057656 	3729 	0.056871
33.41 	0.058021 	3740 	0.057238
33.43 	0.057432 	3761 	0.056497
33.45 	0.059104 	3773 	0.058017
33.47 	0.057662 	3798 	0.056274
33.49 	0.061171 	3809 	0.059633
33.51 	0.070511 	3815 	0.069436
33.53 	0.055975 	3841 	0.054907
33.55 	0.060890 	3843 	0.060255
33.57 	0.055713 	3877 	0.054958
33.59 	0.061340 	3880 	0.060283
33.61 	0.061908 	3909 	0.060560
33.63 	0.061750 	3919 	0.060555
33.65 	0.055965 	3931 	0.054898
33.67 	0.057916 	3954 	0.056855
33.69 	0.064508 	3953 	0.063767
33.71 	0.056101 	3975 	0.055806
33.73 	0.053447 	4004 	0.052715
33.75 	0.057764 	3999 	0.056007
33.77 	0.061118 	4025 	0.059954
33.79 	0.061123 	4041 	0.060109
33.81 	0.060674 	4038 	0.059489
33.83 	0.061728 	4050 	0.060716
33.85 	0.065626 	4099 	0.064340
33.87 	0.059110 	4111 	0.057827
33.89 	0.058238 	4121 	0.057385
33.91 	0.054471 	4149 	0.054330
33.93 	0.066731 	4151 	0.065743
33.95 	0.060512 	4181 	0.058971
33.97 	0.058711 	4190 	0.058152
33.99 	0.056905 	4200 	0.056486
34.01 	0.059815 	4213 	0.058424
34.03 	0.059142 	4244 	0.058590
34.05 	0.061148 	4252 	0.059770
34.07 	0.056232 	4268 	0.055958
34.09 	0.059263 	4286 	0.058147
34.11 	0.058113 	4302 	0.057137
34.13 	0.058728 	4308 	0.058184
34.15 	0.064881 	4331 	0.063664
34.17 	0.065517 	4350 	0.064036
34.19 	0.058459 	4362 	0.057654
34.21 	0.057881 	4371 	0.056787
34.23 	0.059413 	4393 	0.058879
34.25 	0.056994 	4404 	0.056196
34.27 	0.058571 	4422 	0.057643
34.29 	0.065389 	4435 	0.064311
34.31 	0.056752 	4458 	0.055569
34.33 	0.062626 	4471 	0.061447
34.35 	0.053301 	4484 	0.052647
34.37 	0.060120 	4491 	0.059077
34.39 	0.053754 	4502 	0.053494
34.41 	0.061423 	4526 	0.060905
34.43 	0.061908 	4539 	0.060488
34.45 	0.062845 	4535 	0.061424
34.47 	0.056620 	4592 	0.055982
34.49 	0.058516 	4597 	0.058134
34.51 	0.056665 	4606 	0.055521
34.53 	0.056214 	4643 	0.055078
34.55 	0.055568 	4643 	0.054916
34.57 	0.056009 	4660 	0.054626
34.59 	0.056257 	4675 	0.055254
34.61 	0.050671 	4697 	0.049922
34.63 	0.058174 	4710 	0.056682
34.65 	0.051684 	4721 	0.051064
34.67 	0.059270 	4741 	0.058652
34.69 	0.059529 	4754 	0.057681
34.71 	0.052875 	4766 	0.050990
34.73 	0.056194 	4787 	0.054970
34.75 	0.055116 	4808 	0.054264
34.77 	0.056040 	4818 	0.055189
34.79 	0.052239 	4824 	0.051510
34.81 	0.063364 	4845 	0.062034
34.83 	0.063554 	4862 	0.062470
34.85 	0.060382 	4869 	0.060021
34.87 	0.063887 	4868 	0.063044
34.89 	0.061860 	4882 	0.061140
34.91 	0.062474 	4882 	0.061874
34.93 	0.056338 	4899 	0.055262
34.95 	0.060123 	4890 	0.058326
34.97 	0.053448 	4902 	0.052731
34.99 	0.063100 	4897 	0.061884
35.01 	0.059313 	4923 	0.058005
35.03 	0.059276 	4943 	0.058091
35.05 	0.056600 	4947 	0.055771
35.07 	0.057895 	4940 	0.056571
35.09 	0.053503 	4953 	0.052439
35.11 	0.057004 	4947 	0.055702
35.13 	0.063937 	4958 	0.063346
35.15 	0.060563 	4937 	0.059258
35.17 	0.061262 	4946 	0.060788
35.19 	0.063537 	4942 	0.062470
35.21 	0.063094 	4945 	0.062146
35.23 	0.053589 	4945 	0.052642
35.25 	0.058467 	4943 	0.057755
35.27 	0.055376 	4948 	0.054310
35.29 	0.059454 	4945 	0.058269
35.31 	0.064261 	4933 	0.063192
35.33 	0.057050 	4943 	0.055510
35.35 	0.057871 	4942 	0.057279
35.37 	0.060134 	4939 	0.059066
35.39 	0.053994 	4945 	0.053283
35.41 	0.058465 	4926 	0.057613
35.43 	0.059193 	4933 	0.057749
35.45 	0.060361 	4937 	0.059293
35.47 	0.057189 	4931 	0.056714
35.49 	0.053157 	4910 	0.052322
35.51 	0.060495 	4926 	0.059425
35.53 	0.053950 	4949 	0.052530
35.55 	0.056623 	4945 	0.055675
35.57 	0.060409 	4933 	0.059103
35.59 	0.056016 	4945 	0.055898
35.61 	0.060502 	4942 	0.059079
35.63 	0.057050 	4943 	0.055727
35.65 	0.057230 	4945 	0.055926
35.67 	0.058478 	4942 	0.057293
35.69 	0.061059 	4946 	0.060112
35.71 	0.057525 	4937 	0.056457
35.73 	0.056929 	4936 	0.056217
35.75 	0.058406 	4931 	0.057693
35.77 	0.060998 	4951 	0.060051
35.79 	0.059813 	4932 	0.057894
35.81 	0.052098 	4933 	0.051623
35.83 	0.058835 	4946 	0.057967
35.85 	0.051266 	4935 	0.050910
35.87 	0.057485 	4923 	0.056771
35.89 	0.058776 	4934 	0.058420
35.91 	0.064542 	4927 	0.062997
35.93 	0.051350 	4927 	0.050874
35.95 	0.057555 	4917 	0.056583
35.97 	0.054764 	4912 	0.053194
35.99 	0.059729 	4939 	0.058543
36.01 	0.059432 	4930 	0.058600
36.03 	0.058669 	4943 	0.057721
36.05 	0.055410 	4945 	0.054580
36.07 	0.056287 	4939 	0.054389
36.09 	0.055263 	4940 	0.054789
36.11 	0.056807 	4929 	0.055975
36.13 	0.063739 	4942 	0.062673
36.15 	0.061146 	4939 	0.060079
36.17 	0.054822 	4925 	0.053990
36.19 	0.055870 	4940 	0.055159
36.21 	0.052952 	4929 	0.052239
36.23 	0.055927 	4935 	0.055452
36.25 	0.054038 	4941 	0.053326
36.27 	0.052589 	4925 	0.051280
36.29 	0.060840 	4931 	0.059533
36.31 	0.050325 	4928 	0.049730
36.33 	0.058382 	4933 	0.057551
36.35 	0.055184 	4929 	0.053876
36.37 	0.061751 	4923 	0.061037
36.39 	0.058321 	4921 	0.057112
36.41 	0.054126 	4896 	0.053049
36.43 	0.057021 	4928 	0.056070
36.45 	0.054767 	4930 	0.053697
36.47 	0.058955 	4936 	0.057887
36.49 	0.054027 	4942 	0.052940
36.51 	0.054531 	4933 	0.053224
36.53 	0.054218 	4943 	0.053251
36.55 	0.052973 	4927 	0.052141
36.57 	0.054317 	4934 	0.054080
36.59 	0.053250 	4939 	0.052657
36.61 	0.051511 	4931 	0.050917
36.63 	0.062868 	4931 	0.062155
36.65 	0.054542 	4932 	0.053592
36.67 	0.059635 	4930 	0.058447
36.69 	0.053358 	4929 	0.052269
36.71 	0.050396 	4921 	0.049563
36.73 	0.052183 	4925 	0.051350
36.75 	0.055825 	4944 	0.054759
36.77 	0.053873 	4919 	0.053039
36.79 	0.051616 	4921 	0.050663
36.81 	0.052075 	4916 	0.051340
36.83 	0.056562 	4915 	0.055608
36.85 	0.054308 	4898 	0.053471
36.87 	0.054005 	4944 	0.052564
36.89 	0.057567 	4916 	0.056376
36.91 	0.057883 	4941 	0.056797
36.93 	0.059229 	4930 	0.058111
36.95 	0.052706 	4933 	0.052469
36.97 	0.053101 	4934 	0.052507
36.99 	0.053090 	4935 	0.051903
37.01 	0.056963 	4933 	0.055657
37.03 	0.051787 	4924 	0.051073
37.05 	0.056424 	4927 	0.055453
37.07 	0.052280 	4935 	0.050954
37.09 	0.052760 	4928 	0.051809
37.11 	0.046403 	4935 	0.045810
37.13 	0.056255 	4924 	0.055779
37.15 	0.055612 	4909 	0.054777
37.17 	0.055330 	4934 	0.054618
37.19 	0.051777 	4925 	0.051539
37.21 	0.056742 	4917 	0.055670
37.23 	0.054087 	4918 	0.052896
37.25 	0.053757 	4911 	0.052922
37.27 	0.047609 	4894 	0.046771
37.29 	0.053144 	4930 	0.052669
37.31 	0.052685 	4935 	0.051735
37.33 	0.048508 	4927 	0.047676
37.35 	0.053463 	4938 	0.052514
37.37 	0.055612 	4927 	0.054047
37.39 	0.051714 	4931 	0.051357
37.41 	0.049077 	4931 	0.048721
37.43 	0.052109 	4932 	0.051515
37.45 	0.048538 	4924 	0.047943
37.47 	0.054169 	4929 	0.053694
37.49 	0.054641 	4923 	0.053333
37.51 	0.051693 	4933 	0.050980
37.53 	0.052653 	4919 	0.052177
37.55 	0.052333 	4930 	0.051857
37.57 	0.048934 	4925 	0.048458
37.59 	0.054323 	4915 	0.053489
37.61 	0.052011 	4922 	0.051416
37.63 	0.047367 	4919 	0.046653
37.65 	0.052054 	4918 	0.051458
37.67 	0.044454 	4904 	0.043259
37.69 	0.053491 	4898 	0.052515
37.71 	0.053966 	4929 	0.052639
37.73 	0.052343 	4929 	0.051373
37.75 	0.053036 	4940 	0.052444
37.77 	0.051423 	4920 	0.050232
37.79 	0.052941 	4930 	0.052109
37.81 	0.053923 	4933 	0.052379
37.83 	0.054878 	4920 	0.054025
37.85 	0.055465 	4922 	0.054989
37.87 	0.052035 	4939 	0.051205
37.89 	0.052183 	4925 	0.051469
37.91 	0.047667 	4930 	0.046717
37.93 	0.048181 	4919 	0.047466
37.95 	0.052632 	4921 	0.051917
37.97 	0.051329 	4929 	0.050735
37.99 	0.055782 	4912 	0.054828
38.01 	0.053166 	4928 	0.052215
38.03 	0.047464 	4909 	0.046987
38.05 	0.054822 	4925 	0.053752
38.07 	0.054390 	4909 	0.053197
38.09 	0.048380 	4878 	0.048260
38.11 	0.049443 	4935 	0.048711
38.13 	0.052664 	4937 	0.051833
38.15 	0.060594 	4918 	0.059641
38.17 	0.055375 	4930 	0.054662
38.19 	0.055984 	4930 	0.055033
38.21 	0.050376 	4923 	0.049662
38.23 	0.052653 	4938 	0.051941
38.25 	0.055725 	4917 	0.055010
38.27 	0.054767 	4930 	0.053440
38.29 	0.056458 	4924 	0.054773
38.31 	0.054394 	4927 	0.053443
38.33 	0.061738 	4924 	0.060787
38.35 	0.059050 	4928 	0.058337
38.37 	0.058489 	4924 	0.057299
38.39 	0.063353 	4909 	0.062498
38.41 	0.061751 	4923 	0.060046
38.43 	0.061635 	4916 	0.060682
38.45 	0.058357 	4918 	0.056551
38.47 	0.061749 	4907 	0.060794
38.49 	0.059668 	4877 	0.058467
38.51 	0.063058 	4932 	0.061632
38.53 	0.067356 	4929 	0.066406
38.55 	0.060778 	4936 	0.060422
38.57 	0.055251 	4923 	0.054775
38.59 	0.056458 	4924 	0.055269
38.61 	0.058347 	4936 	0.056428
38.63 	0.057474 	4924 	0.056284
38.65 	0.059780 	4918 	0.058589
38.67 	0.046587 	4937 	0.045519
38.69 	0.052418 	4922 	0.051585
38.71 	0.056661 	4924 	0.055472
38.73 	0.057950 	4918 	0.057474
38.75 	0.047290 	4927 	0.046458
38.77 	0.053016 	4923 	0.052303
38.79 	0.046818 	4934 	0.045987
38.81 	0.052524 	4912 	0.051690
38.83 	0.050620 	4919 	0.049906
38.85 	0.052117 	4912 	0.051402
38.87 	0.050092 	4911 	0.049734
38.89 	0.053502 	4897 	0.053024
38.91 	0.052009 	4903 	0.051412
38.93 	0.049615 	4938 	0.048765
38.95 	0.050630 	4918 	0.050392
38.97 	0.044616 	4931 	0.044022
38.99 	0.049828 	4937 	0.049116
39.01 	0.044734 	4918 	0.044376
39.03 	0.051480 	4934 	0.050767
39.05 	0.048934 	4925 	0.048339
39.07 	0.049756 	4924 	0.048805
39.09 	0.042454 	4923 	0.042216
39.11 	0.050902 	4931 	0.050427
39.13 	0.052001 	4923 	0.050811
39.15 	0.048016 	4915 	0.047401
39.17 	0.051448 	4937 	0.050499
39.19 	0.048607 	4917 	0.048130
39.21 	0.044603 	4910 	0.044006
39.23 	0.049340 	4925 	0.048508
39.25 	0.043681 	4922 	0.042848
39.27 	0.045621 	4910 	0.045144
39.29 	0.052846 	4901 	0.051532
39.31 	0.051597 	4884 	0.050877
39.33 	0.046441 	4931 	0.045728
39.35 	0.047416 	4935 	0.047179
39.37 	0.043417 	4929 	0.042822
39.39 	0.048691 	4929 	0.048573
39.41 	0.056175 	4931 	0.055344
39.43 	0.050476 	4933 	0.049408
39.45 	0.053807 	4925 	0.053450
39.47 	0.047938 	4923 	0.047224
39.49 	0.048652 	4933 	0.047583
39.51 	0.049553 	4924 	0.049315
39.53 	0.048141 	4923 	0.047546
39.55 	0.045334 	4919 	0.044977
39.57 	0.049260 	4933 	0.048904
39.59 	0.044178 	4912 	0.043462
39.61 	0.043266 	4923 	0.042314
39.63 	0.045713 	4922 	0.045118
39.65 	0.048924 	4926 	0.047973
39.67 	0.050275 	4913 	0.049082
39.69 	0.047600 	4916 	0.047361
39.71 	0.049642 	4895 	0.048805
39.73 	0.049511 	4908 	0.048895
39.75 	0.047281 	4928 	0.046687
39.77 	0.048632 	4935 	0.048157
39.79 	0.050345 	4926 	0.049394
39.81 	0.049726 	4927 	0.048894
39.83 	0.048034 	4934 	0.047440
39.85 	0.049117 	4927 	0.048285
39.87 	0.047107 	4925 	0.046274
39.89 	0.044589 	4934 	0.043857
39.91 	0.048151 	4922 	0.047179
39.93 	0.051853 	4937 	0.050785
39.95 	0.048423 	4915 	0.047946
39.97 	0.048498 	4928 	0.047785
39.99 	0.048256 	4932 	0.047187
40.01 	0.048190 	4918 	0.047337
40.03 	0.050122 	4928 	0.048914
40.05 	0.040472 	4917 	0.039757
40.07 	0.047126 	4923 	0.046650
40.09 	0.046379 	4916 	0.046260
40.11 	0.045159 	4916 	0.044444
40.13 	0.044730 	4896 	0.044013
40.15 	0.046611 	4913 	0.045657
40.17 	0.044440 	4928 	0.044202
40.19 	0.046257 	4929 	0.046019
40.21 	0.047416 	4935 	0.046586
40.23 	0.048662 	4932 	0.048424
40.25 	0.043699 	4920 	0.043461
40.27 	0.049625 	4937 	0.049032
40.29 	0.044652 	4927 	0.044057
40.31 	0.044948 	4939 	0.044474
40.33 	0.050892 	4932 	0.050417
40.35 	0.047164 	4919 	0.045973
40.37 	0.052140 	4929 	0.051665
40.39 	0.044413 	4931 	0.043344
40.41 	0.049137 	4925 	0.048661
40.43 	0.043275 	4922 	0.042680
40.45 	0.051085 	4933 	0.050610
40.47 	0.049410 	4918 	0.048457
40.49 	0.043240 	4926 	0.042883
40.51 	0.052215 	4922 	0.051500
40.53 	0.043735 	4916 	0.043139
40.55 	0.043806 	4908 	0.043329
40.57 	0.049080 	4890 	0.048361
40.59 	0.043549 	4937 	0.042244
40.61 	0.051672 	4935 	0.051197
40.63 	0.043205 	4930 	0.042730
40.65 	0.046992 	4937 	0.045924
40.67 	0.041363 	4932 	0.040769
40.69 	0.046182 	4937 	0.045351
40.71 	0.049473 	4932 	0.048641
40.73 	0.046691 	4926 	0.045740
40.75 	0.040560 	4931 	0.040203
40.77 	0.050415 	4939 	0.049703
40.79 	0.040008 	4924 	0.039175
40.81 	0.050597 	4941 	0.050360
40.83 	0.042614 	4928 	0.041900
40.85 	0.044273 	4924 	0.043440
40.87 	0.050325 	4928 	0.049730
40.89 	0.043196 	4931 	0.042602
40.91 	0.046110 	4923 	0.045515
40.93 	0.045197 	4934 	0.044484
40.95 	0.045593 	4913 	0.044878
40.97 	0.046507 	4924 	0.045793
40.99 	0.042445 	4924 	0.042326
41.01 	0.041938 	4912 	0.040984
41.03 	0.044444 	4905 	0.044325
41.05 	0.046394 	4936 	0.045207
41.07 	0.041379 	4930 	0.040766
41.09 	0.038064 	4939 	0.037590
41.11 	0.045593 	4935 	0.045118
41.13 	0.041937 	4936 	0.041699
41.15 	0.042097 	4941 	0.041860
41.17 	0.044994 	4934 	0.044756
41.19 	0.043205 	4930 	0.042730
41.21 	0.049018 	4937 	0.048306
41.23 	0.042114 	4939 	0.041521
41.25 	0.043584 	4933 	0.043228
41.27 	0.046238 	4931 	0.044793
41.29 	0.049716 	4928 	0.049359
41.31 	0.041557 	4933 	0.041438
41.33 	0.045979 	4937 	0.045267
41.35 	0.043135 	4938 	0.042423
41.37 	0.042648 	4924 	0.042529
41.39 	0.042368 	4933 	0.041893
41.41 	0.047300 	4926 	0.046468
41.43 	0.040373 	4929 	0.039541
41.45 	0.041107 	4914 	0.041107
41.47 	0.043849 	4926 	0.043254
41.49 	0.047833 	4892 	0.047474
41.51 	0.042308 	4940 	0.041478
41.53 	0.042273 	4944 	0.041089
41.55 	0.041337 	4935 	0.041100
41.57 	0.044525 	4941 	0.043696
41.59 	0.040746 	4933 	0.040509
41.61 	0.038562 	4953 	0.038089
41.63 	0.043945 	4938 	0.043115
41.65 	0.045040 	4929 	0.044564
41.67 	0.040891 	4940 	0.040416
41.69 	0.045886 	4947 	0.045413
41.71 	0.042562 	4934 	0.042206
41.73 	0.038290 	4936 	0.038053
41.75 	0.039765 	4929 	0.039646
41.77 	0.034204 	4941 	0.033848
41.79 	0.044701 	4944 	0.044227
41.81 	0.041734 	4936 	0.040785
41.83 	0.042614 	4928 	0.042257
41.85 	0.046163 	4939 	0.045807
41.87 	0.048024 	4935 	0.046719
41.89 	0.046017 	4933 	0.045067
41.91 	0.039708 	4936 	0.039234
41.93 	0.036496 	4932 	0.036259
41.95 	0.046238 	4931 	0.045644
41.97 	0.037241 	4914 	0.036764
41.99 	0.045668 	4905 	0.045071
42.01 	0.037839 	4942 	0.037483
42.03 	0.044138 	4939 	0.043545
42.05 	0.045840 	4952 	0.045603
42.07 	0.039093 	4937 	0.038737
42.09 	0.041229 	4948 	0.040992
42.11 	0.039029 	4945 	0.038555
42.13 	0.038827 	4945 	0.038472
42.15 	0.046983 	4938 	0.046508
42.17 	0.041887 	4918 	0.041530
42.19 	0.044621 	4908 	0.044263
42.21 	0.041624 	4901 	0.041027
42.23 	0.039861 	4892 	0.039622
42.25 	0.042954 	4889 	0.042594
42.27 	0.040008 	4874 	0.039888
42.29 	0.042155 	4863 	0.041312
42.31 	0.043048 	4855 	0.042445
42.33 	0.037029 	4834 	0.036908
42.35 	0.039686 	4838 	0.039202
42.37 	0.041201 	4830 	0.040473
42.39 	0.037885 	4804 	0.037275
42.41 	0.040175 	4804 	0.039687
42.43 	0.045284 	4792 	0.044041
42.45 	0.042504 	4776 	0.042014
42.47 	0.043652 	4765 	0.042894
42.49 	0.039664 	4765 	0.039050
42.51 	0.041324 	4743 	0.040954
42.53 	0.045474 	4728 	0.044978
42.55 	0.043543 	4708 	0.042921
42.57 	0.039112 	4730 	0.038741
42.59 	0.044830 	4729 	0.043343
42.61 	0.046092 	4708 	0.045843
42.63 	0.039711 	4709 	0.039462
42.65 	0.041836 	4685 	0.041461
42.67 	0.040991 	4684 	0.040365
42.69 	0.046427 	4674 	0.045675
42.71 	0.037744 	4663 	0.037241
42.73 	0.041810 	4640 	0.041305
42.75 	0.034871 	4617 	0.034744
42.77 	0.041739 	4600 	0.041357
42.79 	0.038629 	4582 	0.038118
42.81 	0.038799 	4562 	0.038542
42.83 	0.046076 	4536 	0.045172
42.85 	0.045495 	4528 	0.044848
42.87 	0.043343 	4499 	0.043083
42.89 	0.041518 	4480 	0.041518
42.91 	0.042864 	4456 	0.042469
42.93 	0.042735 	4446 	0.041945
42.95 	0.034420 	4416 	0.034022
42.97 	0.044990 	4401 	0.044457
42.99 	0.043101 	4385 	0.042701
43.01 	0.044465 	4363 	0.044062
43.03 	0.042234 	4333 	0.041423
43.05 	0.041156 	4325 	0.040343
43.07 	0.040503 	4296 	0.040366
43.09 	0.035489 	4283 	0.035216
43.11 	0.042773 	4255 	0.041947
43.13 	0.037999 	4237 	0.037446
43.15 	0.038041 	4206 	0.037902
43.17 	0.036612 	4179 	0.036191
43.19 	0.039580 	4194 	0.039301
43.21 	0.043384 	4172 	0.043104
43.23 	0.042610 	4154 	0.041904
43.25 	0.040629 	4135 	0.039779
43.27 	0.042387 	4105 	0.041817
43.29 	0.044146 	4100 	0.044003
43.31 	0.036774 	4079 	0.036056
43.33 	0.045668 	4051 	0.045089
43.35 	0.039187 	4032 	0.038896
43.37 	0.038605 	4015 	0.038022
43.39 	0.044228 	4002 	0.043057
43.41 	0.043555 	3972 	0.042817
43.43 	0.039394 	3960 	0.038950
43.45 	0.040407 	3935 	0.039960
43.47 	0.036215 	3921 	0.035916
43.49 	0.041827 	3897 	0.041526
43.51 	0.045912 	3877 	0.045459
43.53 	0.042454 	3863 	0.041999
43.55 	0.042173 	2964 	0.041580
43.57 	0.026810 	2238 	0.026286
43.59 	0.044101 	1746 	0.043765
43.61 	0.034789 	1351 	0.034789
43.63 	0.048951 	1001 	0.048366
43.65 	0.036390 	687 	0.035537
43.67 	0.021912 	502 	0.021912
43.69 	0.035422 	367 	0.035422
43.71 	0.033473 	239 	0.033473
43.73 	0.041667 	120 	0.041667
43.75 	0.062500 	16 	0.062500