File: Example_Data/25SC_s1_0052.007.dat
#F C:\frames\spec\25SC_s1_0052.007
#C title =s:52 frm:7 25SC_s1
#C wavelength =0.15406

#S 1  fr_average C:\frames\spec\25SC_s1_0052.007 C:\win32app\speccom\mask.axs chi 0 180 0 360 0.02
#C 2 theta =0.000000 to 180 deg
#C   q   =0.000000 to 81.568 nm^-1
#C  chi  =0.000000 to 360 deg
#C collumns:
#C  1 position (2theta or chi in degrees)
#C  2 average intensity (sum of all counts in the region divided with number of pixels)
#C  3 Number of pixels in region)
#C  4 error (sum of sqrt(intensity) for all pixels divided by number)
#N 4
#L TTh  Int  N_pix  Err
32.99 	0.081967 	61 	0.081967
33.01 	0.075601 	873 	0.073588
33.03 	0.069015 	1391 	0.067331
33.05 	0.065452 	1757 	0.064786
33.07 	0.067805 	2050 	0.067233
33.09 	0.073285 	2347 	0.072037
33.11 	0.068244 	2579 	0.066199
33.13 	0.076620 	2793 	0.075781
33.15 	0.063688 	2999 	0.062679
33.17 	0.073727 	3201 	0.071288
33.19 	0.068821 	3342 	0.067594
33.21 	0.060827 	3436 	0.059974
33.23 	0.070111 	3523 	0.067783
33.25 	0.066999 	3612 	0.066026
33.27 	0.068044 	3630 	0.066888
33.29 	0.074013 	3648 	0.071765
33.31 	0.068852 	3660 	0.067252
33.33 	0.069181 	3686 	0.068068
33.35 	0.067407 	3694 	0.065662
33.37 	0.075121 	3714 	0.073676
33.39 	0.073478 	3729 	0.072536
33.41 	0.079679 	3740 	0.078426
33.43 	0.070460 	3761 	0.069188
33.45 	0.073151 	3773 	0.071909
33.47 	0.071617 	3798 	0.070537
33.49 	0.075348 	3809 	0.073169
33.51 	0.070511 	3815 	0.068490
33.53 	0.072637 	3841 	0.071570
33.55 	0.065834 	3843 	0.064310
33.57 	0.069899 	3877 	0.067633
33.59 	0.067268 	3880 	0.066035
33.61 	0.070350 	3909 	0.068702
33.63 	0.068895 	3919 	0.066903
33.65 	0.066141 	3931 	0.064651
33.67 	0.074102 	3954 	0.072621
33.69 	0.069567 	3953 	0.068975
33.71 	0.065660 	3975 	0.063278
33.73 	0.075175 	4004 	0.072493
33.75 	0.075019 	3999 	0.073383
33.77 	0.067826 	4025 	0.066516
33.79 	0.072507 	4041 	0.071202
33.81 	0.065379 	4038 	0.064363
33.83 	0.072840 	4050 	0.071225
33.85 	0.072457 	4099 	0.070599
33.87 	0.068596 	4111 	0.067741
33.89 	0.078379 	4121 	0.076958
33.91 	0.068691 	4149 	0.067539
33.93 	0.069622 	4151 	0.068211
33.95 	0.071514 	4181 	0.070253
33.97 	0.068258 	4190 	0.067279
33.99 	0.067619 	4200 	0.066201
34.01 	0.070496 	4213 	0.069801
34.03 	0.063384 	4244 	0.062555
34.05 	0.064205 	4252 	0.062965
34.07 	0.062090 	4268 	0.060443
34.09 	0.064162 	4286 	0.062796
34.11 	0.068340 	4302 	0.067251
34.13 	0.072656 	4308 	0.070616
34.15 	0.063496 	4331 	0.061986
34.17 	0.077011 	4350 	0.075530
34.19 	0.068776 	4362 	0.067008
34.21 	0.063143 	4371 	0.060843
34.23 	0.061689 	4393 	0.060356
34.25 	0.062216 	4404 	0.061285
34.27 	0.073722 	4422 	0.072000
34.29 	0.066291 	4435 	0.065498
34.31 	0.070884 	4458 	0.069285
34.33 	0.073809 	4471 	0.071975
34.35 	0.071811 	4484 	0.069721
34.37 	0.062347 	4491 	0.061564
34.39 	0.068192 	4502 	0.067151
34.41 	0.074680 	4526 	0.072609
34.43 	0.072042 	4539 	0.071010
34.45 	0.067916 	4535 	0.066754
34.47 	0.071864 	4592 	0.070078
34.49 	0.065477 	4597 	0.063800
34.51 	0.071863 	4606 	0.069955
34.53 	0.065260 	4643 	0.063599
34.55 	0.071290 	4643 	0.070028
34.57 	0.078112 	4660 	0.077106
34.59 	0.065668 	4675 	0.064040
34.61 	0.073664 	4697 	0.072542
34.63 	0.077070 	4710 	0.075578
34.65 	0.067994 	4721 	0.067001
34.67 	0.070238 	4741 	0.069373
34.69 	0.073833 	4754 	0.072847
34.71 	0.067142 	4766 	0.065299
34.73 	0.066221 	4787 	0.064121
34.75 	0.072587 	4808 	0.070516
34.77 	0.069946 	4818 	0.068710
34.79 	0.066750 	4824 	0.065900
34.81 	0.071620 	4845 	0.070048
34.83 	0.068490 	4862 	0.067165
34.85 	0.068392 	4869 	0.067289
34.87 	0.070255 	4868 	0.069051
34.89 	0.061450 	4882 	0.060850
34.91 	0.070258 	4882 	0.069418
34.93 	0.066136 	4899 	0.064562
34.95 	0.073620 	4890 	0.071823
34.97 	0.072011 	4902 	0.070697
34.99 	0.070247 	4897 	0.069170
35.01 	0.067439 	4923 	0.066487
35.03 	0.075258 	4943 	0.073560
35.05 	0.069335 	4947 	0.067796
35.07 	0.072267 	4940 	0.071081
35.09 	0.074097 	4953 	0.072421
35.11 	0.070952 	4947 	0.069294
35.13 	0.065954 	4958 	0.065245
35.15 	0.073526 	4937 	0.072083
35.17 	0.067731 	4946 	0.066310
35.19 	0.066977 	4942 	0.065298
35.21 	0.061274 	4945 	0.060563
35.23 	0.071790 	4945 	0.070250
35.25 	0.069796 	4943 	0.068848
35.27 	0.077001 	4948 	0.074495
35.29 	0.067947 	4945 	0.067474
35.31 	0.066896 	4933 	0.065471
35.33 	0.069796 	4943 	0.068018
35.35 	0.067179 	4942 	0.065757
35.37 	0.075724 	4939 	0.074182
35.39 	0.064510 	4945 	0.063443
35.41 	0.072879 	4926 	0.072046
35.43 	0.072167 	4933 	0.071336
35.45 	0.064209 	4937 	0.063260
35.47 	0.071791 	4931 	0.070603
35.49 	0.069450 	4910 	0.068376
35.51 	0.073285 	4926 	0.071263
35.53 	0.068297 	4949 	0.066284
35.55 	0.072801 	4945 	0.071261
35.57 	0.065275 	4933 	0.063968
35.59 	0.071587 	4945 	0.070877
35.61 	0.066977 	4942 	0.065555
35.63 	0.068784 	4943 	0.067362
35.65 	0.068756 	4945 	0.066979
35.67 	0.068798 	4942 	0.067119
35.69 	0.066114 	4946 	0.064811
35.71 	0.074742 	4937 	0.072349
35.73 	0.065640 	4936 	0.064809
35.75 	0.075441 	4931 	0.073521
35.77 	0.071501 	4951 	0.070318
35.79 	0.068938 	4932 	0.066918
35.81 	0.066086 	4933 	0.064779
35.83 	0.067327 	4946 	0.066143
35.85 	0.077609 	4935 	0.075235
35.87 	0.065814 	4923 	0.064505
35.89 	0.069720 	4934 	0.068177
35.91 	0.067384 	4927 	0.065482
35.93 	0.071240 	4927 	0.069457
35.95 	0.067521 	4917 	0.066806
35.97 	0.067590 	4912 	0.066397
35.99 	0.068030 	4939 	0.066725
36.01 	0.065112 	4930 	0.063923
36.03 	0.070200 	4943 	0.068640
36.05 	0.071183 	4945 	0.069761
36.07 	0.065398 	4939 	0.063619
36.09 	0.067814 	4940 	0.066035
36.11 	0.063502 	4929 	0.062432
36.13 	0.065561 	4942 	0.064020
36.15 	0.067423 	4939 	0.065762
36.17 	0.073299 	4925 	0.071615
36.19 	0.065587 	4940 	0.064283
36.21 	0.069385 	4929 	0.067840
36.23 	0.067275 	4935 	0.065613
36.25 	0.071241 	4941 	0.069699
36.27 	0.061523 	4925 	0.060452
36.29 	0.065910 	4931 	0.064603
36.31 	0.070008 	4928 	0.068582
36.33 	0.068518 	4933 	0.067806
36.35 	0.067356 	4929 	0.065811
36.37 	0.057688 	4923 	0.056855
36.39 	0.065231 	4921 	0.063683
36.41 	0.059641 	4896 	0.058444
36.43 	0.068994 	4928 	0.066735
36.45 	0.063083 	4930 	0.062608
36.47 	0.069084 	4936 	0.067898
36.49 	0.067989 	4942 	0.067277
36.51 	0.069126 	4933 	0.067464
36.53 	0.064738 	4943 	0.063908
36.55 	0.064948 	4927 	0.063997
36.57 	0.070328 	4934 	0.068409
36.59 	0.060539 	4939 	0.059590
36.61 	0.061854 	4931 	0.060666
36.63 	0.064693 	4931 	0.062772
36.65 	0.066910 	4932 	0.065841
36.67 	0.063286 	4930 	0.062217
36.69 	0.062893 	4929 	0.061586
36.71 	0.064418 	4921 	0.062751
36.73 	0.068223 	4925 	0.067272
36.75 	0.071804 	4944 	0.070619
36.77 	0.073999 	4919 	0.072689
36.79 	0.067872 	4921 	0.066444
36.81 	0.071400 	4916 	0.068897
36.83 	0.067955 	4915 	0.066644
36.85 	0.074316 	4898 	0.072642
36.87 	0.060275 	4944 	0.059446
36.89 	0.066924 	4916 	0.066209
36.91 	0.064764 	4941 	0.063460
36.93 	0.063083 	4930 	0.061776
36.95 	0.068315 	4933 	0.066415
36.97 	0.070936 	4934 	0.069749
36.99 	0.068896 	4935 	0.066878
37.01 	0.069937 	4933 	0.068750
37.03 	0.065191 	4924 	0.063744
37.05 	0.061498 	4927 	0.060547
37.07 	0.070922 	4935 	0.068766
37.09 	0.060674 	4928 	0.059723
37.11 	0.059777 	4935 	0.058353
37.13 	0.065191 	4924 	0.064358
37.15 	0.068853 	4909 	0.067779
37.17 	0.064248 	4934 	0.063536
37.19 	0.061523 	4925 	0.061047
37.21 	0.061826 	4917 	0.060754
37.23 	0.067100 	4918 	0.065433
37.25 	0.072083 	4911 	0.070532
37.27 	0.064978 	4894 	0.063302
37.29 	0.055172 	4930 	0.054578
37.31 	0.064438 	4935 	0.063132
37.33 	0.066369 	4927 	0.065537
37.35 	0.066424 	4938 	0.065119
37.37 	0.065760 	4927 	0.065047
37.39 	0.066315 	4931 	0.064890
37.41 	0.069357 	4931 	0.068407
37.43 	0.060827 	4932 	0.059877
37.45 	0.059504 	4924 	0.058196
37.47 	0.067965 	4929 	0.066539
37.49 	0.062157 	4923 	0.060729
37.51 	0.060612 	4933 	0.059168
37.53 	0.062411 	4919 	0.061458
37.55 	0.065923 	4930 	0.063883
37.57 	0.063553 	4925 	0.062721
37.59 	0.059613 	4915 	0.058660
37.61 	0.065624 	4922 	0.064315
37.63 	0.065054 	4919 	0.063863
37.65 	0.064864 	4918 	0.063911
37.67 	0.059747 	4904 	0.058672
37.69 	0.067170 	4898 	0.066333
37.71 	0.064922 	4929 	0.064328
37.73 	0.063299 	4929 	0.061615
37.75 	0.066802 	4940 	0.065497
37.77 	0.064431 	4920 	0.063597
37.79 	0.067140 	4930 	0.065476
37.81 	0.060815 	4933 	0.059984
37.83 	0.064634 	4920 	0.063563
37.85 	0.062983 	4922 	0.062149
37.87 	0.064790 	4939 	0.063703
37.89 	0.061320 	4925 	0.060011
37.91 	0.064706 	4930 	0.063231
37.93 	0.063834 	4919 	0.062881
37.95 	0.060354 	4921 	0.059877
37.97 	0.066342 	4929 	0.065154
37.99 	0.062500 	4912 	0.061188
38.01 	0.061485 	4928 	0.060416
38.03 	0.067223 	4909 	0.066388
38.05 	0.062132 	4925 	0.060586
38.07 	0.061316 	4909 	0.060481
38.09 	0.065396 	4878 	0.064315
38.11 	0.058156 	4935 	0.057088
38.13 	0.065019 	4937 	0.064663
38.15 	0.063237 	4918 	0.062403
38.17 	0.068763 	4930 	0.068169
38.19 	0.064097 	4930 	0.062890
38.21 	0.063782 	4923 	0.063068
38.23 	0.066424 	4938 	0.065356
38.25 	0.059996 	4917 	0.058685
38.27 	0.067546 	4930 	0.066476
38.29 	0.066613 	4924 	0.065661
38.31 	0.067790 	4927 	0.066700
38.33 	0.067019 	4924 	0.065948
38.35 	0.069805 	4928 	0.068498
38.37 	0.072502 	4924 	0.070837
38.39 	0.071705 	4909 	0.070631
38.41 	0.063782 	4923 	0.062473
38.43 	0.076485 	4916 	0.074797
38.45 	0.065270 	4918 	0.064675
38.47 	0.076829 	4907 	0.075635
38.49 	0.077302 	4877 	0.075019
38.51 	0.066707 	4932 	0.065519
38.53 	0.074660 	4929 	0.073828
38.55 	0.072326 	4936 	0.070427
38.57 	0.078204 	4923 	0.077252
38.59 	0.067831 	4924 	0.066503
38.61 	0.071515 	4936 	0.069973
38.63 	0.071284 	4924 	0.070332
38.65 	0.067304 	4918 	0.066093
38.67 	0.072716 	4937 	0.070442
38.69 	0.067452 	4922 	0.066619
38.71 	0.064785 	4924 	0.064170
38.73 	0.065067 	4918 	0.063757
38.75 	0.067993 	4927 	0.066685
38.77 	0.064595 	4923 	0.063286
38.79 	0.059789 	4934 	0.058602
38.81 	0.060057 	4912 	0.059222
38.83 	0.063428 	4919 	0.062475
38.85 	0.062500 	4912 	0.061427
38.87 	0.059255 	4911 	0.058658
38.89 	0.064734 	4897 	0.063298
38.91 	0.059759 	4903 	0.059162
38.93 	0.064601 	4938 	0.063020
38.95 	0.065270 	4918 	0.063960
38.97 	0.058609 	4931 	0.057658
38.99 	0.060766 	4937 	0.059916
39.01 	0.057340 	4918 	0.056983
39.03 	0.059181 	4934 	0.058113
39.05 	0.058680 	4925 	0.057590
39.07 	0.058286 	4924 	0.056839
39.09 	0.057485 	4923 	0.056890
39.11 	0.061854 	4931 	0.061022
39.13 	0.060532 	4923 	0.059461
39.15 	0.058800 	4915 	0.058204
39.17 	0.054689 	4937 	0.053246
39.19 	0.058572 	4917 	0.057738
39.21 	0.057637 	4910 	0.056663
39.23 	0.056650 	4925 	0.055679
39.25 	0.056481 	4922 	0.055628
39.27 	0.052953 	4910 	0.052476
39.29 	0.061824 	4901 	0.060868
39.31 	0.054054 	4884 	0.053195
39.33 	0.060231 	4931 	0.059400
39.35 	0.055724 	4935 	0.054894
39.37 	0.054169 	4929 	0.053100
39.39 	0.058633 	4929 	0.057682
39.41 	0.062462 	4931 	0.061393
39.43 	0.052301 	4933 	0.051588
39.45 	0.063553 	4925 	0.062582
39.47 	0.061751 	4923 	0.060204
39.49 	0.059396 	4933 	0.058802
39.51 	0.056255 	4924 	0.055541
39.53 	0.059517 	4923 	0.058446
39.55 	0.059565 	4919 	0.058970
39.57 	0.058788 	4933 	0.057363
39.59 	0.059650 	4912 	0.058934
39.61 	0.056470 	4923 	0.055875
39.63 	0.060138 	4922 	0.059543
39.65 	0.059683 	4926 	0.059089
39.67 	0.057399 	4913 	0.055610
39.69 	0.058584 	4916 	0.058227
39.71 	0.059040 	4895 	0.058082
39.73 	0.060717 	4908 	0.059524
39.75 	0.058847 	4928 	0.057639
39.77 	0.051874 	4935 	0.051043
39.79 	0.063337 	4926 	0.062267
39.81 	0.060077 	4927 	0.059364
39.83 	0.053304 	4934 	0.053066
39.85 	0.056830 	4927 	0.055027
39.87 	0.052995 	4925 	0.052400
39.89 	0.056952 	4934 	0.056002
39.91 	0.060748 	4922 	0.059915
39.93 	0.061373 	4937 	0.060068
39.95 	0.055544 	4915 	0.055306
39.97 	0.058847 	4928 	0.058134
39.99 	0.054947 	4932 	0.053878
40.01 	0.062830 	4918 	0.061044
40.03 	0.053369 	4928 	0.052893
40.05 	0.055928 	4917 	0.055214
40.07 	0.056063 	4923 	0.055468
40.09 	0.057771 	4916 	0.057175
40.11 	0.052889 	4916 	0.052054
40.13 	0.064542 	4896 	0.062748
40.15 	0.053124 	4913 	0.052151
40.17 	0.055195 	4928 	0.054125
40.19 	0.056401 	4929 	0.055569
40.21 	0.052888 	4935 	0.051701
40.23 	0.058394 	4932 	0.057919
40.25 	0.056504 	4920 	0.055552
40.27 	0.055702 	4937 	0.054990
40.29 	0.058047 	4927 	0.056859
40.31 	0.053250 	4939 	0.052182
40.33 	0.056569 	4932 	0.055263
40.35 	0.057329 	4919 	0.056376
40.37 	0.057618 	4929 	0.056549
40.39 	0.053944 	4931 	0.053350
40.41 	0.054619 	4925 	0.053906
40.43 	0.051199 	4922 	0.050247
40.45 	0.056355 	4933 	0.055643
40.47 	0.055307 	4918 	0.054592
40.49 	0.053593 	4926 	0.052880
40.51 	0.059529 	4922 	0.058577
40.53 	0.056347 	4916 	0.055393
40.55 	0.050937 	4908 	0.050102
40.57 	0.050511 	4890 	0.049792
40.59 	0.053069 	4937 	0.052594
40.61 	0.061803 	4935 	0.060854
40.63 	0.052333 	4930 	0.051620
40.65 	0.053271 	4937 	0.052441
40.67 	0.058394 	4932 	0.057800
40.69 	0.053676 	4937 	0.053439
40.71 	0.052109 	4932 	0.051277
40.73 	0.052984 	4926 	0.052271
40.75 	0.050091 	4931 	0.049735
40.77 	0.052035 	4939 	0.051323
40.79 	0.058083 	4924 	0.057131
40.81 	0.054240 	4941 	0.053647
40.83 	0.053571 	4928 	0.052383
40.85 	0.056255 	4924 	0.055422
40.87 	0.056209 	4928 	0.055615
40.89 	0.052728 	4931 	0.051777
40.91 	0.056063 	4923 	0.055211
40.93 	0.058776 	4934 	0.057094
40.95 	0.062080 	4913 	0.061007
40.97 	0.055849 	4924 	0.054659
40.99 	0.058286 	4924 	0.057334
41.01 	0.055782 	4912 	0.055066
41.03 	0.048114 	4905 	0.047398
41.05 	0.054903 	4936 	0.053953
41.07 	0.050304 	4930 	0.049948
41.09 	0.054262 	4939 	0.053788
41.11 	0.056130 	4935 	0.054923
41.13 	0.050446 	4936 	0.049852
41.15 	0.055657 	4941 	0.054590
41.17 	0.055128 	4934 	0.054158
41.19 	0.049899 	4930 	0.049304
41.21 	0.050030 	4937 	0.049437
41.23 	0.056692 	4939 	0.055031
41.25 	0.058180 	4933 	0.057685
41.27 	0.058203 	4931 	0.056639
41.29 	0.054180 	4928 	0.053348
41.31 	0.057977 	4933 	0.057146
41.33 	0.053271 	4937 	0.052322
41.35 	0.054273 	4938 	0.053304
41.37 	0.053818 	4924 	0.052985
41.39 	0.052504 	4933 	0.051791
41.41 	0.052578 	4926 	0.051746
41.43 	0.054372 	4929 	0.053897
41.45 	0.056573 	4914 	0.055619
41.47 	0.051360 	4926 	0.049695
41.49 	0.048855 	4892 	0.047997
41.51 	0.056275 	4940 	0.054971
41.53 	0.052387 	4944 	0.051557
41.55 	0.055724 	4935 	0.055131
41.57 	0.057478 	4941 	0.056767
41.59 	0.048247 	4933 	0.047890
41.61 	0.051888 	4953 	0.051060
41.63 	0.050425 	4938 	0.049714
41.65 	0.053561 	4929 	0.052729
41.67 	0.050607 	4940 	0.049521
41.69 	0.054983 	4947 	0.054391
41.71 	0.053709 	4934 	0.052878
41.73 	0.048217 	4936 	0.047742
41.75 	0.053358 	4929 	0.052882
41.77 	0.051204 	4941 	0.050374
41.79 	0.054207 	4944 	0.053496
41.81 	0.051459 	4936 	0.050608
41.83 	0.058847 	4928 	0.057302
41.85 	0.053655 	4939 	0.053062
41.87 	0.046606 	4935 	0.044925
41.89 	0.049666 	4933 	0.049072
41.91 	0.051053 	4936 	0.050460
41.93 	0.049676 	4932 	0.049200
41.95 	0.055364 	4931 	0.054532
41.97 	0.053114 	4914 	0.052518
41.99 	0.054230 	4905 	0.053394
42.01 	0.050182 	4942 	0.048977
42.03 	0.050010 	4939 	0.048805
42.05 	0.060380 	4952 	0.058724
42.07 	0.046384 	4937 	0.045673
42.09 	0.048100 	4948 	0.047272
42.11 	0.052578 	4945 	0.051986
42.13 	0.049545 	4945 	0.049190
42.15 	0.047185 	4938 	0.046711
42.17 	0.049004 	4918 	0.048408
42.19 	0.048492 	4908 	0.047179
42.21 	0.050806 	4901 	0.050447
42.23 	0.053557 	4892 	0.052599
42.25 	0.055226 	4889 	0.054148
42.27 	0.047805 	4874 	0.046963
42.29 	0.049558 	4863 	0.048594
42.31 	0.046962 	4855 	0.046721
42.33 	0.045511 	4834 	0.045269
42.35 	0.050641 	4838 	0.049551
42.37 	0.050518 	4830 	0.049790
42.39 	0.051624 	4804 	0.050770
42.41 	0.054746 	4804 	0.054380
42.43 	0.047162 	4792 	0.046795
42.45 	0.045854 	4776 	0.045241
42.47 	0.046380 	4765 	0.045765
42.49 	0.048688 	4765 	0.048197
42.51 	0.050601 	4743 	0.049736
42.53 	0.047377 	4728 	0.047006
42.55 	0.053738 	4708 	0.052743
42.57 	0.049260 	4730 	0.048765
42.59 	0.048425 	4729 	0.047929
42.61 	0.055013 	4708 	0.054391
42.63 	0.051816 	4709 	0.050945
42.65 	0.049306 	4685 	0.048806
42.67 	0.050384 	4684 	0.049884
42.69 	0.050278 	4674 	0.049777
42.71 	0.045250 	4663 	0.044873
42.73 	0.053017 	4640 	0.052134
42.75 	0.047217 	4617 	0.046709
42.77 	0.052826 	4600 	0.051511
42.79 	0.047577 	4582 	0.046938
42.81 	0.048663 	4562 	0.048534
42.83 	0.047178 	4536 	0.046274
42.85 	0.045274 	4528 	0.044886
42.87 	0.048900 	4499 	0.048379
42.89 	0.051786 	4480 	0.051393
42.91 	0.049596 	4456 	0.048544
42.93 	0.049933 	4446 	0.048878
42.95 	0.057292 	4416 	0.056230
42.97 	0.049080 	4401 	0.048281
42.99 	0.046066 	4385 	0.044997
43.01 	0.053174 	4363 	0.052772
43.03 	0.055389 	4333 	0.054443
43.05 	0.049017 	4325 	0.048047
43.07 	0.042831 	4296 	0.042149
43.09 	0.050432 	4283 	0.050158
43.11 	0.054289 	4255 	0.053738
43.13 	0.051215 	4237 	0.050524
43.15 	0.047789 	4206 	0.047232
43.17 	0.048337 	4179 	0.047776
43.19 	0.040296 	4194 	0.040156
43.21 	0.050336 	4172 	0.049353
43.23 	0.052961 	4154 	0.052256
43.25 	0.055623 	4135 	0.054466
43.27 	0.047503 	4105 	0.047218
43.29 	0.055610 	4100 	0.054753
43.31 	0.044619 	4079 	0.044475
43.33 	0.043199 	4051 	0.043055
43.35 	0.053075 	4032 	0.052494
43.37 	0.051308 	4015 	0.049995
43.39 	0.051724 	4002 	0.051285
43.41 	0.053877 	3972 	0.052845
43.43 	0.046465 	3960 	0.045873
43.45 	0.045489 	3935 	0.045043
43.47 	0.047182 	3921 	0.046883
43.49 	0.050552 	3897 	0.050401
43.51 	0.042817 	3877 	0.042666
43.53 	0.053326 	3863 	0.051810
43.55 	0.045547 	2964 	0.044954
43.57 	0.048257 	2238 	0.047472
43.59 	0.040092 	1746 	0.039421
43.61 	0.048853 	1351 	0.047986
43.63 	0.041958 	1001 	0.040788
43.65 	0.033479 	687 	0.032626
43.67 	0.049801 	502 	0.048634
43.69 	0.046322 	367 	0.044725
43.71 	0.046025 	239 	0.046025
43.73 	0.050000 	120 	0.050000
43.75 	0.000000 	16 	0.000000