File: Example_Data/25SC_s1_0027.000.dat
#F C:\frames\spec\25SC_s1_0027.000
#C title =s:27 frm:0 25SC_s1
#C wavelength =0.15406

#S 1  fr_average C:\frames\spec\25SC_s1_0027.000 C:\win32app\speccom\mask.axs chi 0 180 0 360 0.02
#C 2 theta =0.000000 to 180 deg
#C   q   =0.000000 to 81.568 nm^-1
#C  chi  =0.000000 to 360 deg
#C collumns:
#C  1 position (2theta or chi in degrees)
#C  2 average intensity (sum of all counts in the region divided with number of pixels)
#C  3 Number of pixels in region)
#C  4 error (sum of sqrt(intensity) for all pixels divided by number)
#N 4
#L TTh  Int  N_pix  Err
32.99 	0.032787 	61 	0.032787
33.01 	0.059565 	873 	0.058223
33.03 	0.058231 	1391 	0.057389
33.05 	0.058054 	1757 	0.057387
33.07 	0.058537 	2050 	0.057394
33.09 	0.058798 	2347 	0.057800
33.11 	0.062040 	2579 	0.060677
33.13 	0.061224 	2793 	0.060351
33.15 	0.064355 	2999 	0.062987
33.17 	0.053733 	3201 	0.053001
33.19 	0.059246 	3342 	0.058019
33.21 	0.066938 	3436 	0.065745
33.23 	0.057905 	3523 	0.057240
33.25 	0.067276 	3612 	0.065978
33.27 	0.064463 	3630 	0.062500
33.29 	0.053180 	3648 	0.052216
33.31 	0.055464 	3660 	0.054318
33.33 	0.059685 	3686 	0.059023
33.35 	0.055225 	3694 	0.054432
33.37 	0.058697 	3714 	0.057435
33.39 	0.056315 	3729 	0.055216
33.41 	0.055615 	3740 	0.053892
33.43 	0.065408 	3761 	0.064006
33.45 	0.068381 	3773 	0.066518
33.47 	0.061085 	3798 	0.059851
33.49 	0.053557 	3809 	0.053096
33.51 	0.061861 	3815 	0.060326
33.53 	0.062484 	3841 	0.060196
33.55 	0.068436 	3843 	0.066582
33.57 	0.059582 	3877 	0.058222
33.59 	0.062371 	3880 	0.061918
33.61 	0.052699 	3909 	0.052399
33.63 	0.058944 	3919 	0.058196
33.65 	0.063597 	3931 	0.062554
33.67 	0.061457 	3954 	0.059975
33.69 	0.057678 	3953 	0.056937
33.71 	0.062138 	3975 	0.061549
33.73 	0.066683 	4004 	0.065050
33.75 	0.062516 	3999 	0.061197
33.77 	0.058385 	4025 	0.057366
33.79 	0.059144 	4041 	0.058564
33.81 	0.061169 	4038 	0.059863
33.83 	0.057037 	4050 	0.056458
33.85 	0.059527 	4099 	0.058812
33.87 	0.059110 	4111 	0.058397
33.89 	0.058481 	4121 	0.057059
33.91 	0.059050 	4149 	0.058344
33.93 	0.055167 	4151 	0.054180
33.95 	0.061469 	4181 	0.060488
33.97 	0.062053 	4190 	0.060934
33.99 	0.060000 	4200 	0.058884
34.01 	0.058865 	4213 	0.057614
34.03 	0.053016 	4244 	0.052464
34.05 	0.056209 	4252 	0.055382
34.07 	0.068182 	4268 	0.067496
34.09 	0.061596 	4286 	0.060639
34.11 	0.058345 	4302 	0.057664
34.13 	0.057103 	4308 	0.056151
34.15 	0.062110 	4331 	0.060487
34.17 	0.066667 	4350 	0.065589
34.19 	0.055250 	4362 	0.054153
34.21 	0.055365 	4371 	0.054963
34.23 	0.061689 	4393 	0.060622
34.25 	0.057221 	4404 	0.056556
34.27 	0.054500 	4422 	0.052381
34.29 	0.055242 	4435 	0.054714
34.31 	0.048901 	4458 	0.048244
34.33 	0.054574 	4471 	0.054181
34.35 	0.060214 	4484 	0.059430
34.37 	0.057448 	4491 	0.056274
34.39 	0.057530 	4502 	0.057140
34.41 	0.057004 	4526 	0.056098
34.43 	0.050892 	4539 	0.050505
34.45 	0.052922 	4535 	0.052534
34.47 	0.062282 	4592 	0.061007
34.49 	0.060909 	4597 	0.060017
34.51 	0.059922 	4606 	0.058777
34.53 	0.056644 	4643 	0.055993
34.55 	0.057506 	4643 	0.056497
34.57 	0.058584 	4660 	0.057809
34.59 	0.053262 	4675 	0.052761
34.61 	0.053864 	4697 	0.053095
34.63 	0.056051 	4710 	0.054932
34.65 	0.057403 	4721 	0.056410
34.67 	0.050200 	4741 	0.049830
34.69 	0.049011 	4754 	0.048518
34.71 	0.052875 	4766 	0.052137
34.73 	0.065803 	4787 	0.064702
34.75 	0.058652 	4808 	0.057901
34.77 	0.056663 	4818 	0.056176
34.79 	0.057007 	4824 	0.055408
34.81 	0.059443 	4845 	0.058113
34.83 	0.054916 	4862 	0.053831
34.85 	0.065517 	4869 	0.064313
34.87 	0.061216 	4868 	0.060253
34.89 	0.052438 	4882 	0.052078
34.91 	0.054281 	4882 	0.053441
34.93 	0.056134 	4899 	0.054938
34.95 	0.059509 	4890 	0.058671
34.97 	0.059772 	4902 	0.058577
34.99 	0.059220 	4897 	0.058861
35.01 	0.052813 	4923 	0.051980
35.03 	0.053813 	4943 	0.052865
35.05 	0.062664 	4947 	0.061954
35.07 	0.056883 	4940 	0.056053
35.09 	0.059156 	4953 	0.058328
35.11 	0.056802 	4947 	0.055500
35.13 	0.054659 	4958 	0.053714
35.15 	0.058335 	4937 	0.057149
35.17 	0.061666 	4946 	0.060837
35.19 	0.055645 	4942 	0.054934
35.21 	0.057634 	4945 	0.057160
35.23 	0.060263 	4945 	0.059078
35.25 	0.059883 	4943 	0.059053
35.27 	0.056184 	4948 	0.055218
35.29 	0.058443 	4945 	0.057120
35.31 	0.058180 	4933 	0.057348
35.33 	0.056241 	4943 	0.055767
35.35 	0.053420 	4942 	0.052353
35.37 	0.060336 	4939 	0.059269
35.39 	0.049141 	4945 	0.048667
35.41 	0.051969 	4926 	0.050661
35.43 	0.060409 	4933 	0.059222
35.45 	0.056715 	4937 	0.055409
35.47 	0.059014 	4931 	0.057945
35.49 	0.060081 	4910 	0.058888
35.51 	0.055014 	4926 	0.054539
35.53 	0.064660 	4949 	0.063358
35.55 	0.061881 	4945 	0.060677
35.57 	0.053517 	4933 	0.053042
35.59 	0.057634 	4945 	0.056686
35.61 	0.057062 	4942 	0.056114
35.63 	0.061703 	4943 	0.061111
35.65 	0.059656 	4945 	0.058472
35.67 	0.050992 	4942 	0.049806
35.69 	0.050546 	4946 	0.050072
35.71 	0.052461 	4937 	0.051512
35.73 	0.057536 	4936 	0.056824
35.75 	0.060434 	4931 	0.059602
35.77 	0.060594 	4951 	0.059056
35.79 	0.057178 	4932 	0.056465
35.81 	0.061829 	4933 	0.060879
35.83 	0.051759 	4946 	0.050456
35.85 	0.059372 	4935 	0.058066
35.87 	0.053220 	4923 	0.052268
35.89 	0.057560 	4934 	0.056135
35.91 	0.060483 	4927 	0.059532
35.93 	0.059671 	4927 	0.059196
35.95 	0.055522 	4917 	0.054569
35.97 	0.054967 	4912 	0.054490
35.99 	0.054667 	4939 	0.053362
36.01 	0.057606 	4930 	0.056181
36.03 	0.058871 	4943 	0.057548
36.05 	0.058443 	4945 	0.057614
36.07 	0.058109 	4939 	0.057397
36.09 	0.059109 	4940 	0.057805
36.11 	0.057618 	4929 	0.056786
36.13 	0.055848 	4942 	0.054544
36.15 	0.053047 	4939 	0.052810
36.17 	0.062741 	4925 	0.061076
36.19 	0.046964 	4940 	0.046489
36.21 	0.054372 	4929 	0.053540
36.23 	0.060385 	4935 	0.059159
36.25 	0.058693 	4941 	0.057981
36.27 	0.057462 	4925 	0.055916
36.29 	0.055567 	4931 	0.054854
36.31 	0.057630 	4928 	0.056679
36.33 	0.055342 	4933 	0.054510
36.35 	0.057010 	4929 	0.056178
36.37 	0.059923 	4923 	0.058852
36.39 	0.055680 	4921 	0.054727
36.41 	0.059845 	4896 	0.059247
36.43 	0.061282 	4928 	0.060332
36.45 	0.054564 	4930 	0.053732
36.47 	0.059360 	4936 	0.058272
36.49 	0.058478 	4942 	0.057293
36.51 	0.060409 	4933 	0.058866
36.53 	0.052600 	4943 	0.052007
36.55 	0.052365 	4927 	0.050938
36.57 	0.056952 	4934 	0.056239
36.59 	0.053857 	4939 	0.053264
36.61 	0.060637 	4931 	0.059805
36.63 	0.056378 	4931 	0.055784
36.65 	0.059205 	4932 	0.058493
36.67 	0.053753 	4930 	0.052921
36.69 	0.058835 	4929 	0.057885
36.71 	0.056493 	4921 	0.055183
36.73 	0.063147 	4925 	0.062196
36.75 	0.060073 	4944 	0.059006
36.77 	0.054889 	4919 	0.054413
36.79 	0.056696 	4921 	0.055743
36.81 	0.060212 	4916 	0.059000
36.83 	0.051882 	4915 	0.050790
36.85 	0.059412 	4898 	0.058336
36.87 	0.063107 	4944 	0.061922
36.89 	0.061025 	4916 	0.060072
36.91 	0.058085 	4941 	0.057730
36.93 	0.060243 	4930 	0.059530
36.95 	0.058585 	4933 	0.057754
36.97 	0.053101 	4934 	0.052151
36.99 	0.058967 	4935 	0.058017
37.01 	0.058585 	4933 	0.057160
37.03 	0.057271 	4924 	0.056438
37.05 	0.063730 	4927 	0.063017
37.07 	0.056130 	4935 	0.055536
37.09 	0.057630 	4928 	0.056798
37.11 	0.054914 	4935 	0.053707
37.13 	0.054427 	4924 	0.053832
37.15 	0.051742 	4909 	0.051384
37.17 	0.054114 	4934 	0.053521
37.19 	0.050355 	4925 	0.049642
37.21 	0.058166 	4917 	0.056955
37.23 	0.060187 	4918 	0.059115
37.25 	0.051517 	4911 	0.050662
37.27 	0.059665 	4894 	0.058468
37.29 	0.058215 	4930 	0.057383
37.31 	0.054711 	4935 	0.053999
37.33 	0.059671 	4927 	0.058582
37.35 	0.052855 	4938 	0.052144
37.37 	0.055612 	4927 	0.054542
37.39 	0.056378 	4931 	0.055546
37.41 	0.052525 	4931 	0.051456
37.43 	0.050487 	4932 	0.050249
37.45 	0.054224 	4924 	0.053629
37.47 	0.054778 	4929 	0.053946
37.49 	0.055454 	4923 	0.054859
37.51 	0.058990 	4933 	0.057922
37.53 	0.055499 	4919 	0.054427
37.55 	0.057404 	4930 	0.056453
37.57 	0.051574 	4925 	0.050979
37.59 	0.055951 	4915 	0.054879
37.61 	0.056075 	4922 	0.055123
37.63 	0.056922 	4919 	0.056208
37.65 	0.055917 	4918 	0.054964
37.67 	0.052814 	4904 	0.051839
37.69 	0.052062 	4898 	0.050866
37.71 	0.057415 	4929 	0.056227
37.73 	0.051735 	4929 	0.051497
37.75 	0.053644 	4940 	0.052695
37.77 	0.059553 	4920 	0.058838
37.79 	0.056795 	4930 	0.055845
37.81 	0.054531 	4933 	0.053462
37.83 	0.054675 	4920 	0.053365
37.85 	0.057903 	4922 	0.056832
37.87 	0.052845 	4939 	0.051639
37.89 	0.055635 	4925 	0.054564
37.91 	0.051318 	4930 	0.050368
37.93 	0.057125 	4919 	0.055935
37.95 	0.057712 	4921 	0.057355
37.97 	0.054981 	4929 	0.054268
37.99 	0.050692 	4912 	0.049719
38.01 	0.053571 	4928 	0.052739
38.03 	0.061316 	4909 	0.060242
38.05 	0.058883 	4925 	0.058051
38.07 	0.055001 	4909 	0.053311
38.09 	0.056376 	4878 	0.055415
38.11 	0.059777 	4935 	0.058946
38.13 	0.056309 	4937 	0.055716
38.15 	0.060594 	4918 	0.059284
38.17 	0.059635 	4930 	0.058922
38.19 	0.054564 	4930 	0.053376
38.21 	0.057282 	4923 	0.056449
38.23 	0.058728 	4938 	0.057661
38.25 	0.061623 	4917 	0.060193
38.27 	0.059432 	4930 	0.058481
38.29 	0.059301 	4924 	0.058944
38.31 	0.060686 	4927 	0.059973
38.33 	0.072705 	4924 	0.071278
38.35 	0.064732 	4928 	0.063662
38.37 	0.062957 	4924 	0.061529
38.39 	0.070890 	4909 	0.069578
38.41 	0.072517 	4923 	0.070088
38.43 	0.077299 	4916 	0.075988
38.45 	0.078284 	4918 	0.076358
38.47 	0.070715 	4907 	0.069641
38.49 	0.081403 	4877 	0.080442
38.51 	0.079481 	4932 	0.077462
38.53 	0.068574 	4929 	0.067742
38.55 	0.088128 	4936 	0.086210
38.57 	0.077189 	4923 	0.075523
38.59 	0.077579 	4924 	0.075656
38.61 	0.081037 	4936 	0.079020
38.63 	0.074127 	4924 	0.072223
38.65 	0.072997 	4918 	0.071210
38.67 	0.074337 	4937 	0.072794
38.69 	0.072735 	4922 	0.070573
38.71 	0.072705 	4924 	0.070901
38.73 	0.076047 	4918 	0.074221
38.75 	0.071037 	4927 	0.069472
38.77 	0.073329 	4923 	0.071782
38.79 	0.065464 	4934 	0.064257
38.81 	0.059446 	4912 	0.058373
38.83 	0.069933 	4919 	0.068504
38.85 	0.062704 	4912 	0.061273
38.87 	0.061291 	4911 	0.060695
38.89 	0.057178 	4897 	0.056341
38.91 	0.056904 	4903 	0.055948
38.93 	0.059741 	4938 	0.058910
38.95 	0.051240 	4918 	0.050645
38.97 	0.064084 	4931 	0.063372
38.99 	0.050841 	4937 	0.049753
39.01 	0.049004 	4918 	0.048389
39.03 	0.054317 	4934 	0.053842
39.05 	0.051574 	4925 	0.050503
39.07 	0.049756 	4924 	0.048091
39.09 	0.046516 	4923 	0.046040
39.11 	0.048469 	4931 	0.047756
39.13 	0.052610 	4923 	0.051777
39.15 	0.049847 	4915 	0.049371
39.17 	0.047802 	4937 	0.046497
39.19 	0.054301 	4917 	0.052852
39.21 	0.051527 	4910 	0.050931
39.23 	0.046497 	4925 	0.046260
39.25 	0.042869 	4922 	0.042512
39.27 	0.042363 	4910 	0.041766
39.29 	0.047337 	4901 	0.046979
39.31 	0.047502 	4884 	0.046543
39.33 	0.049077 	4931 	0.048483
39.35 	0.047822 	4935 	0.047109
39.37 	0.044634 	4929 	0.043921
39.39 	0.045242 	4929 	0.044529
39.41 	0.044818 	4931 	0.044225
39.43 	0.050476 	4933 	0.049408
39.45 	0.043858 	4925 	0.042906
39.47 	0.047126 	4923 	0.046888
39.49 	0.049868 	4933 	0.049156
39.51 	0.045695 	4924 	0.045318
39.53 	0.047938 	4923 	0.047224
39.55 	0.039236 	4919 	0.038997
39.57 	0.046017 	4933 	0.045304
39.59 	0.044381 	4912 	0.043785
39.61 	0.044688 	4923 	0.043974
39.63 	0.045713 	4922 	0.044880
39.65 	0.045473 	4926 	0.044878
39.67 	0.042947 	4913 	0.042470
39.69 	0.046176 	4916 	0.045222
39.71 	0.044127 	4895 	0.043289
39.73 	0.043806 	4908 	0.043567
39.75 	0.045860 	4928 	0.045623
39.77 	0.043972 	4935 	0.043497
39.79 	0.042631 	4926 	0.042512
39.81 	0.047899 	4927 	0.047543
39.83 	0.046007 	4934 	0.045651
39.85 	0.049523 	4927 	0.049166
39.87 	0.043655 	4925 	0.042703
39.89 	0.046615 	4934 	0.046497
39.91 	0.047338 	4922 	0.045791
39.93 	0.042941 	4937 	0.042585
39.95 	0.048016 	4915 	0.047540
39.97 	0.047484 	4928 	0.046771
39.99 	0.043390 	4932 	0.043034
40.01 	0.041277 	4918 	0.040681
40.03 	0.040990 	4928 	0.040515
40.05 	0.043116 	4917 	0.042520
40.07 	0.043469 	4923 	0.043231
40.09 	0.043735 	4916 	0.043020
40.11 	0.041294 	4916 	0.040936
40.13 	0.041054 	4896 	0.040815
40.15 	0.040098 	4913 	0.039740
40.17 	0.039164 	4928 	0.037975
40.19 	0.040779 	4929 	0.040185
40.21 	0.040527 	4935 	0.039676
40.23 	0.043593 	4932 	0.043237
40.25 	0.043496 	4920 	0.043020
40.27 	0.042131 	4937 	0.041538
40.29 	0.042825 	4927 	0.042469
40.31 	0.041304 	4939 	0.040948
40.33 	0.038929 	4932 	0.038454
40.35 	0.043708 	4919 	0.042994
40.37 	0.041388 	4929 	0.041031
40.39 	0.040560 	4931 	0.040322
40.41 	0.044873 	4925 	0.043803
40.43 	0.034945 	4922 	0.034707
40.45 	0.041962 	4933 	0.041487
40.47 	0.042294 	4918 	0.041579
40.49 	0.038774 	4926 	0.038417
40.51 	0.042666 	4922 	0.042428
40.53 	0.040480 	4916 	0.039765
40.55 	0.035249 	4908 	0.035010
40.57 	0.039264 	4890 	0.039024
40.59 	0.042941 	4937 	0.042348
40.61 	0.041135 	4935 	0.040660
40.63 	0.045030 	4930 	0.044674
40.65 	0.042739 	4937 	0.041908
40.67 	0.043593 	4932 	0.042524
40.69 	0.044156 	4937 	0.043563
40.71 	0.038727 	4932 	0.038252
40.73 	0.038368 	4926 	0.037654
40.75 	0.038532 	4931 	0.038175
40.77 	0.040089 	4939 	0.039615
40.79 	0.045898 	4924 	0.045184
40.81 	0.038049 	4941 	0.037456
40.83 	0.044846 	4928 	0.044251
40.85 	0.049756 	4924 	0.049043
40.87 	0.038352 	4928 	0.038115
40.89 	0.039749 	4931 	0.039036
40.91 	0.045907 	4923 	0.045312
40.93 	0.043373 	4934 	0.042660
40.95 	0.041726 	4913 	0.041130
40.97 	0.049147 	4924 	0.048909
40.99 	0.045288 	4924 	0.044456
41.01 	0.040309 	4912 	0.040190
41.03 	0.043833 	4905 	0.043355
41.05 	0.045583 	4936 	0.044753
41.07 	0.040568 	4930 	0.039855
41.09 	0.044746 	4939 	0.044153
41.11 	0.037690 	4935 	0.037334
41.13 	0.042139 	4936 	0.041546
41.15 	0.041490 	4941 	0.040897
41.17 	0.044589 	4934 	0.043876
41.19 	0.041176 	4930 	0.040939
41.21 	0.042131 	4937 	0.041775
41.23 	0.040089 	4939 	0.039615
41.25 	0.040949 	4933 	0.040474
41.27 	0.046441 	4931 	0.045609
41.29 	0.042005 	4928 	0.041411
41.31 	0.041962 	4933 	0.041250
41.33 	0.041118 	4937 	0.040406
41.35 	0.036857 	4938 	0.036620
41.37 	0.040008 	4924 	0.039770
41.39 	0.042570 	4933 	0.042214
41.41 	0.033090 	4926 	0.032971
41.43 	0.039359 	4929 	0.038389
41.45 	0.040090 	4914 	0.039732
41.47 	0.041413 	4926 	0.040937
41.49 	0.042723 	4892 	0.042124
41.51 	0.039069 	4940 	0.038713
41.53 	0.041667 	4944 	0.041193
41.55 	0.040932 	4935 	0.040339
41.57 	0.040882 	4941 	0.040290
41.59 	0.043584 	4933 	0.042634
41.61 	0.037351 	4953 	0.036878
41.63 	0.038680 	4938 	0.038442
41.65 	0.046865 	4929 	0.046152
41.67 	0.041498 	4940 	0.040786
41.69 	0.035779 	4947 	0.035661
41.71 	0.042764 	4934 	0.042290
41.73 	0.037277 	4936 	0.036684
41.75 	0.038142 	4929 	0.037904
41.77 	0.042704 	4941 	0.042585
41.79 	0.040049 	4944 	0.039812
41.81 	0.038695 	4936 	0.038458
41.83 	0.041396 	4928 	0.041277
41.85 	0.034622 	4939 	0.034504
41.87 	0.038906 	4935 	0.038431
41.89 	0.039935 	4933 	0.039341
41.91 	0.040519 	4936 	0.040163
41.93 	0.033455 	4932 	0.033455
41.95 	0.037923 	4931 	0.037448
41.97 	0.039072 	4914 	0.038714
41.99 	0.044444 	4905 	0.043728
42.01 	0.043302 	4942 	0.042828
42.03 	0.041101 	4939 	0.040390
42.05 	0.043821 	4952 	0.043466
42.07 	0.037877 	4937 	0.037165
42.09 	0.039208 	4948 	0.038734
42.11 	0.038423 	4945 	0.038067
42.13 	0.043478 	4945 	0.043004
42.15 	0.037262 	4938 	0.037025
42.17 	0.036397 	4918 	0.036278
42.19 	0.040342 	4908 	0.039865
42.21 	0.037135 	4901 	0.036657
42.23 	0.037817 	4892 	0.037817
42.25 	0.038454 	4889 	0.037974
42.27 	0.040829 	4874 	0.040468
42.29 	0.036192 	4863 	0.036192
42.31 	0.034192 	4855 	0.034071
42.33 	0.042615 	4834 	0.042009
42.35 	0.039066 	4838 	0.038339
42.37 	0.038302 	4830 	0.038060
42.39 	0.038301 	4804 	0.038058
42.41 	0.043505 	4804 	0.042652
42.43 	0.040484 	4792 	0.040117
42.45 	0.036851 	4776 	0.036360
42.47 	0.035677 	4765 	0.035185
42.49 	0.035887 	4765 	0.035641
42.51 	0.038794 	4743 	0.038176
42.53 	0.039763 	4728 	0.038648
42.55 	0.043543 	4708 	0.042423
42.57 	0.042706 	4730 	0.041344
42.59 	0.034468 	4729 	0.033973
42.61 	0.036321 	4708 	0.035699
42.63 	0.036101 	4709 	0.035728
42.65 	0.037780 	4685 	0.036509
42.67 	0.042058 	4684 	0.041308
42.69 	0.034660 	4674 	0.034284
42.71 	0.034098 	4663 	0.034098
42.73 	0.039655 	4640 	0.039276
42.75 	0.038553 	4617 	0.038173
42.77 	0.038261 	4600 	0.037624
42.79 	0.035792 	4582 	0.035153
42.81 	0.032004 	4562 	0.031490
42.83 	0.033069 	4536 	0.032681
42.85 	0.035998 	4528 	0.035610
42.87 	0.039120 	4499 	0.038599
42.89 	0.034598 	4480 	0.034206
42.91 	0.037253 	4456 	0.036990
42.93 	0.038686 	4446 	0.038028
42.95 	0.035779 	4416 	0.035514
42.97 	0.038400 	4401 	0.037735
42.99 	0.040593 	4385 	0.039791
43.01 	0.037818 	4363 	0.037415
43.03 	0.038772 	4333 	0.038231
43.05 	0.036532 	4325 	0.036396
43.07 	0.034916 	4296 	0.034371
43.09 	0.036190 	4283 	0.035779
43.11 	0.037368 	4255 	0.036817
43.13 	0.033750 	4237 	0.032921
43.15 	0.041607 	4206 	0.041468
43.17 	0.039962 	4179 	0.039401
43.19 	0.039819 	4194 	0.039679
43.21 	0.041227 	4172 	0.040806
43.23 	0.038276 	4154 	0.037571
43.25 	0.038452 	4135 	0.038027
43.27 	0.034105 	4105 	0.033962
43.29 	0.036829 	4100 	0.036544
43.31 	0.041922 	4079 	0.041468
43.33 	0.037522 	4051 	0.036943
43.35 	0.040923 	4032 	0.040632
43.37 	0.040349 	4015 	0.039911
43.39 	0.042979 	4002 	0.042686
43.41 	0.039778 	3972 	0.039631
43.43 	0.035101 	3960 	0.034657
43.45 	0.032529 	3935 	0.032231
43.47 	0.040551 	3921 	0.040401
43.49 	0.039261 	3897 	0.038660
43.51 	0.038948 	3877 	0.038797
43.53 	0.037277 	3863 	0.036822
43.55 	0.044872 	2964 	0.044477
43.57 	0.046023 	2238 	0.044976
43.59 	0.032646 	1746 	0.032646
43.61 	0.036269 	1351 	0.036269
43.63 	0.024975 	1001 	0.024975
43.65 	0.040757 	687 	0.039904
43.67 	0.035857 	502 	0.035857
43.69 	0.038147 	367 	0.036551
43.71 	0.050209 	239 	0.050209
43.73 	0.075000 	120 	0.070118
43.75 	0.062500 	16 	0.062500