File: Example_Data/25SC_s1_0042.000.dat
#F C:\frames\spec\25SC_s1_0042.000
#C title =s:42 frm:0 25SC_s1
#C wavelength =0.15406

#S 1  fr_average C:\frames\spec\25SC_s1_0042.000 C:\win32app\speccom\mask.axs chi 0 180 0 360 0.02
#C 2 theta =0.000000 to 180 deg
#C   q   =0.000000 to 81.568 nm^-1
#C  chi  =0.000000 to 360 deg
#C collumns:
#C  1 position (2theta or chi in degrees)
#C  2 average intensity (sum of all counts in the region divided with number of pixels)
#C  3 Number of pixels in region)
#C  4 error (sum of sqrt(intensity) for all pixels divided by number)
#N 4
#L TTh  Int  N_pix  Err
32.99 	0.016393 	61 	0.016393
33.01 	0.054983 	873 	0.054983
33.03 	0.064702 	1391 	0.063859
33.05 	0.065452 	1757 	0.064786
33.07 	0.061951 	2050 	0.061665
33.09 	0.057520 	2347 	0.056771
33.11 	0.065917 	2579 	0.063381
33.13 	0.061583 	2793 	0.060744
33.15 	0.065022 	2999 	0.064045
33.17 	0.063418 	3201 	0.062137
33.19 	0.058348 	3342 	0.057472
33.21 	0.064901 	3436 	0.063196
33.23 	0.062447 	3523 	0.061422
33.25 	0.058416 	3612 	0.057768
33.27 	0.055647 	3630 	0.054679
33.29 	0.062500 	3648 	0.061537
33.31 	0.061202 	3660 	0.060402
33.33 	0.065383 	3686 	0.063634
33.35 	0.060097 	3694 	0.058327
33.37 	0.066774 	3714 	0.065828
33.39 	0.058997 	3729 	0.058055
33.41 	0.067380 	3740 	0.066283
33.43 	0.062749 	3761 	0.061971
33.45 	0.064405 	3773 	0.063473
33.47 	0.055292 	3798 	0.054521
33.49 	0.067997 	3809 	0.066920
33.51 	0.056881 	3815 	0.055806
33.53 	0.062484 	3841 	0.062026
33.55 	0.059849 	3843 	0.058782
33.57 	0.063451 	3877 	0.061638
33.59 	0.056186 	3880 	0.055280
33.61 	0.063699 	3909 	0.061552
33.63 	0.054861 	3919 	0.053192
33.65 	0.064615 	3931 	0.063273
33.67 	0.054375 	3954 	0.053635
33.69 	0.064002 	3953 	0.063113
33.71 	0.061635 	3975 	0.060456
33.73 	0.058442 	4004 	0.057856
33.75 	0.059265 	3999 	0.057946
33.77 	0.060124 	4025 	0.058960
33.79 	0.061866 	4041 	0.061431
33.81 	0.056464 	4038 	0.055738
33.83 	0.059506 	4050 	0.058204
33.85 	0.053184 	4099 	0.052898
33.87 	0.058380 	4111 	0.057074
33.89 	0.065033 	4121 	0.063753
33.91 	0.058568 	4149 	0.057580
33.93 	0.062395 	4151 	0.061830
33.95 	0.057163 	4181 	0.056019
33.97 	0.052745 	4190 	0.051766
33.99 	0.064286 	4200 	0.062752
34.01 	0.056492 	4213 	0.055379
34.03 	0.062677 	4244 	0.061711
34.05 	0.058561 	4252 	0.057321
34.07 	0.056232 	4268 	0.054860
34.09 	0.063696 	4286 	0.062739
34.11 	0.059275 	4302 	0.058435
34.13 	0.062210 	4308 	0.061122
34.15 	0.060956 	4331 	0.059739
34.17 	0.063678 	4350 	0.063005
34.19 	0.061898 	4362 	0.061227
34.21 	0.056738 	4371 	0.056068
34.23 	0.058275 	4393 	0.057741
34.25 	0.052906 	4404 	0.052086
34.27 	0.053596 	4422 	0.052933
34.29 	0.057723 	4435 	0.057062
34.31 	0.059668 	4458 	0.058091
34.33 	0.056587 	4471 	0.055277
34.35 	0.064228 	4484 	0.063575
34.37 	0.061234 	4491 	0.059668
34.39 	0.058418 	4502 	0.057616
34.41 	0.057667 	4526 	0.057149
34.43 	0.057281 	4539 	0.056378
34.45 	0.065491 	4535 	0.064070
34.47 	0.052483 	4592 	0.051972
34.49 	0.056776 	4597 	0.056394
34.51 	0.056448 	4606 	0.056194
34.53 	0.054921 	4643 	0.053660
34.55 	0.057937 	4643 	0.056801
34.57 	0.053004 	4660 	0.051747
34.59 	0.057112 	4675 	0.055734
34.61 	0.053864 	4697 	0.053365
34.63 	0.062208 	4710 	0.060840
34.65 	0.053802 	4721 	0.052561
34.67 	0.050622 	4741 	0.050252
34.69 	0.060791 	4754 	0.059559
34.71 	0.056441 	4766 	0.055335
34.73 	0.055149 	4787 	0.054048
34.75 	0.057404 	4808 	0.056064
34.77 	0.057700 	4818 	0.057092
34.79 	0.063018 	4824 	0.061561
34.81 	0.052012 	4845 	0.050682
34.83 	0.053682 	4862 	0.052597
34.85 	0.049702 	4869 	0.048740
34.87 	0.058546 	4868 	0.057342
34.89 	0.057354 	4882 	0.056274
34.91 	0.054281 	4882 	0.053441
34.93 	0.057359 	4899 	0.056522
34.95 	0.054601 	4890 	0.054122
34.97 	0.050184 	4902 	0.049467
34.99 	0.060037 	4897 	0.059080
35.01 	0.057079 	4923 	0.056365
35.03 	0.055230 	4943 	0.054519
35.05 	0.056802 	4947 	0.056328
35.07 	0.056883 	4940 	0.056053
35.09 	0.051080 	4953 	0.050607
35.11 	0.057813 	4947 	0.056747
35.13 	0.056676 	4958 	0.056203
35.15 	0.064006 	4937 	0.061752
35.17 	0.051961 	4946 	0.051606
35.19 	0.059490 	4942 	0.058779
35.21 	0.051972 	4945 	0.051616
35.23 	0.060263 	4945 	0.059197
35.25 	0.062310 	4943 	0.060869
35.27 	0.058003 	4948 	0.057056
35.29 	0.056825 	4945 	0.055996
35.31 	0.052706 	4933 	0.052113
35.33 	0.051386 	4943 	0.050319
35.35 	0.055848 	4942 	0.055137
35.37 	0.054262 	4939 	0.053412
35.39 	0.061881 	4945 	0.060459
35.41 	0.060698 	4926 	0.059609
35.43 	0.061018 	4933 	0.059811
35.45 	0.059753 	4937 	0.058685
35.47 	0.054553 	4931 	0.053484
35.49 	0.057434 	4910 	0.056479
35.51 	0.056029 	4926 	0.055197
35.53 	0.049909 	4949 	0.049317
35.55 	0.057634 	4945 	0.056449
35.57 	0.061018 	4933 	0.060068
35.59 	0.054803 	4945 	0.053855
35.61 	0.056455 	4942 	0.055981
35.63 	0.059276 	4943 	0.057617
35.65 	0.050556 	4945 	0.049372
35.67 	0.058883 	4942 	0.058290
35.69 	0.059644 	4946 	0.058460
35.71 	0.056917 	4937 	0.056324
35.73 	0.055308 	4936 	0.054715
35.75 	0.056986 	4931 	0.056135
35.77 	0.065239 	4951 	0.063820
35.79 	0.057380 	4932 	0.056391
35.81 	0.059599 	4933 	0.058510
35.83 	0.058229 	4946 	0.056926
35.85 	0.060182 	4935 	0.058877
35.87 	0.060126 	4923 	0.058460
35.89 	0.058370 	4934 	0.057302
35.91 	0.051350 	4927 	0.050636
35.93 	0.053785 	4927 	0.052834
35.95 	0.057352 	4917 	0.056280
35.97 	0.058428 	4912 	0.057474
35.99 	0.058716 	4939 	0.057530
36.01 	0.055984 	4930 	0.055271
36.03 	0.051588 	4943 	0.050621
36.05 	0.059454 	4945 	0.058388
36.07 	0.059121 	4939 	0.057935
36.09 	0.054049 	4940 	0.053811
36.11 	0.058024 	4929 	0.056717
36.13 	0.057669 	4942 	0.056602
36.15 	0.054869 	4939 	0.053921
36.17 	0.053807 	4925 	0.052449
36.19 	0.054656 	4940 	0.053351
36.21 	0.059241 	4929 	0.057914
36.23 	0.063425 	4935 	0.062119
36.25 	0.057883 	4941 	0.056935
36.27 	0.052792 	4925 	0.052554
36.29 	0.056378 	4931 	0.055309
36.31 	0.061080 	4928 	0.059891
36.33 	0.060409 	4933 	0.058727
36.35 	0.061067 	4929 	0.059621
36.37 	0.060735 	4923 	0.059545
36.39 	0.059541 	4921 	0.058231
36.41 	0.056373 	4896 	0.055535
36.43 	0.055195 	4928 	0.054244
36.45 	0.055578 	4930 	0.054865
36.47 	0.055713 	4936 	0.054764
36.49 	0.058276 	4942 	0.057446
36.51 	0.054733 	4933 	0.054021
36.53 	0.056039 	4943 	0.054617
36.55 	0.054597 	4927 	0.054122
36.57 	0.064856 	4934 	0.063550
36.59 	0.057299 	4939 	0.056587
36.61 	0.055567 	4931 	0.054854
36.63 	0.061651 	4931 	0.059988
36.65 	0.055758 	4932 	0.055164
36.67 	0.051724 	4930 	0.050774
36.69 	0.058835 	4929 	0.057885
36.71 	0.061979 	4921 	0.060789
36.73 	0.057462 	4925 	0.056273
36.75 	0.061084 	4944 	0.059524
36.77 	0.064647 	4919 	0.063080
36.79 	0.061573 	4921 	0.060859
36.81 	0.059805 	4916 	0.058971
36.83 	0.057375 	4915 	0.056184
36.85 	0.053083 	4898 	0.052605
36.87 	0.061084 	4944 	0.059662
36.89 	0.058381 	4916 	0.056832
36.91 	0.058085 	4941 	0.057256
36.93 	0.053550 	4930 	0.052361
36.95 	0.054531 	4933 	0.054056
36.97 	0.061208 	4934 	0.060021
36.99 	0.054711 	4935 	0.054118
37.01 	0.056963 	4933 	0.056013
37.03 	0.057271 	4924 	0.056795
37.05 	0.056018 	4927 	0.054710
37.07 	0.059574 	4935 	0.058862
37.09 	0.058644 	4928 	0.057812
37.11 	0.058967 	4935 	0.057542
37.13 	0.055646 	4924 	0.055170
37.15 	0.051742 	4909 	0.050787
37.17 	0.054114 	4934 	0.053758
37.19 	0.052183 	4925 	0.051707
37.21 	0.060199 	4917 	0.058651
37.23 	0.061000 	4918 	0.060286
37.25 	0.062309 	4911 	0.061713
37.27 	0.060074 	4894 	0.059355
37.29 	0.056389 	4930 	0.055063
37.31 	0.061601 	4935 	0.060038
37.33 	0.057236 	4927 	0.055908
37.35 	0.057108 	4938 	0.055922
37.37 	0.056830 	4927 	0.055997
37.39 	0.062868 	4931 	0.061185
37.41 	0.056581 	4931 	0.055630
37.43 	0.056164 	4932 	0.055808
37.45 	0.048741 	4924 	0.048027
37.47 	0.058633 	4929 	0.057444
37.49 	0.058501 	4923 	0.057430
37.51 	0.058585 	4933 	0.057616
37.53 	0.055296 	4919 	0.054562
37.55 	0.057201 	4930 	0.055894
37.57 	0.050355 	4925 	0.049285
37.59 	0.056358 	4915 	0.054809
37.61 	0.058716 	4922 	0.058002
37.63 	0.055499 	4919 	0.054765
37.65 	0.053477 	4918 	0.052643
37.67 	0.061378 	4904 	0.060901
37.69 	0.050633 	4898 	0.049915
37.71 	0.062082 	4929 	0.060893
37.73 	0.054778 	4929 	0.053708
37.75 	0.056883 	4940 	0.055815
37.77 	0.054675 	4920 	0.053603
37.79 	0.056998 	4930 	0.056523
37.81 	0.051693 	4933 	0.050980
37.83 	0.059553 	4920 	0.058581
37.85 	0.055668 	4922 	0.054597
37.87 	0.060336 	4939 	0.059862
37.89 	0.053604 	4925 	0.052177
37.91 	0.065720 	4930 	0.065126
37.93 	0.059158 	4919 	0.058325
37.95 	0.051412 	4921 	0.050817
37.97 	0.051938 	4929 	0.051224
37.99 	0.057207 	4912 	0.056611
38.01 	0.054180 	4928 	0.053586
38.03 	0.055816 	4909 	0.055219
38.05 	0.056041 	4925 	0.055089
38.07 	0.059075 	4909 	0.058121
38.09 	0.059861 	4878 	0.058660
38.11 	0.056940 	4935 	0.055734
38.13 	0.058132 	4937 	0.057658
38.15 	0.060390 	4918 	0.059557
38.17 	0.057404 	4930 	0.056810
38.19 	0.065314 	4930 	0.063651
38.21 	0.062360 	4923 	0.061408
38.23 	0.067639 	4938 	0.066690
38.25 	0.069758 	4917 	0.068547
38.27 	0.067343 	4930 	0.066630
38.29 	0.073924 	4924 	0.072139
38.31 	0.080170 	4927 	0.078387
38.33 	0.071690 	4924 	0.070857
38.35 	0.072849 	4928 	0.071898
38.37 	0.081235 	4924 	0.079807
38.39 	0.082909 	4909 	0.081338
38.41 	0.082470 	4923 	0.080447
38.43 	0.081367 	4916 	0.079580
38.45 	0.081334 	4918 	0.078813
38.47 	0.089872 	4907 	0.087067
38.49 	0.086734 	4877 	0.084071
38.51 	0.088808 	4932 	0.086432
38.53 	0.085007 	4929 	0.082373
38.55 	0.081645 	4936 	0.080340
38.57 	0.081861 	4923 	0.079481
38.59 	0.079407 	4924 	0.078217
38.61 	0.082455 	4936 	0.080557
38.63 	0.076361 	4924 	0.074219
38.65 	0.068930 	4918 	0.067739
38.67 	0.070893 	4937 	0.070063
38.69 	0.068265 	4922 	0.066837
38.71 	0.071690 	4924 	0.069886
38.73 	0.066897 	4918 	0.065349
38.75 	0.065354 	4927 	0.064522
38.77 	0.058704 	4923 	0.057514
38.79 	0.058370 	4934 	0.058014
38.81 	0.058225 	4912 	0.057151
38.83 	0.053873 	4919 	0.053039
38.85 	0.055375 	4912 	0.054301
38.87 	0.046019 	4911 	0.045065
38.89 	0.051256 	4897 	0.050777
38.91 	0.050989 	4903 	0.049555
38.93 	0.052450 	4938 	0.051383
38.95 	0.054494 	4918 	0.053660
38.97 	0.051105 	4931 	0.050492
38.99 	0.051651 	4937 	0.051295
39.01 	0.047987 	4918 	0.047272
39.03 	0.047426 	4934 	0.046832
39.05 	0.048325 	4925 	0.047492
39.07 	0.047725 	4924 	0.047131
39.09 	0.048141 	4923 	0.047051
39.11 	0.048469 	4931 	0.047756
39.13 	0.048141 	4923 	0.047546
39.15 	0.046185 	4915 	0.045470
39.17 	0.045574 	4937 	0.045218
39.19 	0.049014 	4917 	0.047803
39.21 	0.045214 	4910 	0.044975
39.23 	0.048122 	4925 	0.047765
39.25 	0.045510 	4922 	0.044320
39.27 	0.043788 	4910 	0.042933
39.29 	0.045297 	4901 	0.044819
39.31 	0.042383 	4884 	0.041784
39.33 	0.046846 	4931 	0.046015
39.35 	0.044782 	4935 	0.044545
39.37 	0.046257 	4929 	0.045544
39.39 	0.043417 	4929 	0.042585
39.41 	0.045224 	4931 	0.044868
39.43 	0.043989 	4933 	0.043277
39.45 	0.051168 	4925 	0.050216
39.47 	0.052001 	4923 	0.050811
39.49 	0.042773 	4933 	0.042298
39.51 	0.051178 	4924 	0.050464
39.53 	0.046313 	4923 	0.045480
39.55 	0.043505 	4919 	0.042909
39.57 	0.042773 	4933 	0.042773
39.59 	0.042956 	4912 	0.042240
39.61 	0.046110 	4923 	0.045515
39.63 	0.044900 	4922 	0.044305
39.65 	0.041007 	4926 	0.040888
39.67 	0.046204 	4913 	0.045489
39.69 	0.050448 	4916 	0.049852
39.71 	0.048008 	4895 	0.047051
39.73 	0.041565 	4908 	0.040729
39.75 	0.043222 	4928 	0.042271
39.77 	0.042553 	4935 	0.041841
39.79 	0.046082 	4926 	0.045844
39.81 	0.044652 	4927 	0.043939
39.83 	0.045805 	4934 	0.044617
39.85 	0.052162 	4927 	0.051092
39.87 	0.046497 	4925 	0.046260
39.89 	0.046413 	4934 	0.045700
39.91 	0.039009 	4922 	0.038771
39.93 	0.039498 	4937 	0.039379
39.95 	0.049644 	4915 	0.049286
39.97 	0.043628 	4928 	0.042558
39.99 	0.043593 	4932 	0.043237
40.01 	0.045344 	4918 	0.044748
40.03 	0.038555 	4928 	0.038080
40.05 	0.044133 	4917 	0.042941
40.07 	0.041438 	4923 	0.040962
40.09 	0.048820 	4916 	0.047629
40.11 	0.043328 	4916 	0.042851
40.13 	0.041462 	4896 	0.041223
40.15 	0.044779 	4913 	0.043706
40.17 	0.047078 	4928 	0.046008
40.19 	0.050517 	4929 	0.050161
40.21 	0.042148 	4935 	0.041792
40.23 	0.041363 	4932 	0.040412
40.25 	0.038821 	4920 	0.038583
40.27 	0.044764 	4937 	0.044289
40.29 	0.042013 	4927 	0.041776
40.31 	0.045151 	4939 	0.044914
40.33 	0.043998 	4932 	0.043405
40.35 	0.043301 	4919 	0.042468
40.37 	0.043214 	4929 	0.042857
40.39 	0.041371 	4931 	0.041015
40.41 	0.043655 	4925 	0.043179
40.43 	0.044697 	4922 	0.043983
40.45 	0.043381 	4933 	0.042788
40.47 	0.042294 	4918 	0.042055
40.49 	0.045270 	4926 	0.045151
40.51 	0.042666 	4922 	0.042428
40.53 	0.041497 	4916 	0.041021
40.55 	0.043602 	4908 	0.043244
40.57 	0.039877 	4890 	0.039638
40.59 	0.039093 	4937 	0.038262
40.61 	0.041945 	4935 	0.041352
40.63 	0.048276 	4930 	0.047682
40.65 	0.048815 	4937 	0.048340
40.67 	0.043593 	4932 	0.042643
40.69 	0.041118 	4937 	0.040525
40.71 	0.041768 	4932 	0.041293
40.73 	0.040195 	4926 	0.039481
40.75 	0.043602 	4931 	0.042889
40.77 	0.045758 	4939 	0.045264
40.79 	0.041430 	4924 	0.041073
40.81 	0.044728 	4941 	0.044491
40.83 	0.044034 	4928 	0.042845
40.85 	0.043461 	4924 	0.043342
40.87 	0.039773 	4928 	0.039278
40.89 	0.048063 	4931 	0.047469
40.91 	0.043063 	4923 	0.042468
40.93 	0.042764 	4934 	0.042290
40.95 	0.037045 	4913 	0.036448
40.97 	0.043054 	4924 	0.042460
40.99 	0.038383 	4924 	0.037789
41.01 	0.042956 	4912 	0.042240
41.03 	0.043629 	4905 	0.042912
41.05 	0.042950 	4936 	0.042356
41.07 	0.041379 	4930 	0.040904
41.09 	0.041506 	4939 	0.040795
41.11 	0.037487 	4935 	0.036894
41.13 	0.043152 	4936 	0.042322
41.15 	0.039061 	4941 	0.038824
41.17 	0.033441 	4934 	0.033323
41.19 	0.045639 	4930 	0.045164
41.21 	0.038080 	4937 	0.037605
41.23 	0.039482 	4939 	0.039007
41.25 	0.040746 	4933 	0.040509
41.27 	0.045224 	4931 	0.045105
41.29 	0.040990 	4928 	0.040871
41.31 	0.040341 	4933 	0.039509
41.33 	0.044764 	4937 	0.044289
41.35 	0.034832 	4938 	0.034357
41.37 	0.044882 	4924 	0.044287
41.39 	0.039732 	4933 	0.039139
41.41 	0.042631 	4926 	0.041799
41.43 	0.045445 	4929 	0.045326
41.45 	0.043346 	4914 	0.042750
41.47 	0.047300 	4926 	0.046468
41.49 	0.039452 	4892 	0.038973
41.51 	0.042308 	4940 	0.041833
41.53 	0.041060 	4944 	0.040537
41.55 	0.039311 	4935 	0.038599
41.57 	0.040275 	4941 	0.039801
41.59 	0.041557 	4933 	0.040963
41.61 	0.042600 	4953 	0.041773
41.63 	0.040502 	4938 	0.040146
41.65 	0.045445 	4929 	0.044376
41.67 	0.044534 	4940 	0.044060
41.69 	0.041439 	4947 	0.041202
41.71 	0.039116 	4934 	0.038167
41.73 	0.040316 	4936 	0.040079
41.75 	0.037939 	4929 	0.037582
41.77 	0.040478 	4941 	0.040122
41.79 	0.034992 	4944 	0.034518
41.81 	0.043152 	4936 	0.042084
41.83 	0.040179 	4928 	0.039941
41.85 	0.040089 	4939 	0.039496
41.87 	0.046201 	4935 	0.045488
41.89 	0.041151 	4933 	0.040676
41.91 	0.043963 	4936 	0.043369
41.93 	0.035888 	4932 	0.035275
41.95 	0.041168 	4931 	0.040693
41.97 	0.041718 	4914 	0.040764
41.99 	0.036901 	4905 	0.036543
42.01 	0.037434 	4942 	0.036842
42.03 	0.039684 	4939 	0.039328
42.05 	0.035339 	4952 	0.034748
42.07 	0.041726 	4937 	0.041251
42.09 	0.044462 	4948 	0.043870
42.11 	0.038423 	4945 	0.038067
42.13 	0.044287 	4945 	0.044050
42.15 	0.041515 	4938 	0.040922
42.17 	0.033754 	4918 	0.033515
42.19 	0.040546 	4908 	0.040188
42.21 	0.033259 	4901 	0.033139
42.23 	0.045176 	4892 	0.045056
42.25 	0.038863 	4889 	0.038484
42.27 	0.044112 	4874 	0.043751
42.29 	0.040099 	4863 	0.039737
42.31 	0.037075 	4855 	0.036955
42.33 	0.039719 	4834 	0.039597
42.35 	0.039066 	4838 	0.038460
42.37 	0.039545 	4830 	0.039059
42.39 	0.043297 	4804 	0.042688
42.41 	0.041424 	4804 	0.041058
42.43 	0.046536 	4792 	0.046169
42.45 	0.043132 	4776 	0.042764
42.47 	0.039035 	4765 	0.038543
42.49 	0.036936 	4765 	0.036444
42.51 	0.035421 	4743 	0.035174
42.53 	0.034898 	4728 	0.034403
42.55 	0.040782 	4708 	0.039911
42.57 	0.034884 	4730 	0.034388
42.59 	0.033411 	4729 	0.033039
42.61 	0.032923 	4708 	0.032674
42.63 	0.040985 	4709 	0.040737
42.65 	0.037780 	4685 	0.036905
42.67 	0.039923 	4684 	0.039548
42.69 	0.038297 	4674 	0.037294
42.71 	0.037744 	4663 	0.037367
42.73 	0.034052 	4640 	0.033925
42.75 	0.032705 	4617 	0.032578
42.77 	0.033261 	4600 	0.032751
42.79 	0.037102 	4582 	0.036590
42.81 	0.036826 	4562 	0.036569
42.83 	0.041005 	4536 	0.040618
42.85 	0.036882 	4528 	0.036364
42.87 	0.039342 	4499 	0.038951
42.89 	0.035491 	4480 	0.035099
42.91 	0.036355 	4456 	0.035435
42.93 	0.043185 	4446 	0.042658
42.95 	0.040082 	4416 	0.039286
42.97 	0.042263 	4401 	0.041598
42.99 	0.031015 	4385 	0.030614
43.01 	0.041027 	4363 	0.040758
43.03 	0.038080 	4333 	0.037945
43.05 	0.037225 	4325 	0.036413
43.07 	0.039106 	4296 	0.039106
43.09 	0.042260 	4283 	0.041576
43.11 	0.035488 	4255 	0.034799
43.13 	0.036582 	4237 	0.036444
43.15 	0.038279 	4206 	0.037722
43.17 	0.039722 	4179 	0.039162
43.19 	0.036242 	4194 	0.035684
43.21 	0.038591 	4172 	0.038450
43.23 	0.038758 	4154 	0.038617
43.25 	0.036276 	4135 	0.035992
43.27 	0.042387 	4105 	0.041817
43.29 	0.036341 	4100 	0.036056
43.31 	0.037754 	4079 	0.037467
43.33 	0.037768 	4051 	0.037335
43.35 	0.039931 	4032 	0.039640
43.37 	0.036364 	4015 	0.035926
43.39 	0.035982 	4002 	0.035543
43.41 	0.037764 	3972 	0.037617
43.43 	0.040152 	3960 	0.039856
43.45 	0.034307 	3935 	0.034307
43.47 	0.037235 	3921 	0.037235
43.49 	0.035925 	3897 	0.035474
43.51 	0.036626 	3877 	0.036148
43.53 	0.035982 	3863 	0.035831
43.55 	0.033738 	2964 	0.033541
43.57 	0.033512 	2238 	0.033250
43.59 	0.036655 	1746 	0.036320
43.61 	0.031828 	1351 	0.031395
43.63 	0.041958 	1001 	0.041373
43.65 	0.033479 	687 	0.033479
43.67 	0.031873 	502 	0.031873
43.69 	0.038147 	367 	0.036551
43.71 	0.037657 	239 	0.037657
43.73 	0.033333 	120 	0.033333
43.75 	0.000000 	16 	0.000000