File: Example_Data/25SC_s1_0001.000.dat
#F C:\frames\spec\25SC_s1_0001.000
#C title =s:1 frm:0 25SC_s1
#C wavelength =0.15406

#S 1  fr_average C:\frames\spec\25SC_s1_0001.000 C:\win32app\speccom\mask.axs chi 0 180 0 360 0.02
#C 2 theta =0.000000 to 180 deg
#C   q   =0.000000 to 81.568 nm^-1
#C  chi  =0.000000 to 360 deg
#C collumns:
#C  1 position (2theta or chi in degrees)
#C  2 average intensity (sum of all counts in the region divided with number of pixels)
#C  3 Number of pixels in region)
#C  4 error (sum of sqrt(intensity) for all pixels divided by number)
#N 4
#L TTh  Int  N_pix  Err
32.99 	0.032787 	61 	0.032787
33.01 	0.038946 	873 	0.038275
33.03 	0.023005 	1391 	0.023005
33.05 	0.042686 	1757 	0.042020
33.07 	0.038049 	2050 	0.038049
33.09 	0.027695 	2347 	0.027695
33.11 	0.031795 	2579 	0.031795
33.13 	0.035446 	2793 	0.035026
33.15 	0.035012 	2999 	0.035012
33.17 	0.030303 	3201 	0.030120
33.19 	0.039497 	3342 	0.038796
33.21 	0.030268 	3436 	0.029586
33.23 	0.035765 	3523 	0.035432
33.25 	0.032669 	3612 	0.032507
33.27 	0.033884 	3630 	0.033884
33.29 	0.034814 	3648 	0.034492
33.31 	0.039617 	3660 	0.038977
33.33 	0.033641 	3686 	0.033164
33.35 	0.036004 	3694 	0.035529
33.37 	0.033926 	3714 	0.033295
33.39 	0.041030 	3729 	0.040558
33.41 	0.031818 	3740 	0.031505
33.43 	0.032970 	3761 	0.032658
33.45 	0.036046 	3773 	0.035735
33.47 	0.035018 	3798 	0.034401
33.49 	0.029929 	3809 	0.029622
33.51 	0.034600 	3815 	0.033833
33.53 	0.035407 	3841 	0.034950
33.55 	0.030185 	3843 	0.029880
33.57 	0.033789 	3877 	0.033638
33.59 	0.031701 	3880 	0.031248
33.61 	0.033512 	3909 	0.033363
33.63 	0.030620 	3919 	0.030321
33.65 	0.033579 	3931 	0.033430
33.67 	0.032625 	3954 	0.032329
33.69 	0.037693 	3953 	0.036804
33.71 	0.038491 	3975 	0.038343
33.73 	0.033467 	4004 	0.033320
33.75 	0.034759 	3999 	0.034759
33.77 	0.037267 	4025 	0.036685
33.79 	0.036130 	4041 	0.035695
33.81 	0.034671 	4038 	0.034090
33.83 	0.031358 	4050 	0.031213
33.85 	0.032691 	4099 	0.031976
33.87 	0.027730 	4111 	0.027588
33.89 	0.030090 	4121 	0.029805
33.91 	0.035189 	4149 	0.034766
33.93 	0.036618 	4151 	0.035912
33.95 	0.032528 	4181 	0.032108
33.97 	0.030549 	4190 	0.030409
33.99 	0.030238 	4200 	0.029959
34.01 	0.035367 	4213 	0.034950
34.03 	0.032752 	4244 	0.032614
34.05 	0.032455 	4252 	0.032318
34.07 	0.035614 	4268 	0.035042
34.09 	0.032431 	4286 	0.032021
34.11 	0.039284 	4302 	0.039012
34.13 	0.037140 	4308 	0.036732
34.15 	0.037405 	4331 	0.036728
34.17 	0.034253 	4350 	0.033984
34.19 	0.036222 	4362 	0.035819
34.21 	0.030428 	4371 	0.030294
34.23 	0.037332 	4393 	0.036932
34.25 	0.035422 	4404 	0.035156
34.27 	0.029625 	4422 	0.029492
34.29 	0.027508 	4435 	0.027508
34.31 	0.032301 	4458 	0.032301
34.33 	0.036010 	4471 	0.035617
34.35 	0.030999 	4484 	0.030868
34.37 	0.037408 	4491 	0.036995
34.39 	0.031986 	4502 	0.031465
34.41 	0.037782 	4526 	0.037523
34.43 	0.033488 	4539 	0.033100
34.45 	0.032856 	4535 	0.032468
34.47 	0.033537 	4592 	0.033281
34.49 	0.033718 	4597 	0.033335
34.51 	0.034303 	4606 	0.033794
34.53 	0.032307 	4643 	0.031424
34.55 	0.033384 	4643 	0.033257
34.57 	0.030043 	4660 	0.029917
34.59 	0.038289 	4675 	0.037662
34.61 	0.034490 	4697 	0.034490
34.63 	0.033121 	4710 	0.032479
34.65 	0.032832 	4721 	0.032832
34.67 	0.037756 	4741 	0.036767
34.69 	0.031342 	4754 	0.030972
34.71 	0.035669 	4766 	0.035178
34.73 	0.036348 	4787 	0.036104
34.75 	0.035150 	4808 	0.035028
34.77 	0.034662 	4818 	0.034540
34.79 	0.031924 	4824 	0.031559
34.81 	0.034469 	4845 	0.034227
34.83 	0.036610 	4862 	0.036008
34.85 	0.033066 	4869 	0.032826
34.87 	0.034306 	4868 	0.033704
34.89 	0.034412 	4882 	0.034292
34.91 	0.033183 	4882 	0.032943
34.93 	0.032456 	4899 	0.032216
34.95 	0.032311 	4890 	0.031832
34.97 	0.031620 	4902 	0.031142
34.99 	0.027976 	4897 	0.027737
35.01 	0.032704 	4923 	0.032228
35.03 	0.036415 	4943 	0.036060
35.05 	0.032343 	4947 	0.032106
35.07 	0.035628 	4940 	0.035035
35.09 	0.031294 	4953 	0.031176
35.11 	0.035981 	4947 	0.035745
35.13 	0.034893 	4958 	0.034657
35.15 	0.034029 	4937 	0.033791
35.17 	0.029317 	4946 	0.028843
35.19 	0.031971 	4942 	0.031852
35.21 	0.035592 	4945 	0.035118
35.23 	0.035592 	4945 	0.035355
35.25 	0.031560 	4943 	0.031323
35.27 	0.033751 	4948 	0.033633
35.29 	0.032558 	4945 	0.032203
35.31 	0.036894 	4933 	0.036063
35.33 	0.033178 	4943 	0.033178
35.35 	0.031971 	4942 	0.031852
35.37 	0.033813 	4939 	0.033219
35.39 	0.033165 	4945 	0.032691
35.41 	0.035526 	4926 	0.035169
35.43 	0.033448 	4933 	0.032854
35.45 	0.028357 	4937 	0.028239
35.47 	0.029609 	4931 	0.029252
35.49 	0.036456 	4910 	0.036456
35.51 	0.031669 	4926 	0.031431
35.53 	0.032936 	4949 	0.032581
35.55 	0.032558 	4945 	0.032440
35.57 	0.035273 	4933 	0.034798
35.59 	0.031345 	4945 	0.030989
35.61 	0.032376 	4942 	0.032257
35.63 	0.032774 	4943 	0.032418
35.65 	0.031749 	4945 	0.031275
35.67 	0.033792 	4942 	0.033199
35.69 	0.036595 	4946 	0.035648
35.71 	0.033624 	4937 	0.033505
35.73 	0.035049 	4936 	0.035049
35.75 	0.039546 	4931 	0.039189
35.77 	0.032115 	4951 	0.031168
35.79 	0.031225 	4932 	0.030987
35.81 	0.034056 	4933 	0.033581
35.83 	0.035989 	4946 	0.035278
35.85 	0.032827 	4935 	0.032589
35.87 	0.034329 	4923 	0.034210
35.89 	0.032833 	4934 	0.032477
35.91 	0.038360 	4927 	0.038241
35.93 	0.031053 	4927 	0.030816
35.95 	0.031320 	4917 	0.031201
35.97 	0.037663 	4912 	0.037186
35.99 	0.031180 	4939 	0.031062
36.01 	0.031846 	4930 	0.031727
36.03 	0.035404 	4943 	0.035167
36.05 	0.030738 	4945 	0.030620
36.07 	0.032395 	4939 	0.032158
36.09 	0.033401 	4940 	0.033282
36.11 	0.027998 	4929 	0.027522
36.13 	0.033792 	4942 	0.033318
36.15 	0.028548 	4939 	0.028311
36.17 	0.038376 	4925 	0.037662
36.19 	0.036032 	4940 	0.035321
36.21 	0.030635 	4929 	0.030516
36.23 	0.037893 	4935 	0.037537
36.25 	0.035013 	4941 	0.034776
36.27 	0.033909 	4925 	0.033790
36.29 	0.039951 	4931 	0.039357
36.31 	0.034700 	4928 	0.034581
36.33 	0.036286 	4933 	0.036049
36.35 	0.036316 	4929 	0.035959
36.37 	0.030875 	4923 	0.030400
36.39 	0.031701 	4921 	0.030510
36.41 	0.031046 	4896 	0.030547
36.43 	0.035106 	4928 	0.034987
36.45 	0.034686 	4930 	0.034329
36.47 	0.032618 	4936 	0.032380
36.49 	0.034197 	4942 	0.034078
36.51 	0.033245 	4933 	0.033127
36.53 	0.033381 	4943 	0.033262
36.55 	0.030647 	4927 	0.030529
36.57 	0.031212 	4934 	0.031093
36.59 	0.033610 	4939 	0.033373
36.61 	0.036301 	4931 	0.035826
36.63 	0.032651 	4931 	0.032175
36.65 	0.035685 	4932 	0.035329
36.67 	0.033469 	4930 	0.033112
36.69 	0.033881 	4929 	0.033525
36.71 	0.031904 	4921 	0.031289
36.73 	0.035533 	4925 	0.034819
36.75 	0.037621 	4944 	0.036910
36.77 	0.031307 	4919 	0.030712
36.79 	0.036781 	4921 	0.036543
36.81 	0.037632 	4916 	0.037394
36.83 	0.029705 	4915 	0.029467
36.85 	0.034912 	4898 	0.034434
36.87 	0.037217 	4944 	0.036624
36.89 	0.033767 	4916 	0.033291
36.91 	0.034406 	4941 	0.034050
36.93 	0.037931 	4930 	0.037456
36.95 	0.040949 	4933 	0.040236
36.97 	0.032833 	4934 	0.032477
36.99 	0.033232 	4935 	0.032995
37.01 	0.032637 	4933 	0.032044
37.03 	0.031682 	4924 	0.031206
37.05 	0.033286 	4927 	0.033048
37.07 	0.032624 	4935 	0.032031
37.09 	0.032265 	4928 	0.032027
37.11 	0.032827 	4935 	0.032471
37.13 	0.034931 	4924 	0.034812
37.15 	0.037482 	4909 	0.037005
37.17 	0.032631 	4934 	0.032512
37.19 	0.030254 	4925 	0.030135
37.21 	0.032744 	4917 	0.032148
37.23 	0.034770 	4918 	0.034651
37.25 	0.032580 	4911 	0.032580
37.27 	0.033715 	4894 	0.033116
37.29 	0.034483 	4930 	0.034245
37.31 	0.036069 	4935 	0.035950
37.33 	0.029227 	4927 	0.028751
37.35 	0.035237 	4938 	0.034881
37.37 	0.034098 	4927 	0.033503
37.39 	0.032448 	4931 	0.032329
37.41 	0.036301 	4931 	0.036182
37.43 	0.033658 	4932 	0.033539
37.45 	0.035946 	4924 	0.035708
37.47 	0.032258 	4929 	0.031783
37.49 	0.032297 	4923 	0.032178
37.51 	0.032029 	4933 	0.031910
37.53 	0.034153 	4919 	0.033439
37.55 	0.033469 	4930 	0.032855
37.57 	0.031675 	4925 	0.031675
37.59 	0.029908 	4915 	0.029551
37.61 	0.036164 	4922 	0.035569
37.63 	0.033137 	4919 	0.032780
37.65 	0.028264 	4918 	0.028025
37.67 	0.032423 	4904 	0.032184
37.69 	0.037362 	4898 	0.037243
37.71 	0.030432 	4929 	0.030194
37.73 	0.032461 	4929 	0.032223
37.75 	0.032186 	4940 	0.031949
37.77 	0.024593 	4920 	0.024593
37.79 	0.035700 	4930 	0.035343
37.81 	0.029191 	4933 	0.029072
37.83 	0.029065 	4920 	0.029065
37.85 	0.033320 	4922 	0.033082
37.87 	0.030168 	4939 	0.029812
37.89 	0.035736 	4925 	0.035379
37.91 	0.030629 	4930 	0.030272
37.93 	0.032120 	4919 	0.032001
37.95 	0.032514 	4921 	0.032276
37.97 	0.032867 	4929 	0.032629
37.99 	0.030334 	4912 	0.029857
38.01 	0.035106 	4928 	0.034868
38.03 	0.029334 	4909 	0.029215
38.05 	0.036142 	4925 	0.035666
38.07 	0.029130 	4909 	0.028772
38.09 	0.034645 	4878 	0.034405
38.11 	0.033840 	4935 	0.033484
38.13 	0.036662 	4937 	0.036168
38.15 	0.033957 	4918 	0.033600
38.17 	0.036714 	4930 	0.035982
38.19 	0.033874 	4930 	0.033518
38.21 	0.035141 	4923 	0.034903
38.23 	0.035439 	4938 	0.035321
38.25 	0.037014 	4917 	0.036657
38.27 	0.037931 	4930 	0.037456
38.29 	0.042648 	4924 	0.042053
38.31 	0.035924 	4927 	0.035806
38.33 	0.036962 	4924 	0.036486
38.35 	0.047281 	4928 	0.046924
38.37 	0.040820 	4924 	0.040345
38.39 	0.041353 	4909 	0.040756
38.41 	0.046313 	4923 	0.045718
38.43 	0.042718 	4916 	0.042241
38.45 	0.042904 	4918 	0.042308
38.47 	0.054208 	4907 	0.052776
38.49 	0.050031 	4877 	0.049550
38.51 	0.046837 	4932 	0.046362
38.53 	0.044431 	4929 	0.043718
38.55 	0.049635 	4936 	0.048686
38.57 	0.043673 	4923 	0.043197
38.59 	0.044273 	4924 	0.043559
38.61 	0.041329 	4936 	0.041092
38.63 	0.042648 	4924 	0.041815
38.65 	0.037820 	4918 	0.037701
38.67 	0.039498 	4937 	0.039498
38.69 	0.045307 	4922 	0.044474
38.71 	0.042242 	4924 	0.041528
38.73 	0.033754 	4918 	0.033515
38.75 	0.034301 	4927 	0.033825
38.77 	0.032297 	4923 	0.031068
38.79 	0.034252 	4934 	0.033777
38.81 	0.031352 	4912 	0.030994
38.83 	0.032324 	4919 	0.032085
38.85 	0.029112 	4912 	0.028993
38.87 	0.033802 	4911 	0.033802
38.89 	0.029610 	4897 	0.029490
38.91 	0.029574 	4903 	0.029215
38.93 	0.031794 	4938 	0.031557
38.95 	0.025824 	4918 	0.025585
38.97 	0.027986 	4931 	0.027511
38.99 	0.026737 	4937 	0.026618
39.01 	0.030297 	4918 	0.030059
39.03 	0.028780 	4934 	0.028661
39.05 	0.029036 	4925 	0.028917
39.07 	0.028229 	4924 	0.027991
39.09 	0.028641 	4923 	0.028522
39.11 	0.030420 	4931 	0.029945
39.13 	0.027422 	4923 	0.027422
39.15 	0.024212 	4915 	0.024212
39.17 	0.026939 	4937 	0.026702
39.19 	0.025422 	4917 	0.025303
39.21 	0.027902 	4910 	0.027902
39.23 	0.026802 	4925 	0.026683
39.25 	0.026818 	4922 	0.026818
39.27 	0.026273 	4910 	0.025915
39.29 	0.031014 	4901 	0.030536
39.31 	0.025594 	4884 	0.025354
39.33 	0.027986 	4931 	0.027867
39.35 	0.024721 	4935 	0.024603
39.37 	0.026577 	4929 	0.026201
39.39 	0.026577 	4929 	0.026459
39.41 	0.023119 	4931 	0.023000
39.43 	0.031218 	4933 	0.030981
39.45 	0.023350 	4925 	0.023093
39.47 	0.026610 	4923 	0.026372
39.49 	0.025542 	4933 	0.025424
39.51 	0.027011 	4924 	0.026892
39.53 	0.024579 	4923 	0.024222
39.55 	0.022972 	4919 	0.022853
39.57 	0.029597 	4933 	0.029478
39.59 	0.025651 	4912 	0.025294
39.61 	0.027016 	4923 	0.026659
39.63 	0.025803 	4922 	0.025445
39.65 	0.026188 	4926 	0.025712
39.67 	0.023407 	4913 	0.023407
39.69 	0.026241 	4916 	0.026122
39.71 	0.023493 	4895 	0.023374
39.73 	0.028932 	4908 	0.028455
39.75 	0.026177 	4928 	0.025939
39.77 	0.027761 	4935 	0.027523
39.79 	0.028015 	4926 	0.028015
39.81 	0.024964 	4927 	0.024846
39.83 	0.027361 	4934 	0.027242
39.85 	0.024964 	4927 	0.024846
39.87 	0.021117 	4925 	0.021117
39.89 	0.027564 	4934 	0.027326
39.91 	0.023568 	4922 	0.023092
39.93 	0.026939 	4937 	0.026346
39.95 	0.030112 	4915 	0.030112
39.97 	0.028206 	4928 	0.027968
39.99 	0.027778 	4932 	0.027303
40.01 	0.023383 	4918 	0.023383
40.03 	0.022930 	4928 	0.022811
40.05 	0.025015 	4917 	0.024896
40.07 	0.026407 	4923 	0.026288
40.09 	0.026037 	4916 	0.026037
40.11 	0.025427 	4916 	0.025189
40.13 	0.025327 	4896 	0.025207
40.15 	0.020151 	4913 	0.020031
40.17 	0.021104 	4928 	0.020985
40.19 	0.021302 	4929 	0.021184
40.21 	0.026545 	4935 	0.026070
40.23 	0.024331 	4932 	0.024212
40.25 	0.025813 	4920 	0.025575
40.27 	0.023901 	4937 	0.023427
40.29 	0.023950 	4927 	0.023831
40.31 	0.023689 	4939 	0.023333
40.33 	0.023723 	4932 	0.023604
40.35 	0.024802 	4919 	0.024802
40.37 	0.023940 	4929 	0.023940
40.39 	0.025755 	4931 	0.025637
40.41 	0.026396 	4925 	0.026396
40.43 	0.025599 	4922 	0.025123
40.45 	0.022299 	4933 	0.022061
40.47 	0.023790 	4918 	0.023671
40.49 	0.026594 	4926 	0.025999
40.51 	0.026209 	4922 	0.026209
40.53 	0.024410 	4916 	0.024410
40.55 	0.026080 	4908 	0.025841
40.57 	0.027403 	4890 	0.027283
40.59 	0.025319 	4937 	0.024844
40.61 	0.028571 	4935 	0.028334
40.63 	0.027383 	4930 	0.026908
40.65 	0.026332 	4937 	0.026332
40.67 	0.022912 	4932 	0.022674
40.69 	0.023091 	4937 	0.023091
40.71 	0.022101 	4932 	0.021982
40.73 	0.030045 	4926 	0.029549
40.75 	0.024133 	4931 	0.024133
40.77 	0.024094 	4939 	0.023975
40.79 	0.025995 	4924 	0.025995
40.81 	0.023072 	4941 	0.022717
40.83 	0.024148 	4928 	0.023791
40.85 	0.027620 	4924 	0.027263
40.87 	0.021104 	4928 	0.020985
40.89 	0.023930 	4931 	0.023930
40.91 	0.023969 	4923 	0.023731
40.93 	0.023713 	4934 	0.023594
40.95 	0.021779 	4913 	0.021779
40.97 	0.024980 	4924 	0.024980
40.99 	0.024980 	4924 	0.024980
41.01 	0.026466 	4912 	0.026466
41.03 	0.022630 	4905 	0.022272
41.05 	0.023703 	4936 	0.023585
41.07 	0.026166 	4930 	0.026166
41.09 	0.023487 	4939 	0.023368
41.11 	0.021682 	4935 	0.021682
41.13 	0.025932 	4936 	0.025695
41.15 	0.025096 	4941 	0.025096
41.17 	0.020470 	4934 	0.020470
41.19 	0.024949 	4930 	0.024712
41.21 	0.024509 	4937 	0.024390
41.23 	0.026726 	4939 	0.026726
41.25 	0.022502 	4933 	0.022244
41.27 	0.024539 	4931 	0.024539
41.29 	0.026583 	4928 	0.026583
41.31 	0.026353 	4933 	0.026116
41.33 	0.022281 	4937 	0.022162
41.35 	0.025314 	4938 	0.025077
41.37 	0.025183 	4924 	0.024826
41.39 	0.023718 	4933 	0.023718
41.41 	0.023955 	4926 	0.023836
41.43 	0.023331 	4929 	0.023212
41.45 	0.020757 	4914 	0.020638
41.47 	0.019285 	4926 	0.019285
41.49 	0.027187 	4892 	0.027068
41.51 	0.022267 	4940 	0.022267
41.53 	0.020429 	4944 	0.020429
41.55 	0.023506 	4935 	0.023387
41.57 	0.022263 	4941 	0.022026
41.59 	0.026759 	4933 	0.026284
41.61 	0.023420 	4953 	0.023420
41.63 	0.022276 	4938 	0.022158
41.65 	0.022926 	4929 	0.022688
41.67 	0.026923 	4940 	0.026686
41.69 	0.026076 	4947 	0.025958
41.71 	0.022902 	4934 	0.022784
41.73 	0.024919 	4936 	0.024682
41.75 	0.020897 	4929 	0.020659
41.77 	0.025299 	4941 	0.025180
41.79 	0.026092 	4944 	0.025855
41.81 	0.020867 	4936 	0.020748
41.83 	0.023742 	4928 	0.023266
41.85 	0.026119 	4939 	0.025763
41.87 	0.027153 	4935 	0.026797
41.89 	0.023921 	4933 	0.023802
41.91 	0.023703 	4936 	0.023703
41.93 	0.027575 	4932 	0.027575
41.95 	0.024539 	4931 	0.024420
41.97 	0.024217 	4914 	0.024097
41.99 	0.020387 	4905 	0.020268
42.01 	0.022461 	4942 	0.022342
42.03 	0.022069 	4939 	0.021832
42.05 	0.023627 	4952 	0.023509
42.07 	0.024104 	4937 	0.024104
42.09 	0.022029 	4948 	0.022029
42.11 	0.019414 	4945 	0.019295
42.13 	0.022447 	4945 	0.022210
42.15 	0.020859 	4938 	0.020621
42.17 	0.019317 	4918 	0.019198
42.19 	0.023431 	4908 	0.023312
42.21 	0.023057 	4901 	0.022817
42.23 	0.022895 	4892 	0.022655
42.25 	0.021886 	4889 	0.021886
42.27 	0.024210 	4874 	0.023850
42.29 	0.020358 	4863 	0.020358
42.31 	0.023275 	4855 	0.023154
42.33 	0.025859 	4834 	0.025253
42.35 	0.022323 	4838 	0.022323
42.37 	0.028364 	4830 	0.028122
42.39 	0.019983 	4804 	0.019739
42.41 	0.026644 	4804 	0.026523
42.43 	0.023372 	4792 	0.023128
42.45 	0.019054 	4776 	0.019054
42.47 	0.023085 	4765 	0.022839
42.49 	0.019307 	4765 	0.019307
42.51 	0.023825 	4743 	0.023701
42.53 	0.021362 	4728 	0.021238
42.55 	0.022090 	4708 	0.021717
42.57 	0.020507 	4730 	0.020260
42.59 	0.022415 	4729 	0.022291
42.61 	0.023789 	4708 	0.023540
42.63 	0.023360 	4709 	0.022986
42.65 	0.022199 	4685 	0.021803
42.67 	0.016652 	4684 	0.016652
42.69 	0.020111 	4674 	0.019861
42.71 	0.022518 	4663 	0.021963
42.73 	0.021767 	4640 	0.021515
42.75 	0.023175 	4617 	0.023175
42.77 	0.019565 	4600 	0.019565
42.79 	0.018333 	4582 	0.018333
42.81 	0.021263 	4562 	0.021134
42.83 	0.020503 	4536 	0.020503
42.85 	0.015680 	4528 	0.015680
42.87 	0.023783 	4499 	0.023653
42.89 	0.020982 	4480 	0.020982
42.91 	0.025359 	4456 	0.024702
42.93 	0.023842 	4446 	0.023578
42.95 	0.025136 	4416 	0.024738
42.97 	0.021813 	4401 	0.021813
42.99 	0.020981 	4385 	0.020981
43.01 	0.025441 	4363 	0.025307
43.03 	0.021694 	4333 	0.021559
43.05 	0.022428 	4325 	0.022157
43.07 	0.019553 	4296 	0.019553
43.09 	0.017511 	4283 	0.017238
43.11 	0.021857 	4255 	0.021719
43.13 	0.022422 	4237 	0.022283
43.15 	0.021160 	4206 	0.021160
43.17 	0.018665 	4179 	0.018665
43.19 	0.023367 	4194 	0.023227
43.21 	0.021093 	4172 	0.021093
43.23 	0.021425 	4154 	0.021143
43.25 	0.024426 	4135 	0.024142
43.27 	0.021681 	4105 	0.021253
43.29 	0.022683 	4100 	0.022540
43.31 	0.021084 	4079 	0.020940
43.33 	0.019995 	4051 	0.019706
43.35 	0.024802 	4032 	0.024511
43.37 	0.019925 	4015 	0.019779
43.39 	0.021239 	4002 	0.021093
43.41 	0.023917 	3972 	0.023622
43.43 	0.023990 	3960 	0.023694
43.45 	0.020839 	3935 	0.020690
43.47 	0.019638 	3921 	0.019488
43.49 	0.020529 	3897 	0.020529
43.51 	0.014444 	3877 	0.014444
43.53 	0.020709 	3863 	0.020558
43.55 	0.022605 	2964 	0.022407
43.57 	0.026363 	2238 	0.025839
43.59 	0.021764 	1746 	0.021764
43.61 	0.018505 	1351 	0.018505
43.63 	0.018981 	1001 	0.018981
43.65 	0.020378 	687 	0.020378
43.67 	0.017928 	502 	0.017928
43.69 	0.027248 	367 	0.027248
43.71 	0.025105 	239 	0.025105
43.73 	0.025000 	120 	0.025000
43.75 	0.000000 	16 	0.000000