File: Example_Data/25SC_s1_0051.003.dat
#F C:\frames\spec\25SC_s1_0051.003
#C title =s:51 frm:3 25SC_s1
#C wavelength =0.15406

#S 1  fr_average C:\frames\spec\25SC_s1_0051.003 C:\win32app\speccom\mask.axs chi 0 180 0 360 0.02
#C 2 theta =0.000000 to 180 deg
#C   q   =0.000000 to 81.568 nm^-1
#C  chi  =0.000000 to 360 deg
#C collumns:
#C  1 position (2theta or chi in degrees)
#C  2 average intensity (sum of all counts in the region divided with number of pixels)
#C  3 Number of pixels in region)
#C  4 error (sum of sqrt(intensity) for all pixels divided by number)
#N 4
#L TTh  Int  N_pix  Err
32.99 	0.147541 	61 	0.128335
33.01 	0.057274 	873 	0.056603
33.03 	0.064702 	1391 	0.063859
33.05 	0.060330 	1757 	0.059663
33.07 	0.056585 	2050 	0.055728
33.09 	0.058798 	2347 	0.058299
33.11 	0.059325 	2579 	0.057962
33.13 	0.058718 	2793 	0.058508
33.15 	0.055685 	2999 	0.054904
33.17 	0.059356 	3201 	0.058441
33.19 	0.056254 	3342 	0.055377
33.21 	0.056752 	3436 	0.056070
33.23 	0.058189 	3523 	0.057191
33.25 	0.054817 	3612 	0.053655
33.27 	0.054270 	3630 	0.053786
33.29 	0.053728 	3648 	0.052443
33.31 	0.052459 	3660 	0.051632
33.33 	0.048291 	3686 	0.047814
33.35 	0.058202 	3694 	0.056749
33.37 	0.057620 	3714 	0.057304
33.39 	0.062215 	3729 	0.061587
33.41 	0.050802 	3740 	0.049706
33.43 	0.056102 	3761 	0.055635
33.45 	0.053538 	3773 	0.052762
33.47 	0.050553 	3798 	0.049473
33.49 	0.058020 	3809 	0.056790
33.51 	0.054260 	3815 	0.053645
33.53 	0.055194 	3841 	0.053821
33.55 	0.055946 	3843 	0.055031
33.57 	0.058550 	3877 	0.057795
33.59 	0.053866 	3880 	0.053111
33.61 	0.052699 	3909 	0.052099
33.63 	0.058178 	3919 	0.057107
33.65 	0.060290 	3931 	0.059694
33.67 	0.061204 	3954 	0.059870
33.69 	0.061219 	3953 	0.059565
33.71 	0.051824 	3975 	0.050350
33.73 	0.056943 	4004 	0.055480
33.75 	0.052763 	3999 	0.051591
33.77 	0.050932 	4025 	0.050495
33.79 	0.056917 	4041 	0.055757
33.81 	0.053739 	4038 	0.052555
33.83 	0.057531 	4050 	0.056518
33.85 	0.062454 	4099 	0.061740
33.87 	0.054974 	4111 	0.053669
33.89 	0.056782 	4121 	0.056356
33.91 	0.057122 	4149 	0.056557
33.93 	0.057095 	4151 	0.056084
33.95 	0.050945 	4181 	0.050104
33.97 	0.051790 	4190 	0.050649
33.99 	0.060238 	4200 	0.059122
34.01 	0.053406 	4213 	0.052989
34.03 	0.052309 	4244 	0.050515
34.05 	0.052446 	4252 	0.051895
34.07 	0.058810 	4268 	0.057574
34.09 	0.051097 	4286 	0.050687
34.11 	0.050442 	4302 	0.049761
34.13 	0.060353 	4308 	0.059129
34.15 	0.057031 	4331 	0.056084
34.17 	0.051724 	4350 	0.051185
34.19 	0.063044 	4362 	0.062373
34.21 	0.053077 	4371 	0.051871
34.23 	0.054177 	4393 	0.053377
34.25 	0.052225 	4404 	0.051560
34.27 	0.050882 	4422 	0.050220
34.29 	0.050282 	4435 	0.049093
34.31 	0.052939 	4458 	0.051077
34.33 	0.054574 	4471 	0.054028
34.35 	0.054862 	4484 	0.053664
34.37 	0.058784 	4491 	0.057719
34.39 	0.060640 	4502 	0.059989
34.41 	0.056562 	4526 	0.055397
34.43 	0.051333 	4539 	0.050042
34.45 	0.057332 	4535 	0.056557
34.47 	0.052700 	4592 	0.051935
34.49 	0.056341 	4597 	0.055322
34.51 	0.054928 	4606 	0.054420
34.53 	0.058583 	4643 	0.057321
34.55 	0.057291 	4643 	0.055650
34.57 	0.060730 	4660 	0.059850
34.59 	0.051979 	4675 	0.051352
34.61 	0.052800 	4697 	0.052301
34.63 	0.056688 	4710 	0.055672
34.65 	0.054438 	4721 	0.053569
34.67 	0.064754 	4741 	0.063272
34.69 	0.054691 	4754 	0.053582
34.71 	0.060638 	4766 	0.059655
34.73 	0.054105 	4787 	0.052759
34.75 	0.057820 	4808 	0.057089
34.77 	0.051059 	4818 	0.050815
34.79 	0.052032 	4824 	0.051181
34.81 	0.054489 	4845 	0.053482
34.83 	0.055327 	4862 	0.054604
34.85 	0.051551 	4869 	0.051069
34.87 	0.052794 	4868 	0.051951
34.89 	0.061245 	4882 	0.060046
34.91 	0.055920 	4882 	0.055080
34.93 	0.060420 	4899 	0.058866
34.95 	0.055215 	4890 	0.054616
34.97 	0.057120 	4902 	0.055925
34.99 	0.061875 	4897 	0.061037
35.01 	0.051798 	4923 	0.051203
35.03 	0.061299 	4943 	0.060232
35.05 	0.053972 	4947 	0.052788
35.07 	0.047976 	4940 	0.047146
35.09 	0.056935 	4953 	0.055634
35.11 	0.062664 	4947 	0.060750
35.13 	0.052239 	4958 	0.051530
35.15 	0.058132 	4937 	0.057065
35.17 	0.055803 	4946 	0.054381
35.19 	0.054634 	4942 	0.053804
35.21 	0.054601 	4945 	0.053416
35.23 	0.055005 	4945 	0.053939
35.25 	0.058264 	4943 	0.057435
35.27 	0.057599 	4948 	0.057244
35.29 	0.055612 	4945 	0.055019
35.31 	0.053112 	4933 	0.052280
35.33 	0.058669 	4943 	0.057721
35.35 	0.054027 	4942 	0.052367
35.37 	0.060539 	4939 	0.059590
35.39 	0.051365 	4945 	0.050417
35.41 	0.056638 	4926 	0.055449
35.43 	0.053314 	4933 	0.052483
35.45 	0.056715 	4937 	0.055409
35.47 	0.055972 	4931 	0.055240
35.49 	0.053971 	4910 	0.052659
35.51 	0.055217 	4926 	0.054246
35.53 	0.048899 	4949 	0.048544
35.55 	0.053185 	4945 	0.052237
35.57 	0.048855 	4933 	0.047786
35.59 	0.054398 	4945 	0.053806
35.61 	0.055443 	4942 	0.054732
35.63 	0.050172 	4943 	0.048948
35.65 	0.057230 	4945 	0.056519
35.67 	0.058276 	4942 	0.057920
35.69 	0.055196 	4946 	0.054485
35.71 	0.057727 	4937 	0.056383
35.73 	0.053687 	4936 	0.053212
35.75 	0.052728 	4931 	0.051777
35.77 	0.051101 	4951 	0.049918
35.79 	0.052514 	4932 	0.051802
35.81 	0.050679 	4933 	0.049848
35.83 	0.053579 	4946 	0.052986
35.85 	0.051672 	4935 	0.051197
35.87 	0.050173 	4923 	0.049697
35.89 	0.055736 	4934 	0.054548
35.91 	0.054394 	4927 	0.053562
35.93 	0.053785 	4927 	0.052953
35.95 	0.053081 	4917 	0.052485
35.97 	0.061279 	4912 	0.059947
35.99 	0.053047 	4939 	0.052672
36.01 	0.049899 	4930 	0.048829
36.03 	0.049767 	4943 	0.049412
36.05 	0.053792 	4945 	0.052962
36.07 	0.049605 	4939 	0.049249
36.09 	0.048381 	4940 	0.047531
36.11 	0.053763 	4929 	0.052437
36.13 	0.056253 	4942 	0.055186
36.15 	0.061551 	4939 	0.060721
36.17 	0.058071 	4925 	0.057120
36.19 	0.051215 	4940 	0.050385
36.21 	0.055386 	4929 	0.054436
36.23 	0.052888 	4935 	0.052175
36.25 	0.057883 	4941 	0.056697
36.27 	0.056650 	4925 	0.055936
36.29 	0.053336 	4931 	0.053098
36.31 	0.059253 	4928 	0.058659
36.33 	0.050274 	4933 	0.049561
36.35 	0.051126 	4929 	0.050175
36.37 	0.052610 	4923 	0.051758
36.39 	0.048161 	4921 	0.047447
36.41 	0.056373 	4896 	0.055655
36.43 	0.056006 	4928 	0.054818
36.45 	0.056187 	4930 	0.055711
36.47 	0.045989 	4936 	0.045494
36.49 	0.049373 	4942 	0.048780
36.51 	0.048855 	4933 	0.048498
36.53 	0.052195 	4943 	0.051721
36.55 	0.049320 	4927 	0.048845
36.57 	0.051277 	4934 	0.050565
36.59 	0.051225 	4939 	0.050632
36.61 	0.055364 	4931 	0.054414
36.63 	0.049888 	4931 	0.049057
36.65 	0.054339 	4932 	0.053389
36.67 	0.054564 	4930 	0.053851
36.69 	0.052749 	4929 	0.052274
36.71 	0.045316 	4921 	0.045078
36.73 	0.050761 	4925 	0.049691
36.75 	0.057443 	4944 	0.056614
36.77 	0.050010 	4919 	0.049415
36.79 	0.050803 	4921 	0.050327
36.81 	0.051871 	4916 	0.051037
36.83 	0.049644 	4915 	0.049406
36.85 	0.048387 	4898 	0.048028
36.87 	0.054207 	4944 	0.053378
36.89 	0.053092 	4916 	0.052238
36.91 	0.048168 	4941 	0.047319
36.93 	0.051927 	4930 	0.051333
36.95 	0.046219 	4933 	0.045269
36.97 	0.055736 	4934 	0.055023
36.99 	0.050051 	4935 	0.048745
37.01 	0.048449 	4933 	0.047974
37.03 	0.052600 	4924 	0.050914
37.05 	0.053988 	4927 	0.053037
37.07 	0.053901 	4935 	0.053307
37.09 	0.054992 	4928 	0.054041
37.11 	0.055724 	4935 	0.054537
37.13 	0.054224 	4924 	0.053272
37.15 	0.048890 	4909 	0.048293
37.17 	0.052290 	4934 	0.051578
37.19 	0.049949 	4925 	0.049355
37.21 	0.055725 	4917 	0.054772
37.23 	0.053884 	4918 	0.053050
37.25 	0.053350 	4911 	0.052753
37.27 	0.052309 	4894 	0.051830
37.29 	0.052130 	4930 	0.050942
37.31 	0.052077 	4935 	0.051721
37.33 	0.050335 	4927 	0.049740
37.35 	0.047388 	4938 	0.047269
37.37 	0.055409 	4927 	0.054815
37.39 	0.048266 	4931 	0.047672
37.41 	0.041979 	4931 	0.041742
37.43 	0.053122 	4932 	0.052529
37.45 	0.050772 	4924 	0.049701
37.47 	0.051126 	4929 	0.050651
37.49 	0.053829 	4923 	0.052758
37.51 	0.048247 	4933 	0.047534
37.53 	0.050010 	4919 	0.049415
37.55 	0.048884 	4930 	0.048053
37.57 	0.051574 	4925 	0.050840
37.59 	0.049034 	4915 	0.048438
37.61 	0.053230 	4922 	0.052516
37.63 	0.052246 	4919 	0.051036
37.65 	0.050224 	4918 	0.049609
37.67 	0.051183 	4904 	0.050585
37.69 	0.055533 	4898 	0.054456
37.71 	0.050112 	4929 	0.049755
37.73 	0.052140 	4929 	0.051784
37.75 	0.051417 	4940 	0.050468
37.77 	0.047561 	4920 	0.046251
37.79 	0.051318 	4930 	0.050606
37.81 	0.053720 	4933 	0.052889
37.83 	0.052033 	4920 	0.051080
37.85 	0.049573 	4922 	0.048502
37.87 	0.053857 	4939 	0.053027
37.89 	0.048934 	4925 	0.048339
37.91 	0.050710 	4930 	0.049997
37.93 	0.048790 	4919 	0.048433
37.95 	0.051006 	4921 	0.050173
37.97 	0.047474 	4929 	0.047118
37.99 	0.049878 	4912 	0.049162
38.01 	0.043628 	4928 	0.042915
38.03 	0.052760 	4909 	0.051806
38.05 	0.053198 	4925 	0.052365
38.07 	0.051131 	4909 	0.050176
38.09 	0.055761 	4878 	0.054920
38.11 	0.045998 	4935 	0.045761
38.13 	0.051853 	4937 	0.051260
38.15 	0.051444 	4918 	0.049895
38.17 	0.048884 	4930 	0.048033
38.19 	0.051521 	4930 	0.050690
38.21 	0.050782 	4923 	0.049830
38.23 	0.051843 	4938 	0.051131
38.25 	0.051454 	4917 	0.050858
38.27 	0.051318 	4930 	0.050724
38.29 	0.053615 	4924 	0.052782
38.31 	0.047696 	4927 	0.046864
38.33 	0.056458 	4924 	0.055506
38.35 	0.052557 	4928 	0.052081
38.37 	0.058286 	4924 	0.057096
38.39 	0.060501 	4909 	0.059666
38.41 	0.054438 	4923 	0.053248
38.43 	0.058381 	4916 	0.056951
38.45 	0.058357 	4918 	0.057881
38.47 	0.057877 	4907 	0.057041
38.49 	0.059873 	4877 	0.058792
38.51 	0.056772 	4932 	0.055327
38.53 	0.060256 	4929 	0.059642
38.55 	0.058347 	4936 	0.057160
38.57 	0.055454 	4923 	0.054740
38.59 	0.051990 	4924 	0.050920
38.61 	0.056929 	4936 	0.056098
38.63 	0.057271 	4924 	0.056319
38.65 	0.056324 	4918 	0.055013
38.67 	0.052258 	4937 	0.051527
38.69 	0.055262 	4922 	0.054310
38.71 	0.054224 	4924 	0.053491
38.73 	0.053070 	4918 	0.052356
38.75 	0.056830 	4927 	0.055760
38.77 	0.045298 	4923 	0.044703
38.79 	0.045399 	4934 	0.044924
38.81 	0.049064 	4912 	0.048229
38.83 	0.055296 	4919 	0.054443
38.85 	0.045399 	4912 	0.045041
38.87 	0.047445 	4911 	0.046252
38.89 	0.047376 	4897 	0.046778
38.91 	0.047930 	4903 	0.046735
38.93 	0.052653 	4938 	0.051822
38.95 	0.043310 	4918 	0.042477
38.97 	0.046035 	4931 	0.046035
38.99 	0.044359 	4937 	0.043390
39.01 	0.045750 	4918 	0.044678
39.03 	0.042156 	4934 	0.041444
39.05 	0.047919 	4925 	0.046848
39.07 	0.059098 	4924 	0.057532
39.09 	0.047126 	4923 	0.046769
39.11 	0.045021 	4931 	0.044071
39.13 	0.044688 	4923 	0.043855
39.15 	0.043947 	4915 	0.043351
39.17 	0.049220 	4937 	0.048726
39.19 	0.041895 	4917 	0.041300
39.21 	0.043992 	4910 	0.043276
39.23 	0.042234 	4925 	0.041877
39.25 	0.042666 	4922 	0.042071
39.27 	0.050713 	4910 	0.049878
39.29 	0.043665 	4901 	0.043186
39.31 	0.042998 	4884 	0.042038
39.33 	0.044616 	4931 	0.043547
39.35 	0.042148 	4935 	0.041792
39.37 	0.045040 	4929 	0.044326
39.39 	0.041591 	4929 	0.041234
39.41 	0.043805 	4931 	0.043429
39.43 	0.051085 	4933 	0.049541
39.45 	0.046701 	4925 	0.045630
39.47 	0.043063 	4923 	0.042349
39.49 	0.046827 	4933 	0.046709
39.51 	0.046507 	4924 	0.045674
39.53 	0.043063 	4923 	0.042349
39.55 	0.046351 	4919 	0.045755
39.57 	0.047638 	4933 	0.047045
39.59 	0.046010 	4912 	0.045513
39.61 	0.043876 	4923 	0.043043
39.63 	0.046729 	4922 	0.045777
39.65 	0.047300 	4926 	0.046587
39.67 	0.054142 	4913 	0.053188
39.69 	0.042107 	4916 	0.041512
39.71 	0.046578 	4895 	0.046339
39.73 	0.045640 	4908 	0.045043
39.75 	0.043831 	4928 	0.043237
39.77 	0.042351 	4935 	0.042232
39.79 	0.045676 	4926 	0.044705
39.81 	0.046479 	4927 	0.045884
39.83 	0.044386 	4934 	0.044030
39.85 	0.040187 	4927 	0.039830
39.87 	0.046701 	4925 	0.046225
39.89 	0.044589 	4934 	0.044114
39.91 	0.047542 	4922 	0.046232
39.93 	0.047600 	4937 	0.046532
39.95 	0.042930 	4915 	0.042096
39.97 	0.041193 	4928 	0.040599
39.99 	0.040552 	4932 	0.039958
40.01 	0.047174 	4918 	0.046578
40.03 	0.045455 	4928 	0.045098
40.05 	0.047793 	4917 	0.047198
40.07 	0.045298 	4923 	0.044088
40.09 	0.039870 	4916 	0.039036
40.11 	0.042514 	4916 	0.041561
40.13 	0.045343 	4896 	0.044984
40.15 	0.045593 	4913 	0.045474
40.17 	0.042411 	4928 	0.042054
40.19 	0.045445 	4929 	0.044970
40.21 	0.041337 	4935 	0.040506
40.23 	0.039335 	4932 	0.038860
40.25 	0.043699 	4920 	0.042985
40.27 	0.042333 	4937 	0.042096
40.29 	0.041405 	4927 	0.041048
40.31 	0.044948 	4939 	0.044593
40.33 	0.045215 	4932 	0.044384
40.35 	0.044115 	4919 	0.043638
40.37 	0.040373 	4929 	0.039898
40.39 	0.044007 	4931 	0.042938
40.41 	0.043046 	4925 	0.042312
40.43 	0.043885 	4922 	0.042932
40.45 	0.044395 	4933 	0.043920
40.47 	0.040057 	4918 	0.039223
40.49 	0.042428 	4926 	0.042190
40.51 	0.040837 	4922 	0.040361
40.53 	0.037022 	4916 	0.036664
40.55 	0.044214 	4908 	0.043497
40.57 	0.043558 	4890 	0.042840
40.59 	0.039700 	4937 	0.039344
40.61 	0.035461 	4935 	0.035105
40.63 	0.044625 	4930 	0.044149
40.65 	0.043144 	4937 	0.042906
40.67 	0.044201 	4932 	0.043845
40.69 	0.046182 	4937 	0.045470
40.71 	0.045012 	4932 	0.044656
40.73 	0.046082 	4926 	0.045250
40.75 	0.040357 	4931 	0.039763
40.77 	0.041709 	4939 	0.041353
40.79 	0.046507 	4924 	0.045655
40.81 	0.046347 	4941 	0.045517
40.83 	0.045252 	4928 	0.044420
40.85 	0.047929 	4924 	0.047334
40.87 	0.045252 	4928 	0.044301
40.89 	0.039951 	4931 	0.039476
40.91 	0.041032 	4923 	0.040794
40.93 	0.042156 	4934 	0.041682
40.95 	0.037859 	4913 	0.037740
40.97 	0.045695 	4924 	0.045219
40.99 	0.040617 	4924 	0.040617
41.01 	0.041531 	4912 	0.041292
41.03 	0.043221 	4905 	0.042385
41.05 	0.047609 	4936 	0.047491
41.07 	0.039351 	4930 	0.038876
41.09 	0.040899 	4939 	0.040543
41.11 	0.037285 	4935 	0.036929
41.13 	0.040721 	4936 	0.040128
41.15 	0.042704 	4941 	0.041874
41.17 	0.045805 	4934 	0.045092
41.19 	0.041582 	4930 	0.041107
41.21 	0.041726 	4937 	0.041251
41.23 	0.040089 	4939 	0.039615
41.25 	0.040543 	4933 	0.040068
41.27 	0.044413 	4931 	0.043938
41.29 	0.042005 	4928 	0.041292
41.31 	0.042570 	4933 	0.041620
41.33 	0.041321 	4937 	0.040965
41.35 	0.045565 	4938 	0.044616
41.37 	0.042039 	4924 	0.041563
41.39 	0.044192 	4933 	0.043717
41.41 	0.045067 	4926 	0.044472
41.43 	0.040982 	4929 	0.040982
41.45 	0.038869 	4914 	0.038511
41.47 	0.044458 	4926 	0.043744
41.49 	0.040270 	4892 	0.039671
41.51 	0.038664 	4940 	0.038190
41.53 	0.045510 	4944 	0.044917
41.55 	0.044985 	4935 	0.044154
41.57 	0.042299 	4941 	0.041706
41.59 	0.045003 	4933 	0.044647
41.61 	0.043004 	4953 	0.042886
41.63 	0.042122 	4938 	0.042122
41.65 	0.041388 	4929 	0.041031
41.67 	0.039271 	4940 	0.038797
41.69 	0.043056 	4947 	0.042464
41.71 	0.040535 	4934 	0.040060
41.73 	0.039303 	4936 	0.039184
41.75 	0.040779 	4929 	0.040304
41.77 	0.038656 	4941 	0.038182
41.79 	0.041869 	4944 	0.041395
41.81 	0.042747 	4936 	0.042154
41.83 	0.039570 	4928 	0.039094
41.85 	0.043531 	4939 	0.043175
41.87 	0.040122 	4935 	0.039765
41.89 	0.039124 	4933 	0.038531
41.91 	0.044368 	4936 	0.043537
41.93 	0.034063 	4932 	0.033707
41.95 	0.045630 	4931 	0.045392
41.97 	0.039276 	4914 	0.039037
41.99 	0.037717 	4905 	0.037119
42.01 	0.043302 	4942 	0.042591
42.03 	0.036040 	4939 	0.035802
42.05 	0.040388 	4952 	0.040033
42.07 	0.040713 	4937 	0.040120
42.09 	0.041229 	4948 	0.040874
42.11 	0.041456 	4945 	0.040745
42.13 	0.043478 	4945 	0.042886
42.15 	0.040300 	4938 	0.039944
42.17 	0.036397 	4918 	0.036278
42.19 	0.038509 	4908 	0.038150
42.21 	0.035299 	4901 	0.035060
42.23 	0.037204 	4892 	0.036844
42.25 	0.034976 	4889 	0.034737
42.27 	0.044317 	4874 	0.044076
42.29 	0.042155 	4863 	0.041191
42.31 	0.039959 	4855 	0.039114
42.33 	0.038684 	4834 	0.038442
42.35 	0.032245 	4838 	0.032003
42.37 	0.040373 	4830 	0.039888
42.39 	0.038301 	4804 	0.038058
42.41 	0.037885 	4804 	0.037397
42.43 	0.036937 	4792 	0.036692
42.45 	0.039573 	4776 	0.038817
42.47 	0.035677 	4765 	0.035308
42.49 	0.038825 	4765 	0.038702
42.51 	0.037951 	4743 	0.037827
42.53 	0.036591 	4728 	0.036219
42.55 	0.039932 	4708 	0.039808
42.57 	0.045455 	4730 	0.044340
42.59 	0.039966 	4729 	0.039595
42.61 	0.033135 	4708 	0.032762
42.63 	0.039286 	4709 	0.038540
42.65 	0.042689 	4685 	0.042189
42.67 	0.035440 	4684 	0.035440
42.69 	0.043860 	4674 	0.043358
42.71 	0.038816 	4663 	0.038691
42.73 	0.041164 	4640 	0.040659
42.75 	0.038986 	4617 	0.038606
42.77 	0.034348 	4600 	0.034348
42.79 	0.035574 	4582 	0.035063
42.81 	0.032223 	4562 	0.031709
42.83 	0.035053 	4536 	0.034665
42.85 	0.040194 	4528 	0.039914
42.87 	0.044454 	4499 	0.044064
42.89 	0.039509 	4480 	0.039247
42.91 	0.043761 	4456 	0.043104
42.93 	0.034863 	4446 	0.034336
42.95 	0.038949 	4416 	0.038286
42.97 	0.034083 	4401 	0.033684
42.99 	0.040593 	4385 	0.040059
43.01 	0.034380 	4363 	0.033843
43.03 	0.037157 	4333 	0.036751
43.05 	0.032832 	4325 	0.032697
43.07 	0.038408 	4296 	0.038135
43.09 	0.036190 	4283 	0.035779
43.11 	0.042773 	4255 	0.042223
43.13 	0.034222 	4237 	0.033669
43.15 	0.037090 	4206 	0.036672
43.17 	0.040201 	4179 	0.039780
43.19 	0.044111 	4194 	0.043552
43.21 	0.036194 	4172 	0.035492
43.23 	0.038999 	4154 	0.038576
43.25 	0.038936 	4135 	0.038653
43.27 	0.037759 	4105 	0.037473
43.29 	0.044634 	4100 	0.044206
43.31 	0.041677 	4079 	0.041102
43.33 	0.035547 	4051 	0.034824
43.35 	0.042907 	4032 	0.042180
43.37 	0.041594 	4015 	0.041156
43.39 	0.046477 	4002 	0.045745
43.41 	0.040030 	3972 	0.040030
43.43 	0.041414 	3960 	0.040822
43.45 	0.039390 	3935 	0.039241
43.47 	0.040806 	3921 	0.040657
43.49 	0.038491 	3897 	0.038040
43.51 	0.035079 	3877 	0.034625
43.53 	0.039607 	3863 	0.039000
43.55 	0.034076 	2964 	0.033878
43.57 	0.031278 	2238 	0.030493
43.59 	0.032646 	1746 	0.032646
43.61 	0.031088 	1351 	0.031088
43.63 	0.034965 	1001 	0.034380
43.65 	0.045124 	687 	0.044271
43.67 	0.059761 	502 	0.058594
43.69 	0.027248 	367 	0.027248
43.71 	0.025105 	239 	0.025105
43.73 	0.000000 	120 	0.000000
43.75 	0.125000 	16 	0.125000