File: Example_Data/25SC_s1_0052.009.dat
#F C:\frames\spec\25SC_s1_0052.009
#C title =s:52 frm:9 25SC_s1
#C wavelength =0.15406

#S 1  fr_average C:\frames\spec\25SC_s1_0052.009 C:\win32app\speccom\mask.axs chi 0 180 0 360 0.02
#C 2 theta =0.000000 to 180 deg
#C   q   =0.000000 to 81.568 nm^-1
#C  chi  =0.000000 to 360 deg
#C collumns:
#C  1 position (2theta or chi in degrees)
#C  2 average intensity (sum of all counts in the region divided with number of pixels)
#C  3 Number of pixels in region)
#C  4 error (sum of sqrt(intensity) for all pixels divided by number)
#N 4
#L TTh  Int  N_pix  Err
32.99 	0.000000 	61 	0.000000
33.01 	0.046964 	873 	0.046964
33.03 	0.060388 	1391 	0.059125
33.05 	0.068298 	1757 	0.067298
33.07 	0.071707 	2050 	0.069421
33.09 	0.078398 	2347 	0.076152
33.11 	0.071345 	2579 	0.069756
33.13 	0.071250 	2793 	0.070411
33.15 	0.072691 	2999 	0.071324
33.17 	0.066542 	3201 	0.065597
33.19 	0.081388 	3342 	0.079285
33.21 	0.059953 	3436 	0.058760
33.23 	0.068408 	3523 	0.066911
33.25 	0.066722 	3612 	0.065587
33.27 	0.068595 	3630 	0.068111
33.29 	0.075110 	3648 	0.073022
33.31 	0.072404 	3660 	0.070964
33.33 	0.070537 	3686 	0.069107
33.35 	0.066865 	3694 	0.065279
33.37 	0.074044 	3714 	0.071994
33.39 	0.065969 	3729 	0.064399
33.41 	0.067647 	3740 	0.066368
33.43 	0.067269 	3761 	0.066023
33.45 	0.071561 	3773 	0.070474
33.47 	0.064771 	3798 	0.064308
33.49 	0.080336 	3809 	0.078644
33.51 	0.077588 	3815 	0.075721
33.53 	0.071075 	3841 	0.069245
33.55 	0.073380 	3843 	0.072008
33.57 	0.063193 	3877 	0.062287
33.59 	0.070619 	3880 	0.069562
33.61 	0.066769 	3909 	0.065870
33.63 	0.064047 	3919 	0.062851
33.65 	0.075553 	3931 	0.074486
33.67 	0.072585 	3954 	0.069622
33.69 	0.064002 	3953 	0.063409
33.71 	0.073459 	3975 	0.071691
33.73 	0.074925 	4004 	0.073755
33.75 	0.066767 	3999 	0.065448
33.77 	0.062857 	4025 	0.061547
33.79 	0.073497 	4041 	0.071467
33.81 	0.062655 	4038 	0.061639
33.83 	0.072593 	4050 	0.070857
33.85 	0.078312 	4099 	0.077026
33.87 	0.072002 	4111 	0.070292
33.89 	0.074739 	4121 	0.073318
33.91 	0.067486 	4149 	0.066215
33.93 	0.067695 	4151 	0.065860
33.95 	0.072710 	4181 	0.071449
33.97 	0.065155 	4190 	0.064014
33.99 	0.078810 	4200 	0.077275
34.01 	0.070021 	4213 	0.067797
34.03 	0.073987 	4244 	0.072308
34.05 	0.072437 	4252 	0.071334
34.07 	0.064902 	4268 	0.064078
34.09 	0.072562 	4286 	0.070922
34.11 	0.066481 	4302 	0.065528
34.13 	0.072656 	4308 	0.070027
34.15 	0.072270 	4331 	0.071323
34.17 	0.067356 	4350 	0.066144
34.19 	0.075195 	4362 	0.073180
34.21 	0.064059 	4371 	0.062316
34.23 	0.071477 	4393 	0.070277
34.25 	0.073115 	4404 	0.071918
34.27 	0.072818 	4422 	0.070963
34.29 	0.066516 	4435 	0.065460
34.31 	0.071557 	4458 	0.069827
34.33 	0.066428 	4471 	0.065249
34.35 	0.064674 	4484 	0.064152
34.37 	0.071031 	4491 	0.069466
34.39 	0.065971 	4502 	0.064539
34.41 	0.076447 	4526 	0.075024
34.43 	0.076008 	4539 	0.074438
34.45 	0.073208 	4535 	0.071895
34.47 	0.064024 	4592 	0.062111
34.49 	0.069611 	4597 	0.068591
34.51 	0.071429 	4606 	0.070411
34.53 	0.068490 	4643 	0.066703
34.55 	0.069567 	4643 	0.068053
34.57 	0.063305 	4660 	0.062425
34.59 	0.068235 	4675 	0.066732
34.61 	0.063445 	4697 	0.062198
34.63 	0.074310 	4710 	0.073046
34.65 	0.071383 	4721 	0.069770
34.67 	0.071926 	4741 	0.069558
34.69 	0.072781 	4754 	0.071425
34.71 	0.068821 	4766 	0.067838
34.73 	0.065803 	4787 	0.064315
34.75 	0.071755 	4808 	0.070537
34.77 	0.068078 	4818 	0.067349
34.79 	0.077944 	4824 	0.076851
34.81 	0.066254 	4845 	0.065267
34.83 	0.067256 	4862 	0.065570
34.85 	0.074143 	4869 	0.072218
34.87 	0.071898 	4868 	0.070213
34.89 	0.071282 	4882 	0.070082
34.91 	0.070668 	4882 	0.069588
34.93 	0.069810 	4899 	0.068495
34.95 	0.069530 	4890 	0.067733
34.97 	0.075479 	4902 	0.073687
34.99 	0.065755 	4897 	0.064558
35.01 	0.073329 	4923 	0.071901
35.03 	0.074246 	4943 	0.072469
35.05 	0.074389 	4947 	0.073323
35.07 	0.070040 	4940 	0.068618
35.09 	0.072885 	4953 	0.070520
35.11 	0.072771 	4947 	0.070877
35.13 	0.069786 	4958 	0.068250
35.15 	0.069273 	4937 	0.067137
35.17 	0.067934 	4946 	0.066868
35.19 	0.069810 	4942 	0.068862
35.21 	0.068352 	4945 	0.067523
35.23 	0.068959 	4945 	0.067655
35.25 	0.065952 	4943 	0.064392
35.27 	0.073767 	4948 	0.072228
35.29 	0.070576 	4945 	0.069747
35.31 	0.076424 	4933 	0.074168
35.33 	0.078697 	4943 	0.076327
35.35 	0.073452 	4942 	0.071991
35.37 	0.066005 	4939 	0.064800
35.39 	0.073407 	4945 	0.071394
35.41 	0.067803 	4926 	0.066614
35.43 	0.074397 	4933 	0.072734
35.45 	0.073324 	4937 	0.070694
35.47 	0.075644 	4931 	0.073981
35.49 	0.075153 	4910 	0.073194
35.51 	0.069834 	4926 	0.068525
35.53 	0.066276 	4949 	0.065329
35.55 	0.071183 	4945 	0.069761
35.57 	0.068924 	4933 	0.067736
35.59 	0.068959 	4945 	0.067537
35.61 	0.064953 	4942 	0.063768
35.63 	0.073235 	4943 	0.071576
35.65 	0.070779 	4945 	0.068588
35.67 	0.074261 	4942 	0.071654
35.69 	0.068742 	4946 	0.068150
35.71 	0.077375 	4937 	0.075951
35.73 	0.070502 	4936 	0.067635
35.75 	0.077469 	4931 	0.075767
35.77 	0.072915 	4951 	0.071968
35.79 	0.063666 	4932 	0.062359
35.81 	0.074397 	4933 	0.072378
35.83 	0.071169 	4946 	0.070103
35.85 	0.074772 	4935 	0.072635
35.87 	0.068860 	4923 	0.067909
35.89 	0.062424 	4934 	0.061355
35.91 	0.068805 	4927 	0.067497
35.93 	0.072661 	4927 	0.071353
35.95 	0.075453 	4917 	0.073904
35.97 	0.075733 	4912 	0.073944
35.99 	0.066208 	4939 	0.064784
36.01 	0.069168 	4930 	0.067148
36.03 	0.073639 	4943 	0.072691
36.05 	0.066330 	4945 	0.064908
36.07 	0.070055 	4939 	0.068513
36.09 	0.076923 	4940 	0.074769
36.11 	0.072428 	4929 	0.071478
36.13 	0.071024 	4942 	0.069957
36.15 	0.067220 	4939 	0.066133
36.17 	0.064569 	4925 	0.063260
36.19 	0.067004 	4940 	0.065700
36.21 	0.064922 	4929 	0.064090
36.23 	0.069301 	4935 	0.068470
36.25 	0.071038 	4941 	0.069853
36.27 	0.069645 	4925 	0.069050
36.29 	0.072602 	4931 	0.071414
36.31 	0.075081 	4928 	0.073892
36.33 	0.067099 	4933 	0.065318
36.35 	0.065936 	4929 	0.064629
36.37 	0.070689 	4923 	0.068904
36.39 	0.065434 	4921 	0.064601
36.41 	0.071895 	4896 	0.070579
36.43 	0.065950 	4928 	0.064761
36.45 	0.069777 	4930 	0.067876
36.47 	0.068274 	4936 	0.066494
36.49 	0.072036 	4942 	0.070021
36.51 	0.067505 	4933 	0.066436
36.53 	0.075056 	4943 	0.073278
36.55 	0.067384 	4927 	0.065838
36.57 	0.063640 	4934 	0.061622
36.59 	0.076939 	4939 	0.074883
36.61 	0.071385 	4931 	0.069603
36.63 	0.074021 	4931 	0.072220
36.65 	0.070357 	4932 	0.068575
36.67 	0.069371 	4930 	0.067945
36.69 	0.068980 	4929 	0.068029
36.71 	0.067060 	4921 	0.066464
36.73 	0.070457 	4925 	0.068177
36.75 	0.061893 	4944 	0.060590
36.77 	0.064241 	4919 	0.063645
36.79 	0.068888 	4921 	0.067341
36.81 	0.064890 	4916 	0.062745
36.83 	0.061038 	4915 	0.059250
36.85 	0.063699 	4898 	0.062743
36.87 	0.068770 	4944 	0.067704
36.89 	0.063059 	4916 	0.061372
36.91 	0.067193 	4941 	0.065415
36.93 	0.066126 	4930 	0.065294
36.95 	0.067302 	4933 	0.066589
36.97 	0.069518 	4934 	0.068330
36.99 	0.070719 	4935 	0.068939
37.01 	0.073181 	4933 	0.071399
37.03 	0.064582 	4924 	0.063511
37.05 	0.072864 	4927 	0.071794
37.07 	0.074975 	4935 	0.073274
37.09 	0.072443 	4928 	0.071136
37.11 	0.057548 	4935 	0.056717
37.13 	0.070065 	4924 	0.069232
37.15 	0.070890 	4909 	0.068981
37.17 	0.066477 	4934 	0.064915
37.19 	0.068629 	4925 	0.066845
37.21 	0.077080 	4917 	0.075173
37.23 	0.070964 	4918 	0.069177
37.25 	0.067196 	4911 	0.065884
37.27 	0.062934 	4894 	0.061857
37.29 	0.068357 	4930 	0.066793
37.31 	0.060588 	4935 	0.059519
37.33 	0.060686 	4927 	0.059022
37.35 	0.058121 	4938 	0.056915
37.37 	0.058250 	4927 	0.057299
37.39 	0.067126 	4931 	0.065681
37.41 	0.069357 	4931 	0.067932
37.43 	0.070154 	4932 	0.068966
37.45 	0.070268 	4924 	0.069197
37.47 	0.064313 	4929 	0.063362
37.49 	0.066017 	4923 	0.064688
37.51 	0.067910 	4933 	0.066228
37.53 	0.065664 	4919 	0.064354
37.55 	0.062272 	4930 	0.061440
37.57 	0.059898 	4925 	0.059066
37.59 	0.069176 	4915 	0.066792
37.61 	0.065624 	4922 	0.064553
37.63 	0.062411 	4919 	0.061101
37.65 	0.064864 	4918 	0.063415
37.67 	0.069739 	4904 	0.068544
37.69 	0.066149 	4898 	0.064714
37.71 	0.063299 	4929 	0.061378
37.73 	0.064922 	4929 	0.063852
37.75 	0.064777 	4940 	0.063947
37.77 	0.065854 	4920 	0.065139
37.79 	0.066329 	4930 	0.064903
37.81 	0.068113 	4933 	0.066925
37.83 	0.066260 	4920 	0.065189
37.85 	0.067859 	4922 	0.066649
37.87 	0.066005 	4939 	0.064701
37.89 	0.065584 	4925 	0.063661
37.91 	0.059432 	4930 	0.058957
37.93 	0.065664 	4919 	0.064116
37.95 	0.068888 	4921 	0.067341
37.97 	0.066342 	4929 	0.065154
37.99 	0.067590 	4912 	0.066397
38.01 	0.063109 	4928 	0.062257
38.03 	0.070483 	4909 	0.069647
38.05 	0.065381 	4925 	0.063815
38.07 	0.071705 	4909 	0.070134
38.09 	0.065806 	4878 	0.064965
38.11 	0.065856 	4935 	0.064550
38.13 	0.064209 	4937 	0.063497
38.15 	0.065677 	4918 	0.064843
38.17 	0.069168 	4930 	0.068337
38.19 	0.064300 	4930 	0.063073
38.21 	0.068454 	4923 	0.066669
38.23 	0.070676 	4938 	0.069115
38.25 	0.065080 	4917 	0.064008
38.27 	0.070183 	4930 	0.067925
38.29 	0.068643 	4924 	0.068286
38.31 	0.067993 	4927 	0.066784
38.33 	0.070877 	4924 	0.069688
38.35 	0.076705 	4928 	0.075496
38.37 	0.061332 	4924 	0.060262
38.39 	0.071909 	4909 	0.069383
38.41 	0.068860 	4923 	0.067909
38.43 	0.071603 	4916 	0.069816
38.45 	0.075641 	4918 	0.073497
38.47 	0.076625 	4907 	0.075551
38.49 	0.078942 	4877 	0.077741
38.51 	0.081103 	4932 	0.078846
38.53 	0.076080 	4929 	0.074773
38.55 	0.082658 	4936 	0.080997
38.57 	0.080845 	4923 	0.078803
38.59 	0.078392 	4924 	0.076845
38.61 	0.083063 	4936 	0.080927
38.63 	0.074533 	4924 	0.072986
38.65 	0.084994 	4918 	0.083326
38.67 	0.081223 	4937 	0.079681
38.69 	0.075376 	4922 	0.074067
38.71 	0.072502 	4924 	0.071669
38.73 	0.072794 	4918 	0.071484
38.75 	0.070428 	4927 	0.069239
38.77 	0.069470 	4923 	0.067784
38.79 	0.071139 	4934 	0.069477
38.81 	0.072068 	4912 	0.071095
38.83 	0.068510 	4919 	0.067180
38.85 	0.069422 	4912 	0.067852
38.87 	0.071472 	4911 	0.069922
38.89 	0.063100 	4897 	0.062023
38.91 	0.065674 	4903 	0.064718
38.93 	0.070676 	4938 	0.068778
38.95 	0.063847 	4918 	0.062894
38.97 	0.062462 	4931 	0.061868
38.99 	0.063196 	4937 	0.062010
39.01 	0.066490 	4918 	0.065399
39.03 	0.061613 	4934 	0.060545
39.05 	0.066193 	4925 	0.064528
39.07 	0.063769 	4924 	0.062560
39.09 	0.063376 	4923 	0.061472
39.11 	0.066112 	4931 	0.064806
39.13 	0.063376 	4923 	0.061948
39.15 	0.068973 	4915 	0.067304
39.17 	0.066437 	4937 	0.065251
39.19 	0.067724 	4917 	0.065679
39.21 	0.061711 	4910 	0.060756
39.23 	0.061726 	4925 	0.060993
39.25 	0.061560 	4922 	0.061203
39.27 	0.063747 	4910 	0.062912
39.29 	0.070190 	4901 	0.068755
39.31 	0.064906 	4884 	0.063567
39.33 	0.060840 	4931 	0.059533
39.35 	0.061398 	4935 	0.061042
39.37 	0.064719 	4929 	0.063649
39.39 	0.067762 	4929 	0.066574
39.41 	0.064287 	4931 	0.063456
39.43 	0.064869 	4933 	0.063919
39.45 	0.067614 	4925 	0.066544
39.47 	0.062360 	4923 	0.061408
39.49 	0.063450 	4933 	0.062738
39.51 	0.066409 	4924 	0.065815
39.53 	0.062767 	4923 	0.061577
39.55 	0.057939 	4919 	0.057462
39.57 	0.067302 	4933 	0.066233
39.59 	0.063722 	4912 	0.062410
39.61 	0.069876 	4923 	0.069043
39.63 	0.068468 	4922 	0.066921
39.65 	0.066788 	4926 	0.065124
39.67 	0.058824 	4913 	0.057750
39.69 	0.066924 	4916 	0.065375
39.71 	0.067620 	4895 	0.066284
39.73 	0.067645 	4908 	0.066332
39.75 	0.067776 	4928 	0.066825
39.77 	0.065653 	4935 	0.064348
39.79 	0.064555 	4926 	0.063485
39.81 	0.074488 	4927 	0.073279
39.83 	0.072355 	4934 	0.071049
39.85 	0.064948 	4927 	0.063026
39.87 	0.073503 	4925 	0.072194
39.89 	0.064451 	4934 	0.063145
39.91 	0.062373 	4922 	0.060945
39.93 	0.061373 	4937 	0.060167
39.95 	0.064090 	4915 	0.062659
39.97 	0.057427 	4928 	0.056238
39.99 	0.066099 	4932 	0.064179
40.01 	0.060797 	4918 	0.059725
40.03 	0.060268 	4928 	0.059079
40.05 	0.066301 	4917 	0.064752
40.07 	0.063173 	4923 	0.061725
40.09 	0.066111 	4916 	0.064562
40.11 	0.059601 	4916 	0.058052
40.13 	0.065768 	4896 	0.063614
40.15 	0.056788 	4913 	0.056192
40.17 	0.065138 	4928 	0.063236
40.19 	0.066342 	4929 	0.065154
40.21 	0.061803 	4935 	0.060122
40.23 	0.060624 	4932 	0.060031
40.25 	0.064024 	4920 	0.062715
40.27 	0.066437 	4937 	0.064519
40.29 	0.062107 	4927 	0.061037
40.31 	0.059526 	4939 	0.058340
40.33 	0.061436 	4932 	0.060248
40.35 	0.064241 	4919 	0.063050
40.37 	0.063705 	4929 	0.062635
40.39 	0.062056 	4931 	0.060968
40.41 	0.062741 	4925 	0.061790
40.43 	0.061154 	4922 	0.060202
40.45 	0.058990 	4933 	0.058397
40.47 	0.056120 	4918 	0.055048
40.49 	0.063743 	4926 	0.062554
40.51 	0.060544 	4922 	0.059592
40.53 	0.060822 	4916 	0.059849
40.55 	0.068052 	4908 	0.066859
40.57 	0.053988 	4890 	0.052910
40.59 	0.061171 	4937 	0.060103
40.61 	0.067275 	4935 	0.065375
40.63 	0.069574 	4930 	0.068861
40.65 	0.064006 	4937 	0.062326
40.67 	0.065491 	4932 	0.064165
40.69 	0.058740 	4937 	0.057297
40.71 	0.071776 	4932 	0.070549
40.73 	0.061916 	4926 	0.060965
40.75 	0.066112 	4931 	0.064192
40.77 	0.062968 	4939 	0.061664
40.79 	0.060317 	4924 	0.059841
40.81 	0.058693 	4941 	0.057981
40.83 	0.057833 	4928 	0.056525
40.85 	0.065597 	4924 	0.064764
40.87 	0.063515 	4928 	0.062445
40.89 	0.056175 	4931 	0.055819
40.91 	0.061954 	4923 	0.060388
40.93 	0.062829 	4934 	0.062236
40.95 	0.060452 	4913 	0.058663
40.97 	0.058286 	4924 	0.056858
40.99 	0.061129 	4924 	0.060158
41.01 	0.060871 	4912 	0.060394
41.03 	0.059123 	4905 	0.057690
41.05 	0.059157 	4936 	0.058326
41.07 	0.064300 	4930 	0.063350
41.09 	0.061956 	4939 	0.060414
41.11 	0.063222 	4935 	0.061797
41.13 	0.064627 	4936 	0.063678
41.15 	0.063955 	4941 	0.062413
41.17 	0.059384 	4934 	0.058197
41.19 	0.057201 	4930 	0.056250
41.21 	0.063399 	4937 	0.062331
41.23 	0.064993 	4939 	0.064025
41.25 	0.057977 	4933 	0.056651
41.27 	0.058203 	4931 	0.057134
41.29 	0.063920 	4928 	0.062851
41.31 	0.058788 	4933 	0.057838
41.33 	0.056715 	4937 	0.055409
41.35 	0.058526 	4938 	0.057814
41.37 	0.065597 	4924 	0.063912
41.39 	0.056963 	4933 	0.056370
41.41 	0.062931 	4926 	0.061861
41.43 	0.061067 	4929 	0.060097
41.45 	0.059015 	4914 	0.058181
41.47 	0.055826 	4926 	0.055469
41.49 	0.066435 	4892 	0.065597
41.51 	0.060324 	4940 	0.058782
41.53 	0.059061 	4944 	0.058232
41.55 	0.053293 	4935 	0.052106
41.57 	0.060109 	4941 	0.059141
41.59 	0.067910 	4933 	0.066703
41.61 	0.061579 	4953 	0.060751
41.63 	0.065614 	4938 	0.064309
41.65 	0.055386 	4929 	0.054911
41.67 	0.062753 	4940 	0.061686
41.69 	0.057611 	4947 	0.056663
41.71 	0.059992 	4934 	0.059042
41.73 	0.058144 	4936 	0.057195
41.75 	0.063705 	4929 	0.062041
41.77 	0.057276 	4941 	0.056090
41.79 	0.051780 	4944 	0.051069
41.81 	0.057739 	4936 	0.056414
41.83 	0.056818 	4928 	0.056224
41.85 	0.057704 	4939 	0.056736
41.87 	0.060790 	4935 	0.060315
41.89 	0.060612 	4933 	0.060018
41.91 	0.056929 	4936 	0.056691
41.93 	0.058191 	4932 	0.057004
41.95 	0.055770 	4931 	0.054800
41.97 	0.056777 	4914 	0.056061
41.99 	0.059531 	4905 	0.058695
42.01 	0.051801 	4942 	0.051445
42.03 	0.064183 	4939 	0.062760
42.05 	0.058562 	4952 	0.057261
42.07 	0.052056 	4937 	0.051463
42.09 	0.058407 	4948 	0.057815
42.11 	0.058443 	4945 	0.057732
42.13 	0.054803 	4945 	0.053263
42.15 	0.053665 	4938 	0.053072
42.17 	0.060187 	4918 	0.059472
42.19 	0.054197 	4908 	0.053600
42.21 	0.053867 	4901 	0.052910
42.23 	0.053557 	4892 	0.052599
42.25 	0.055226 	4889 	0.054267
42.27 	0.059499 	4874 	0.058658
42.29 	0.060251 	4863 	0.059528
42.31 	0.056025 	4855 	0.055301
42.33 	0.052751 	4834 	0.051782
42.35 	0.058495 	4838 	0.056921
42.37 	0.054865 	4830 	0.054138
42.39 	0.059742 	4804 	0.059254
42.41 	0.055371 	4804 	0.054517
42.43 	0.054674 	4792 	0.053085
42.45 	0.052345 	4776 	0.051712
42.47 	0.062329 	4765 	0.061326
42.49 	0.055614 	4765 	0.054876
42.51 	0.056293 	4743 	0.055007
42.53 	0.059222 	4728 	0.058230
42.55 	0.057562 	4708 	0.056939
42.57 	0.058140 	4730 	0.057396
42.59 	0.053923 	4729 	0.053179
42.61 	0.054800 	4708 	0.053805
42.63 	0.058399 	4709 	0.057652
42.65 	0.057631 	4685 	0.056130
42.67 	0.054654 	4684 	0.053654
42.69 	0.058408 	4674 	0.057656
42.71 	0.057903 	4663 	0.056354
42.73 	0.056681 	4640 	0.055398
42.75 	0.055447 	4617 	0.054052
42.77 	0.058043 	4600 	0.057025
42.79 	0.059581 	4582 	0.058303
42.81 	0.054581 	4562 	0.053682
42.83 	0.059744 	4536 	0.058453
42.85 	0.053004 	4528 	0.052357
42.87 	0.055790 	4499 	0.054727
42.89 	0.054241 	4480 	0.053326
42.91 	0.059695 	4456 	0.058775
42.93 	0.053306 	4446 	0.052648
42.95 	0.052763 	4416 	0.052099
42.97 	0.056805 	4401 	0.056007
42.99 	0.059749 	4385 	0.058413
43.01 	0.059592 	4363 	0.058652
43.03 	0.058389 	4333 	0.057128
43.05 	0.052717 	4325 	0.051904
43.07 	0.057263 	4296 	0.056286
43.09 	0.059538 	4283 	0.058170
43.11 	0.053349 	4255 	0.052661
43.13 	0.057352 	4237 	0.056661
43.15 	0.052782 	4206 	0.052085
43.17 	0.051687 	4179 	0.050846
43.19 	0.054840 	4194 	0.052862
43.21 	0.060642 	4172 	0.060221
43.23 	0.052961 	4154 	0.052820
43.25 	0.054897 	4135 	0.052749
43.27 	0.052375 	4105 	0.051519
43.29 	0.051220 	4100 	0.050362
43.31 	0.053935 	4079 	0.053073
43.33 	0.056036 	4051 	0.055313
43.35 	0.052579 	4032 	0.051998
43.37 	0.050560 	4015 	0.049831
43.39 	0.049225 	4002 	0.048201
43.41 	0.060675 	3972 	0.060232
43.43 	0.056818 	3960 	0.056054
43.45 	0.055909 	3935 	0.055164
43.47 	0.053558 	3921 	0.052661
43.49 	0.055940 	3897 	0.055189
43.51 	0.057777 	3877 	0.056719
43.53 	0.054362 	3863 	0.053604
43.55 	0.055668 	2964 	0.055273
43.57 	0.050492 	2238 	0.049968
43.59 	0.060710 	1746 	0.060039
43.61 	0.052554 	1351 	0.050748
43.63 	0.055944 	1001 	0.053603
43.65 	0.040757 	687 	0.040757
43.67 	0.045817 	502 	0.044650
43.69 	0.032698 	367 	0.032698
43.71 	0.058577 	239 	0.056126
43.73 	0.066667 	120 	0.066667
43.75 	0.187500 	16 	0.187500