File: Example_Data/25SC_s1_0036.002.dat
#F C:\frames\spec\25SC_s1_0036.002
#C title =s:36 frm:2 25SC_s1
#C wavelength =0.15406

#S 1  fr_average C:\frames\spec\25SC_s1_0036.002 C:\win32app\speccom\mask.axs chi 0 180 0 360 0.02
#C 2 theta =0.000000 to 180 deg
#C   q   =0.000000 to 81.568 nm^-1
#C  chi  =0.000000 to 360 deg
#C collumns:
#C  1 position (2theta or chi in degrees)
#C  2 average intensity (sum of all counts in the region divided with number of pixels)
#C  3 Number of pixels in region)
#C  4 error (sum of sqrt(intensity) for all pixels divided by number)
#N 4
#L TTh  Int  N_pix  Err
32.99 	0.065574 	61 	0.065574
33.01 	0.068729 	873 	0.066716
33.03 	0.059669 	1391 	0.056721
33.05 	0.070575 	1757 	0.069186
33.07 	0.062927 	2050 	0.061498
33.09 	0.049851 	2347 	0.048603
33.11 	0.058550 	2579 	0.056960
33.13 	0.051557 	2793 	0.050509
33.15 	0.057352 	2999 	0.057157
33.17 	0.063105 	3201 	0.062160
33.19 	0.056553 	3342 	0.055501
33.21 	0.054133 	3436 	0.053792
33.23 	0.058189 	3523 	0.057358
33.25 	0.053987 	3612 	0.053176
33.27 	0.061433 	3630 	0.060464
33.29 	0.050987 	3648 	0.050505
33.31 	0.057923 	3660 	0.057443
33.33 	0.051546 	3686 	0.050593
33.35 	0.054413 	3694 	0.053778
33.37 	0.060582 	3714 	0.059635
33.39 	0.058461 	3729 	0.057047
33.41 	0.058021 	3740 	0.057238
33.43 	0.060356 	3761 	0.059578
33.45 	0.065730 	3773 	0.064928
33.47 	0.059242 	3798 	0.058599
33.49 	0.060646 	3809 	0.058954
33.51 	0.064744 	3815 	0.064284
33.53 	0.058058 	3841 	0.057295
33.55 	0.062191 	3843 	0.060972
33.57 	0.061130 	3877 	0.060223
33.59 	0.054124 	3880 	0.052161
33.61 	0.053978 	3909 	0.052779
33.63 	0.056647 	3919 	0.055750
33.65 	0.055202 	3931 	0.054308
33.67 	0.063227 	3954 	0.061597
33.69 	0.062990 	3953 	0.062249
33.71 	0.051321 	3975 	0.050731
33.73 	0.057193 	4004 	0.056754
33.75 	0.057514 	3999 	0.056489
33.77 	0.056894 	4025 	0.056312
33.79 	0.055432 	4041 	0.054272
33.81 	0.060426 	4038 	0.059701
33.83 	0.057531 	4050 	0.056084
33.85 	0.058551 	4099 	0.057693
33.87 	0.054245 	4111 	0.053532
33.89 	0.054841 	4121 	0.054557
33.91 	0.057363 	4149 	0.056234
33.93 	0.057336 	4151 	0.056912
33.95 	0.058359 	4181 	0.057379
33.97 	0.054893 	4190 	0.053495
33.99 	0.053571 	4200 	0.052456
34.01 	0.057204 	4213 	0.056231
34.03 	0.058435 	4244 	0.057607
34.05 	0.054563 	4252 	0.054011
34.07 	0.054358 	4268 	0.053078
34.09 	0.061829 	4286 	0.060872
34.11 	0.058577 	4302 	0.057352
34.13 	0.052925 	4308 	0.052789
34.15 	0.049642 	4331 	0.048695
34.17 	0.058161 	4350 	0.058026
34.19 	0.062586 	4362 	0.061109
34.21 	0.059941 	4371 	0.058444
34.23 	0.063510 	4393 	0.062443
34.25 	0.059037 	4404 	0.058106
34.27 	0.056309 	4422 	0.054985
34.29 	0.057723 	4435 	0.056534
34.31 	0.053387 	4458 	0.052862
34.33 	0.052114 	4471 	0.051328
34.35 	0.058430 	4484 	0.056710
34.37 	0.059452 	4491 	0.058670
34.39 	0.057974 	4502 	0.056933
34.41 	0.054132 	4526 	0.053355
34.43 	0.057502 	4539 	0.056340
34.45 	0.049173 	4535 	0.048656
34.47 	0.060540 	4592 	0.059243
34.49 	0.055471 	4597 	0.054834
34.51 	0.056665 	4606 	0.056284
34.53 	0.058583 	4643 	0.057174
34.55 	0.058583 	4643 	0.057826
34.57 	0.057940 	4660 	0.057689
34.59 	0.052406 	4675 	0.051655
34.61 	0.055567 	4697 	0.055318
34.63 	0.065605 	4710 	0.064092
34.65 	0.057191 	4721 	0.056075
34.67 	0.056950 	4741 	0.056065
34.69 	0.055111 	4754 	0.054126
34.71 	0.057491 	4766 	0.056876
34.73 	0.059745 	4787 	0.057787
34.75 	0.049709 	4808 	0.048978
34.77 	0.052096 	4818 	0.051104
34.79 	0.053690 	4824 	0.052354
34.81 	0.054902 	4845 	0.054297
34.83 	0.055738 	4862 	0.055136
34.85 	0.058534 	4869 	0.057451
34.87 	0.055875 	4868 	0.054551
34.89 	0.051823 	4882 	0.051463
34.91 	0.058583 	4882 	0.057383
34.93 	0.050010 	4899 	0.049532
34.95 	0.051125 	4890 	0.050526
34.97 	0.050796 	4902 	0.050198
34.99 	0.054319 	4897 	0.053840
35.01 	0.059313 	4923 	0.058837
35.03 	0.060894 	4943 	0.059709
35.05 	0.058419 	4947 	0.056979
35.07 	0.055061 	4940 	0.053756
35.09 	0.051888 	4953 	0.051060
35.11 	0.054579 	4947 	0.053868
35.13 	0.054457 	4958 	0.053749
35.15 	0.047600 	4937 	0.046888
35.17 	0.056611 	4946 	0.055901
35.19 	0.057062 	4942 	0.056469
35.21 	0.059656 	4945 	0.058472
35.23 	0.053589 	4945 	0.052760
35.25 	0.060287 	4943 	0.059221
35.27 	0.053557 	4948 	0.052373
35.29 	0.058847 	4945 	0.057268
35.31 	0.058382 	4933 	0.057670
35.33 	0.055230 	4943 	0.054163
35.35 	0.057871 	4942 	0.056805
35.37 	0.057097 	4939 	0.056266
35.39 	0.059656 	4945 	0.057998
35.41 	0.051360 	4926 	0.050290
35.43 	0.052301 	4933 	0.051707
35.45 	0.053474 	4937 	0.052762
35.47 	0.063070 	4931 	0.062358
35.49 	0.053564 	4910 	0.052610
35.51 	0.057450 	4926 	0.056618
35.53 	0.049909 	4949 	0.048725
35.55 	0.053387 	4945 	0.052676
35.57 	0.055544 	4933 	0.054219
35.59 	0.051972 	4945 	0.050906
35.61 	0.058883 	4942 	0.057579
35.63 	0.053004 	4943 	0.052056
35.65 	0.055612 	4945 	0.054763
35.67 	0.053217 	4942 	0.052506
35.69 	0.054994 	4946 	0.053573
35.71 	0.053879 	4937 	0.053286
35.73 	0.055713 	4936 	0.054526
35.75 	0.057595 	4931 	0.056763
35.77 	0.055948 	4951 	0.055238
35.79 	0.055961 	4932 	0.054991
35.81 	0.048449 	4933 	0.047380
35.83 	0.054590 	4946 	0.053761
35.85 	0.056738 	4935 	0.056500
35.87 	0.059720 	4923 	0.058530
35.89 	0.054520 	4934 	0.053095
35.91 	0.046276 	4927 	0.045324
35.93 	0.051756 	4927 	0.051399
35.95 	0.056539 	4917 	0.055804
35.97 	0.058225 	4912 	0.057271
35.99 	0.054667 	4939 	0.054074
36.01 	0.056389 	4930 	0.055795
36.03 	0.054016 	4943 	0.052693
36.05 	0.054196 	4945 	0.053012
36.07 	0.058919 	4939 	0.057575
36.09 	0.060729 	4940 	0.059069
36.11 	0.053358 	4929 	0.052882
36.13 	0.056657 	4942 	0.055827
36.15 	0.052440 	4939 	0.051610
36.17 	0.056447 	4925 	0.055138
36.19 	0.056680 	4940 	0.055139
36.21 	0.056198 	4929 	0.054891
36.23 	0.049645 	4935 	0.048914
36.25 	0.050395 	4941 	0.050039
36.27 	0.059086 	4925 	0.058373
36.29 	0.050091 	4931 	0.049378
36.31 	0.060674 	4928 	0.059347
36.33 	0.056558 	4933 	0.055608
36.35 	0.055184 	4929 	0.054114
36.37 	0.056063 	4923 	0.054992
36.39 	0.053241 	4921 	0.052289
36.41 	0.061683 	4896 	0.060247
36.43 	0.054383 	4928 	0.053789
36.45 	0.056187 	4930 	0.055593
36.47 	0.049838 	4936 	0.049126
36.49 	0.056657 	4942 	0.055472
36.51 	0.058180 	4933 	0.057230
36.53 	0.048756 	4943 	0.047926
36.55 	0.053785 	4927 	0.052577
36.57 	0.052088 	4934 	0.051613
36.59 	0.049605 	4939 	0.049487
36.61 	0.052930 	4931 	0.052218
36.63 	0.053133 	4931 	0.052896
36.65 	0.055961 	4932 	0.055248
36.67 	0.058418 	4930 	0.057467
36.69 	0.057212 	4929 	0.056024
36.71 	0.052428 	4921 	0.051476
36.73 	0.053401 	4925 	0.052806
36.75 	0.052387 	4944 	0.051676
36.77 	0.055499 	4919 	0.054785
36.79 	0.052225 	4921 	0.051868
36.81 	0.058788 	4916 	0.057596
36.83 	0.058393 	4915 	0.057558
36.85 	0.053900 	4898 	0.052804
36.87 	0.056634 	4944 	0.056160
36.89 	0.056143 	4916 	0.055786
36.91 	0.054038 	4941 	0.052852
36.93 	0.056389 	4930 	0.055182
36.95 	0.052909 	4933 	0.052315
36.97 	0.057965 	4934 	0.057134
36.99 	0.052077 	4935 	0.051009
37.01 	0.055139 	4933 	0.054426
37.03 	0.054021 	4924 	0.053069
37.05 	0.049929 	4927 	0.049572
37.07 	0.050861 	4935 	0.050030
37.09 	0.059456 	4928 	0.058386
37.11 	0.054914 	4935 	0.053727
37.13 	0.055646 	4924 	0.054099
37.15 	0.055001 	4909 	0.054166
37.17 	0.055736 	4934 	0.055261
37.19 	0.046294 	4925 	0.045581
37.21 	0.059182 	4917 	0.058468
37.23 	0.052257 	4918 	0.052019
37.25 	0.050499 	4911 	0.049525
37.27 	0.052922 	4894 	0.052443
37.29 	0.053550 	4930 	0.052817
37.31 	0.054509 	4935 	0.054034
37.33 	0.055409 	4927 	0.054458
37.35 	0.049818 	4938 	0.049343
37.37 	0.051350 	4927 	0.050517
37.39 	0.055972 	4931 	0.055378
37.41 	0.049888 	4931 	0.049057
37.43 	0.052311 	4932 	0.051955
37.45 	0.053412 	4924 	0.052579
37.47 	0.043822 	4929 	0.043347
37.49 	0.048954 	4923 	0.048240
37.51 	0.053517 	4933 	0.053280
37.53 	0.055296 	4919 	0.054581
37.55 	0.053550 	4930 	0.052837
37.57 	0.059289 	4925 	0.058814
37.59 	0.050865 	4915 	0.050030
37.61 	0.051808 	4922 	0.051451
37.63 	0.049807 	4919 	0.048735
37.65 	0.052054 	4918 	0.051558
37.67 	0.051183 	4904 	0.049988
37.69 	0.053695 	4898 	0.052858
37.71 	0.052343 	4929 	0.051116
37.73 	0.049503 	4929 	0.048909
37.75 	0.050810 	4940 	0.049387
37.77 	0.051829 	4920 	0.051115
37.79 	0.053144 	4930 	0.052312
37.81 	0.047638 	4933 	0.047045
37.83 	0.053049 	4920 	0.052215
37.85 	0.047745 	4922 	0.047150
37.87 	0.053655 	4939 	0.052824
37.89 	0.048325 	4925 	0.047730
37.91 	0.049087 	4930 	0.048731
37.93 	0.051230 	4919 	0.050158
37.95 	0.052022 	4921 	0.051189
37.97 	0.057618 	4929 	0.056549
37.99 	0.048656 	4912 	0.047941
38.01 	0.054789 	4928 	0.054195
38.03 	0.054594 	4909 	0.053878
38.05 	0.056853 	4925 	0.055663
38.07 	0.055001 	4909 	0.054046
38.09 	0.057606 	4878 	0.056645
38.11 	0.049645 	4935 	0.048933
38.13 	0.050030 	4937 	0.049437
38.15 	0.059170 	4918 	0.058098
38.17 	0.056389 	4930 	0.054964
38.19 	0.053550 	4930 	0.052361
38.21 	0.052204 	4923 	0.051609
38.23 	0.056298 	4938 	0.055567
38.25 	0.058979 	4917 	0.058145
38.27 	0.058621 	4930 	0.057651
38.29 	0.055443 	4924 	0.054491
38.31 	0.059265 	4927 	0.058413
38.33 	0.057880 	4924 	0.056452
38.35 	0.065341 	4928 	0.063914
38.37 	0.058489 	4924 	0.057537
38.39 	0.058464 	4909 	0.057390
38.41 	0.064392 	4923 	0.063678
38.43 	0.063670 	4916 	0.062359
38.45 	0.064050 	4918 	0.063455
38.47 	0.064194 	4907 	0.063000
38.49 	0.063359 	4877 	0.062758
38.51 	0.068127 	4932 	0.066939
38.53 	0.062284 	4929 	0.061334
38.55 	0.065235 	4936 	0.064404
38.57 	0.063985 	4923 	0.063033
38.59 	0.060723 	4924 	0.059533
38.61 	0.060373 	4936 	0.059423
38.63 	0.064379 	4924 	0.063546
38.65 	0.058764 	4918 	0.057573
38.67 	0.056309 	4937 	0.055598
38.69 	0.057091 	4922 	0.056615
38.71 	0.052803 	4924 	0.051851
38.73 	0.051444 	4918 	0.051086
38.75 	0.051553 	4927 	0.051196
38.77 	0.056470 	4923 	0.055637
38.79 	0.061411 	4934 	0.059867
38.81 	0.052932 	4912 	0.051978
38.83 	0.052246 	4919 	0.051294
38.85 	0.045603 	4912 	0.044887
38.87 	0.052942 	4911 	0.052346
38.89 	0.049214 	4897 	0.048257
38.91 	0.047522 	4903 	0.046566
38.93 	0.044552 	4938 	0.044197
38.95 	0.042294 	4918 	0.041698
38.97 	0.052119 	4931 	0.051288
38.99 	0.048613 	4937 	0.047901
39.01 	0.055714 	4918 	0.054880
39.03 	0.049858 	4934 	0.049027
39.05 	0.044873 	4925 	0.044278
39.07 	0.043867 	4924 	0.043510
39.09 	0.043673 	4923 	0.042721
39.11 	0.046644 	4931 	0.046168
39.13 	0.047532 	4923 	0.047175
39.15 	0.044964 	4915 	0.044249
39.17 	0.047600 	4937 	0.047006
39.19 	0.044743 	4917 	0.043790
39.21 	0.042770 	4910 	0.042054
39.23 	0.046091 	4925 	0.045616
39.25 	0.044088 	4922 	0.043731
39.27 	0.048065 	4910 	0.047588
39.29 	0.051826 	4901 	0.051468
39.31 	0.044226 	4884 	0.043746
39.33 	0.042791 	4931 	0.041959
39.35 	0.049443 	4935 	0.048968
39.37 	0.044228 	4929 	0.043634
39.39 	0.044634 	4929 	0.043901
39.41 	0.040357 	4931 	0.039882
39.43 	0.051490 	4933 	0.050896
39.45 	0.043858 	4925 	0.043263
39.47 	0.039610 	4923 	0.038896
39.49 	0.049260 	4933 	0.048904
39.51 	0.042648 	4924 	0.042529
39.53 	0.046110 	4923 	0.045139
39.55 	0.045741 	4919 	0.045622
39.57 	0.048855 	4933 	0.048261
39.59 	0.043363 	4912 	0.042251
39.61 	0.052204 	4923 	0.051014
39.63 	0.048964 	4922 	0.048488
39.65 	0.043849 	4926 	0.043373
39.67 	0.046407 	4913 	0.045692
39.69 	0.047396 	4916 	0.047158
39.71 	0.044331 	4895 	0.044211
39.73 	0.041361 	4908 	0.041103
39.75 	0.044846 	4928 	0.044489
39.77 	0.045187 	4935 	0.044594
39.79 	0.044864 	4926 	0.044745
39.81 	0.048508 	4927 	0.048033
39.83 	0.045197 	4934 	0.044840
39.85 	0.043840 	4927 	0.042889
39.87 	0.047513 	4925 	0.046442
39.89 	0.046818 	4934 	0.046086
39.91 	0.044900 	4922 	0.043948
39.93 	0.046384 	4937 	0.046028
39.95 	0.044964 	4915 	0.044607
39.97 	0.041599 	4928 	0.041084
39.99 	0.040552 	4932 	0.039958
40.01 	0.043717 	4918 	0.043360
40.03 	0.037946 	4928 	0.037333
40.05 	0.045353 	4917 	0.044995
40.07 	0.043063 	4923 	0.042349
40.09 	0.043328 	4916 	0.042494
40.11 	0.045159 	4916 	0.044920
40.13 	0.042688 	4896 	0.042209
40.15 	0.049054 	4913 	0.048696
40.17 	0.041802 	4928 	0.040970
40.19 	0.050923 	4929 	0.050448
40.21 	0.040324 	4935 	0.039849
40.23 	0.043187 	4932 	0.042475
40.25 	0.045325 	4920 	0.044849
40.27 	0.043144 	4937 	0.042550
40.29 	0.043028 	4927 	0.042196
40.31 	0.043734 	4939 	0.043141
40.33 	0.042579 	4932 	0.042342
40.35 	0.047367 	4919 	0.046395
40.37 	0.044228 	4929 	0.043753
40.39 	0.046846 	4931 	0.046609
40.41 	0.043046 	4925 	0.042927
40.43 	0.041040 	4922 	0.040683
40.45 	0.045814 	4933 	0.045101
40.47 	0.039244 	4918 	0.038767
40.49 	0.042834 	4926 	0.042596
40.51 	0.039618 	4922 	0.039023
40.53 	0.040480 	4916 	0.039865
40.55 	0.039731 	4908 	0.039254
40.57 	0.036605 	4890 	0.036486
40.59 	0.042131 	4937 	0.041063
40.61 	0.045795 	4935 	0.045677
40.63 	0.041582 	4930 	0.040988
40.65 	0.040713 	4937 	0.039645
40.67 	0.046026 	4932 	0.045076
40.69 	0.041523 	4937 	0.041405
40.71 	0.039538 	4932 	0.039181
40.73 	0.042225 	4926 	0.041868
40.75 	0.042385 	4931 	0.041910
40.77 	0.045961 	4939 	0.045368
40.79 	0.042851 	4924 	0.042375
40.81 	0.047764 	4941 	0.047171
40.83 	0.041396 	4928 	0.040921
40.85 	0.039196 	4924 	0.038839
40.87 	0.040990 	4928 	0.040396
40.89 	0.042993 	4931 	0.042518
40.91 	0.045298 	4923 	0.045060
40.93 	0.041954 	4934 	0.041598
40.95 	0.044372 	4913 	0.044014
40.97 	0.043054 	4924 	0.042579
40.99 	0.038790 	4924 	0.038314
41.01 	0.038681 	4912 	0.038442
41.03 	0.037717 	4905 	0.037478
41.05 	0.038493 	4936 	0.038255
41.07 	0.036714 	4930 	0.036476
41.09 	0.038874 	4939 	0.038400
41.11 	0.034245 	4935 	0.034008
41.13 	0.043355 	4936 	0.042762
41.15 	0.043513 	4941 	0.043158
41.17 	0.042764 	4934 	0.042290
41.19 	0.041988 	4930 	0.041394
41.21 	0.039093 	4937 	0.038737
41.23 	0.041506 	4939 	0.041032
41.25 	0.045814 	4933 	0.044983
41.27 	0.044818 	4931 	0.044462
41.29 	0.035511 	4928 	0.035036
41.31 	0.038922 	4933 	0.038684
41.33 	0.040510 	4937 	0.040036
41.35 	0.038072 	4938 	0.037835
41.37 	0.042648 	4924 	0.042291
41.39 	0.038111 	4933 	0.037398
41.41 	0.040804 	4926 	0.040447
41.43 	0.037533 	4929 	0.037176
41.45 	0.035613 	4914 	0.035235
41.47 	0.035729 	4926 	0.035372
41.49 	0.044767 	4892 	0.044168
41.51 	0.040688 	4940 	0.039977
41.53 	0.037015 	4944 	0.036659
41.55 	0.039311 	4935 	0.038718
41.57 	0.043311 	4941 	0.042244
41.59 	0.042570 	4933 	0.042095
41.61 	0.044418 	4953 	0.043471
41.63 	0.041312 	4938 	0.041075
41.65 	0.035301 	4929 	0.035064
41.67 	0.043320 	4940 	0.042964
41.69 	0.038205 	4947 	0.037850
41.71 	0.039724 	4934 	0.039131
41.73 	0.034846 	4936 	0.034253
41.75 	0.038953 	4929 	0.038597
41.77 	0.038859 	4941 	0.038621
41.79 	0.038026 	4944 	0.037552
41.81 	0.037277 	4936 	0.037158
41.83 	0.038961 	4928 	0.038367
41.85 	0.041304 	4939 	0.040711
41.87 	0.040122 	4935 	0.039409
41.89 	0.041151 	4933 	0.040676
41.91 	0.042342 	4936 	0.042105
41.93 	0.037105 	4932 	0.036867
41.95 	0.038126 	4931 	0.037770
41.97 	0.042735 	4914 	0.041881
41.99 	0.043425 	4905 	0.043186
42.01 	0.040267 	4942 	0.040149
42.03 	0.038267 	4939 	0.037674
42.05 	0.037561 	4952 	0.037561
42.07 	0.041928 	4937 	0.041454
42.09 	0.046888 	4948 	0.045822
42.11 	0.037614 	4945 	0.037140
42.13 	0.040849 	4945 	0.040494
42.15 	0.036655 	4938 	0.036417
42.17 	0.040464 	4918 	0.040106
42.19 	0.040139 	4908 	0.039780
42.21 	0.036115 	4901 	0.036115
42.23 	0.043132 	4892 	0.042653
42.25 	0.039681 	4889 	0.039321
42.27 	0.036110 	4874 	0.036110
42.29 	0.039071 	4863 	0.038589
42.31 	0.035015 	4855 	0.034774
42.33 	0.041167 	4834 	0.040682
42.35 	0.038652 	4838 	0.038168
42.37 	0.037681 	4830 	0.037317
42.39 	0.042048 	4804 	0.041682
42.41 	0.037052 	4804 	0.036809
42.43 	0.038815 	4792 	0.038448
42.45 	0.040201 	4776 	0.039956
42.47 	0.037566 	4765 	0.036951
42.49 	0.039664 	4765 	0.039050
42.51 	0.035210 	4743 	0.034963
42.53 	0.036802 	4728 	0.036554
42.55 	0.036746 	4708 	0.036622
42.57 	0.035095 	4730 	0.034724
42.59 	0.033834 	4729 	0.033462
42.61 	0.042268 	4708 	0.041522
42.63 	0.042897 	4709 	0.042772
42.65 	0.042049 	4685 	0.041299
42.67 	0.035226 	4684 	0.034726
42.69 	0.042790 	4674 	0.042163
42.71 	0.040103 	4663 	0.039475
42.73 	0.037284 	4640 	0.036527
42.75 	0.039203 	4617 	0.038949
42.77 	0.038913 	4600 	0.038786
42.79 	0.035356 	4582 	0.035100
42.81 	0.041868 	4562 	0.041482
42.83 	0.033069 	4536 	0.032552
42.85 	0.036219 	4528 	0.035702
42.87 	0.033118 	4499 	0.033118
42.89 	0.034152 	4480 	0.034021
42.91 	0.036355 	4456 	0.036093
42.93 	0.040036 	4446 	0.039509
42.95 	0.035553 	4416 	0.035155
42.97 	0.042036 	4401 	0.041637
42.99 	0.041733 	4385 	0.040932
43.01 	0.038047 	4363 	0.037913
43.03 	0.036926 	4333 	0.036791
43.05 	0.033757 	4325 	0.033486
43.07 	0.034683 	4296 	0.034547
43.09 	0.034322 	4283 	0.034048
43.11 	0.040658 	4255 	0.040107
43.13 	0.037763 	4237 	0.037486
43.15 	0.040181 	4206 	0.040181
43.17 	0.034458 	4179 	0.034037
43.19 	0.033381 	4194 	0.032822
43.21 	0.034756 	4172 	0.034194
43.23 	0.037313 	4154 	0.037172
43.25 	0.038694 	4135 	0.038269
43.27 	0.037759 	4105 	0.037616
43.29 	0.037317 	4100 	0.036151
43.31 	0.035548 	4079 	0.035261
43.33 	0.042459 	4051 	0.041591
43.35 	0.040179 	4032 	0.039888
43.37 	0.042092 	4015 	0.041217
43.39 	0.037481 	4002 	0.037335
43.41 	0.037261 	3972 	0.036966
43.43 	0.037626 	3960 	0.037330
43.45 	0.034053 	3935 	0.033756
43.47 	0.036215 	3921 	0.035618
43.49 	0.030793 	3897 	0.030342
43.51 	0.036368 	3877 	0.035915
43.53 	0.041419 	3863 	0.040332
43.55 	0.047908 	2964 	0.047315
43.57 	0.034406 	2238 	0.033316
43.59 	0.040664 	1746 	0.040329
43.61 	0.035529 	1351 	0.034662
43.63 	0.039960 	1001 	0.039960
43.65 	0.033479 	687 	0.032626
43.67 	0.031873 	502 	0.031873
43.69 	0.059946 	367 	0.056753
43.71 	0.050209 	239 	0.050209
43.73 	0.058333 	120 	0.058333
43.75 	0.062500 	16 	0.062500