File: Example_Data/25SC_s1_0048.000.dat
#F C:\frames\spec\25SC_s1_0048.000
#C title =s:48 frm:0 25SC_s1
#C wavelength =0.15406

#S 1  fr_average C:\frames\spec\25SC_s1_0048.000 C:\win32app\speccom\mask.axs chi 0 180 0 360 0.02
#C 2 theta =0.000000 to 180 deg
#C   q   =0.000000 to 81.568 nm^-1
#C  chi  =0.000000 to 360 deg
#C collumns:
#C  1 position (2theta or chi in degrees)
#C  2 average intensity (sum of all counts in the region divided with number of pixels)
#C  3 Number of pixels in region)
#C  4 error (sum of sqrt(intensity) for all pixels divided by number)
#N 4
#L TTh  Int  N_pix  Err
32.99 	0.065574 	61 	0.065574
33.01 	0.065292 	873 	0.064621
33.03 	0.061107 	1391 	0.059844
33.05 	0.059192 	1757 	0.058192
33.07 	0.069756 	2050 	0.068899
33.09 	0.066042 	2347 	0.064794
33.11 	0.061264 	2579 	0.060583
33.13 	0.067669 	2793 	0.065782
33.15 	0.065355 	2999 	0.064574
33.17 	0.059669 	3201 	0.059486
33.19 	0.060443 	3342 	0.059216
33.21 	0.068685 	3436 	0.067321
33.23 	0.061879 	3523 	0.060854
33.25 	0.057863 	3612 	0.056403
33.27 	0.057300 	3630 	0.056493
33.29 	0.061404 	3648 	0.059477
33.31 	0.056831 	3660 	0.056190
33.33 	0.056701 	3686 	0.056383
33.35 	0.063346 	3694 	0.062395
33.37 	0.063813 	3714 	0.062235
33.39 	0.060874 	3729 	0.059932
33.41 	0.063904 	3740 	0.063095
33.43 	0.057697 	3761 	0.056451
33.45 	0.057514 	3773 	0.056582
33.47 	0.057399 	3798 	0.056627
33.49 	0.062221 	3809 	0.061452
33.51 	0.057667 	3815 	0.056746
33.53 	0.058839 	3841 	0.058076
33.55 	0.068957 	3843 	0.066950
33.57 	0.064483 	3877 	0.062821
33.59 	0.058763 	3880 	0.057555
33.61 	0.062932 	3909 	0.061733
33.63 	0.052054 	3919 	0.051755
33.65 	0.059272 	3931 	0.058378
33.67 	0.061457 	3954 	0.059679
33.69 	0.059449 	3953 	0.058239
33.71 	0.055597 	3975 	0.054247
33.73 	0.058691 	4004 	0.057521
33.75 	0.057764 	3999 	0.056568
33.77 	0.055652 	4025 	0.054924
33.79 	0.057659 	4041 	0.057079
33.81 	0.059435 	4038 	0.058710
33.83 	0.056543 	4050 	0.055675
33.85 	0.052452 	4099 	0.051594
33.87 	0.058380 	4111 	0.058237
33.89 	0.067217 	4121 	0.065369
33.91 	0.054230 	4149 	0.053100
33.93 	0.056854 	4151 	0.056430
33.95 	0.056207 	4181 	0.055366
33.97 	0.057279 	4190 	0.056021
33.99 	0.059048 	4200 	0.057653
34.01 	0.055068 	4213 	0.054651
34.03 	0.058200 	4244 	0.056958
34.05 	0.053151 	4252 	0.052738
34.07 	0.067479 	4268 	0.066655
34.09 	0.059496 	4286 	0.058813
34.11 	0.058113 	4302 	0.057432
34.13 	0.059656 	4308 	0.058569
34.15 	0.053106 	4331 	0.052565
34.17 	0.057701 	4350 	0.057028
34.19 	0.060064 	4362 	0.058453
34.21 	0.062228 	4371 	0.061134
34.23 	0.058047 	4393 	0.057247
34.25 	0.057675 	4404 	0.056611
34.27 	0.054726 	4422 	0.053534
34.29 	0.059076 	4435 	0.057733
34.31 	0.058995 	4458 	0.057681
34.33 	0.055021 	4471 	0.054104
34.35 	0.054416 	4484 	0.053349
34.37 	0.063906 	4491 	0.062993
34.39 	0.055753 	4502 	0.054409
34.41 	0.063632 	4526 	0.062597
34.43 	0.062789 	4539 	0.062015
34.45 	0.061522 	4535 	0.060746
34.47 	0.058362 	4592 	0.057597
34.49 	0.056776 	4597 	0.056266
34.51 	0.057099 	4606 	0.056209
34.53 	0.056429 	4643 	0.055546
34.55 	0.055998 	4643 	0.055620
34.57 	0.058584 	4660 	0.057578
34.59 	0.062032 	4675 	0.060654
34.61 	0.058974 	4697 	0.057976
34.63 	0.050743 	4710 	0.050743
34.65 	0.063334 	4721 	0.061969
34.67 	0.060747 	4741 	0.060005
34.69 	0.058267 	4754 	0.057158
34.71 	0.058959 	4766 	0.058345
34.73 	0.063923 	4787 	0.062455
34.75 	0.060732 	4808 	0.059372
34.77 	0.054587 	4818 	0.053371
34.79 	0.052861 	4824 	0.052132
34.81 	0.056760 	4845 	0.056155
34.83 	0.055738 	4862 	0.054534
34.85 	0.054221 	4869 	0.053739
34.87 	0.053410 	4868 	0.052207
34.89 	0.058992 	4882 	0.058493
34.91 	0.058787 	4882 	0.056988
34.93 	0.057971 	4899 	0.057134
34.95 	0.059305 	4890 	0.058466
34.97 	0.057528 	4902 	0.056691
34.99 	0.056361 	4897 	0.055165
35.01 	0.058501 	4923 	0.057311
35.03 	0.050779 	4943 	0.049712
35.05 	0.059026 	4947 	0.057842
35.07 	0.051619 	4940 	0.051027
35.09 	0.049465 	4953 	0.048637
35.11 	0.066909 	4947 	0.065844
35.13 	0.055063 	4958 	0.054354
35.15 	0.056512 	4937 	0.055800
35.17 	0.055803 	4946 	0.054737
35.19 	0.060704 	4942 	0.059519
35.21 	0.066734 	4945 	0.065056
35.23 	0.057634 	4945 	0.056449
35.25 	0.052195 	4943 	0.051840
35.27 	0.060833 	4948 	0.059886
35.29 	0.055612 	4945 	0.054171
35.31 	0.056152 	4933 	0.054727
35.33 	0.057050 	4943 	0.055747
35.35 	0.057669 	4942 	0.057076
35.37 	0.061348 	4939 	0.060755
35.39 	0.054196 	4945 	0.053111
35.41 	0.057044 	4926 	0.056212
35.43 	0.058788 	4933 	0.057838
35.45 	0.059753 	4937 	0.058547
35.47 	0.057595 	4931 	0.056526
35.49 	0.061711 	4910 	0.060637
35.51 	0.057450 	4926 	0.056360
35.53 	0.059204 	4949 	0.058730
35.55 	0.060667 	4945 	0.059364
35.57 	0.058788 	4933 	0.058194
35.59 	0.051972 	4945 	0.051024
35.61 	0.058478 	4942 	0.058004
35.63 	0.054623 	4943 	0.053793
35.65 	0.057027 	4945 	0.056435
35.67 	0.061716 	4942 	0.060274
35.69 	0.059038 	4946 	0.058090
35.71 	0.056917 	4937 	0.056087
35.73 	0.058549 	4936 	0.057481
35.75 	0.058203 	4931 	0.057609
35.77 	0.054534 	4951 	0.053588
35.79 	0.056975 	4932 	0.055787
35.81 	0.056558 	4933 	0.055252
35.83 	0.056005 	4946 	0.054801
35.85 	0.058967 	4935 	0.058254
35.87 	0.052610 	4923 	0.051896
35.89 	0.064856 	4934 	0.063431
35.91 	0.055612 	4927 	0.054522
35.93 	0.055815 	4927 	0.055458
35.95 	0.060606 	4917 	0.059415
35.97 	0.063314 	4912 	0.061625
35.99 	0.059324 	4939 	0.058612
36.01 	0.061460 	4930 	0.060510
36.03 	0.060085 	4943 	0.058189
36.05 	0.054601 	4945 	0.053416
36.07 	0.057299 	4939 	0.056943
36.09 	0.060324 	4940 	0.058782
36.11 	0.057618 	4929 	0.055954
36.13 	0.057467 	4942 	0.056755
36.15 	0.060741 	4939 	0.059792
36.17 	0.060711 	4925 	0.059640
36.19 	0.060931 	4940 	0.060220
36.21 	0.060459 	4929 	0.058756
36.23 	0.057345 	4935 	0.056396
36.25 	0.058490 	4941 	0.057660
36.27 	0.056853 	4925 	0.056258
36.29 	0.058000 	4931 	0.057288
36.31 	0.056818 	4928 	0.056224
36.33 	0.054936 	4933 	0.054342
36.35 	0.059444 	4929 	0.058256
36.37 	0.055657 	4923 	0.055181
36.39 	0.062386 	4921 	0.061552
36.41 	0.060866 	4896 	0.060128
36.43 	0.061282 	4928 	0.060213
36.45 	0.065720 	4930 	0.064888
36.47 	0.056524 	4936 	0.055693
36.49 	0.053217 	4942 	0.052506
36.51 	0.059599 	4933 	0.059005
36.53 	0.059883 	4943 	0.058816
36.55 	0.056830 	4927 	0.056235
36.57 	0.058979 	4934 	0.058622
36.59 	0.052642 	4939 	0.052049
36.61 	0.063070 	4931 	0.061882
36.63 	0.056175 	4931 	0.055462
36.65 	0.058191 	4932 	0.057122
36.67 	0.055781 	4930 	0.054593
36.69 	0.063299 	4929 	0.061992
36.71 	0.057712 	4921 	0.056383
36.73 	0.059289 	4925 	0.058576
36.75 	0.055016 	4944 	0.053594
36.77 	0.058752 	4919 	0.058037
36.79 	0.059338 	4921 	0.058366
36.81 	0.057771 	4916 	0.057175
36.83 	0.061445 	4915 	0.060352
36.85 	0.060024 	4898 	0.059427
36.87 	0.065939 	4944 	0.064280
36.89 	0.059194 	4916 	0.058480
36.91 	0.059097 	4941 	0.058149
36.93 	0.054361 	4930 	0.052816
36.95 	0.061829 	4933 	0.059810
36.97 	0.062829 	4934 	0.061523
36.99 	0.062411 	4935 	0.060631
37.01 	0.068113 	4933 	0.066806
37.03 	0.061738 	4924 	0.061263
37.05 	0.055206 	4927 	0.054255
37.07 	0.051469 	4935 	0.050994
37.09 	0.057630 	4928 	0.056560
37.11 	0.055724 	4935 	0.055111
37.13 	0.061129 	4924 	0.059940
37.15 	0.062946 	4909 	0.061633
37.17 	0.059384 	4934 	0.058315
37.19 	0.056447 	4925 	0.055733
37.21 	0.060606 	4917 	0.059653
37.23 	0.057747 	4918 	0.056794
37.25 	0.059255 	4911 	0.057823
37.27 	0.062526 	4894 	0.061688
37.29 	0.060041 	4930 	0.059090
37.31 	0.057548 	4935 	0.056480
37.33 	0.054191 	4927 	0.053478
37.35 	0.054273 	4938 	0.053680
37.37 	0.057033 	4927 	0.056082
37.39 	0.059826 	4931 	0.058756
37.41 	0.054756 	4931 	0.054043
37.43 	0.053933 	4932 	0.053201
37.45 	0.054630 	4924 	0.054036
37.47 	0.060459 	4929 	0.059389
37.49 	0.062767 	4923 	0.062053
37.51 	0.059599 	4933 	0.059005
37.53 	0.057532 	4919 	0.056222
37.55 	0.055375 	4930 	0.054306
37.57 	0.058477 	4925 	0.057288
37.59 	0.058800 	4915 	0.057727
37.61 	0.057700 	4922 	0.056748
37.63 	0.059362 	4919 	0.058647
37.65 	0.058764 	4918 	0.058049
37.67 	0.055669 	4904 	0.055072
37.69 	0.062474 	4898 	0.061159
37.71 	0.055386 	4929 	0.054079
37.73 	0.055184 	4929 	0.054589
37.75 	0.054251 	4940 	0.053164
37.77 	0.054268 	4920 	0.053911
37.79 	0.058621 	4930 	0.057551
37.81 	0.058585 	4933 	0.057873
37.83 	0.058130 	4920 	0.056939
37.85 	0.057294 	4922 	0.056342
37.87 	0.057299 	4939 	0.056469
37.89 	0.053604 	4925 	0.053247
37.91 	0.053955 	4930 	0.053124
37.93 	0.058548 	4919 	0.057596
37.95 	0.056899 	4921 	0.056185
37.97 	0.058633 	4929 	0.057444
37.99 	0.054764 	4912 	0.053571
38.01 	0.057021 	4928 	0.055832
38.03 	0.050519 	4909 	0.050042
38.05 	0.057056 	4925 	0.055985
38.07 	0.056223 	4909 	0.055149
38.09 	0.061296 	4878 	0.060335
38.11 	0.064843 	4935 	0.063537
38.13 	0.062994 	4937 	0.061451
38.15 	0.056324 	4918 	0.055609
38.17 	0.064300 	4930 	0.063706
38.19 	0.057404 	4930 	0.056572
38.21 	0.071704 	4923 	0.069800
38.23 	0.069866 	4938 	0.067593
38.25 	0.069961 	4917 	0.068770
38.27 	0.067546 	4930 	0.066239
38.29 	0.073517 	4924 	0.072566
38.31 	0.073879 	4927 	0.072452
38.33 	0.085297 	4924 	0.083631
38.35 	0.076907 	4928 	0.075461
38.37 	0.073517 	4924 	0.071971
38.39 	0.085965 	4909 	0.082803
38.41 	0.085720 	4923 	0.083102
38.43 	0.077095 	4916 	0.074901
38.45 	0.087434 	4918 	0.085866
38.47 	0.083147 	4907 	0.081356
38.49 	0.087759 	4877 	0.085337
38.51 	0.080697 	4932 	0.078896
38.53 	0.077095 	4929 	0.074599
38.55 	0.088533 	4936 	0.086378
38.57 	0.083486 	4923 	0.082058
38.59 	0.071893 	4924 	0.070346
38.61 	0.077391 	4936 	0.075610
38.63 	0.072908 	4924 	0.071719
38.65 	0.077674 	4918 	0.075768
38.67 	0.070893 	4937 	0.069707
38.69 	0.066030 	4922 	0.064483
38.71 	0.063160 	4924 	0.061732
38.73 	0.065474 	4918 	0.064878
38.75 	0.058453 	4927 	0.056670
38.77 	0.060329 	4923 	0.058901
38.79 	0.059587 	4934 	0.058755
38.81 	0.056189 	4912 	0.055593
38.83 	0.046757 	4919 	0.045666
38.85 	0.051710 	4912 	0.050875
38.87 	0.047241 	4911 	0.046764
38.89 	0.055748 	4897 	0.054911
38.91 	0.047114 	4903 	0.046756
38.93 	0.050223 	4938 	0.049630
38.95 	0.045750 	4918 	0.045036
38.97 	0.054350 	4931 	0.053637
38.99 	0.054487 	4937 	0.054012
39.01 	0.053070 	4918 	0.052713
39.03 	0.047021 	4934 	0.046546
39.05 	0.049137 	4925 	0.048423
39.07 	0.049350 	4924 	0.048279
39.09 	0.052610 	4923 	0.051658
39.11 	0.047252 	4931 	0.046658
39.13 	0.045298 	4923 	0.044703
39.15 	0.053306 	4915 	0.052949
39.17 	0.044967 	4937 	0.043780
39.19 	0.052268 	4917 	0.051553
39.21 	0.042566 	4910 	0.042208
39.23 	0.049137 	4925 	0.048661
39.25 	0.042666 	4922 	0.042190
39.27 	0.048473 	4910 	0.048115
39.29 	0.048562 	4901 	0.048083
39.31 	0.045045 	4884 	0.044925
39.33 	0.049077 	4931 	0.048602
39.35 	0.046809 	4935 	0.046334
39.37 	0.049300 	4929 	0.048567
39.39 	0.050112 	4929 	0.049399
39.41 	0.048469 	4931 	0.047756
39.43 	0.040746 	4933 	0.040746
39.45 	0.036751 	4925 	0.036157
39.47 	0.042454 	4923 	0.042335
39.49 	0.046017 	4933 	0.045304
39.51 	0.049147 	4924 	0.048790
39.53 	0.046923 	4923 	0.046308
39.55 	0.046757 	4919 	0.045924
39.57 	0.047638 	4933 	0.046807
39.59 	0.046010 	4912 	0.045533
39.61 	0.044688 	4923 	0.043855
39.63 	0.042056 	4922 	0.041818
39.65 	0.046488 	4926 	0.046012
39.67 	0.041522 	4913 	0.040926
39.69 	0.046989 	4916 	0.045778
39.71 	0.050255 	4895 	0.049418
39.73 	0.043195 	4908 	0.042837
39.75 	0.044237 	4928 	0.043524
39.77 	0.045187 	4935 	0.044475
39.79 	0.045676 	4926 	0.044963
39.81 	0.050538 	4927 	0.049824
39.83 	0.047629 	4934 	0.046441
39.85 	0.042013 	4927 	0.041538
39.87 	0.042640 	4925 	0.041926
39.89 	0.040738 	4934 	0.040500
39.91 	0.044900 	4922 	0.044424
39.93 	0.046384 	4937 	0.046028
39.95 	0.044354 	4915 	0.043758
39.97 	0.045657 	4928 	0.045420
39.99 	0.046837 	4932 	0.045986
40.01 	0.040667 	4918 	0.040071
40.03 	0.044440 	4928 	0.043846
40.05 	0.045353 	4917 	0.044876
40.07 	0.042048 	4923 	0.040977
40.09 	0.039056 	4916 	0.038699
40.11 	0.041090 	4916 	0.039998
40.13 	0.045752 	4896 	0.044914
40.15 	0.045390 	4913 	0.044794
40.17 	0.043425 	4928 	0.042950
40.19 	0.044431 	4929 	0.043956
40.21 	0.041945 	4935 	0.041589
40.23 	0.043593 	4932 	0.042880
40.25 	0.042480 	4920 	0.041646
40.27 	0.038890 	4937 	0.038534
40.29 	0.047087 	4927 	0.046612
40.31 	0.039482 	4939 	0.038889
40.33 	0.045215 	4932 	0.044740
40.35 	0.046961 	4919 	0.046008
40.37 	0.041388 	4929 	0.040556
40.39 	0.043399 	4931 	0.042567
40.41 	0.043655 	4925 	0.043060
40.43 	0.038805 	4922 	0.038210
40.45 	0.042773 	4933 	0.041942
40.47 	0.047580 	4918 	0.046985
40.49 	0.037759 	4926 	0.037640
40.51 	0.045104 	4922 	0.044509
40.53 	0.036615 	4916 	0.036258
40.55 	0.036064 	4908 	0.035825
40.57 	0.040286 	4890 	0.039807
40.59 	0.041523 	4937 	0.041049
40.61 	0.040324 	4935 	0.039849
40.63 	0.041785 	4930 	0.040716
40.65 	0.042536 	4937 	0.042299
40.67 	0.042579 	4932 	0.041985
40.69 	0.049220 	4937 	0.048251
40.71 	0.045012 	4932 	0.044300
40.73 	0.044255 	4926 	0.042689
40.75 	0.035693 	4931 	0.035574
40.77 	0.039482 	4939 	0.038988
40.79 	0.043664 	4924 	0.043188
40.81 	0.043109 	4941 	0.042397
40.83 	0.036932 	4928 	0.036456
40.85 	0.041836 	4924 	0.040984
40.87 	0.041396 	4928 	0.040683
40.89 	0.041979 	4931 	0.041385
40.91 	0.050579 	4923 	0.049746
40.93 	0.040332 	4934 	0.039857
40.95 	0.042744 	4913 	0.042028
40.97 	0.038180 	4924 	0.037704
40.99 	0.042039 	4924 	0.041920
41.01 	0.046417 	4912 	0.045701
41.03 	0.041590 	4905 	0.040635
41.05 	0.035251 	4936 	0.035014
41.07 	0.045233 	4930 	0.044639
41.09 	0.044138 	4939 	0.043308
41.11 	0.037893 	4935 	0.037299
41.13 	0.047407 	4936 	0.046457
41.15 	0.038859 	4941 	0.038266
41.17 	0.040940 	4934 	0.040466
41.19 	0.043002 	4930 	0.042289
41.21 	0.042739 	4937 	0.041770
41.23 	0.041911 	4939 	0.041437
41.25 	0.044192 	4933 	0.043480
41.27 	0.044007 	4931 	0.043532
41.29 	0.044440 	4928 	0.043846
41.31 	0.041557 	4933 	0.041082
41.33 	0.041523 	4937 	0.040792
41.35 	0.044552 	4938 	0.044197
41.37 	0.040008 	4924 	0.039413
41.39 	0.041760 	4933 	0.040691
41.41 	0.043849 	4926 	0.042898
41.43 	0.034084 	4929 	0.033252
41.45 	0.043142 	4914 	0.042665
41.47 	0.044255 	4926 	0.043779
41.49 	0.040883 	4892 	0.040524
41.51 	0.040688 	4940 	0.040333
41.53 	0.038228 	4944 	0.037636
41.55 	0.042553 	4935 	0.041960
41.57 	0.037037 	4941 	0.036207
41.59 	0.044800 	4933 	0.044207
41.61 	0.041389 	4953 	0.040561
41.63 	0.043337 	4938 	0.042863
41.65 	0.038142 	4929 	0.037785
41.67 	0.043522 	4940 	0.042929
41.69 	0.045078 	4947 	0.044249
41.71 	0.039927 	4934 	0.039927
41.73 	0.039911 	4936 	0.039674
41.75 	0.038750 	4929 	0.038037
41.77 	0.037037 	4941 	0.036800
41.79 	0.038835 	4944 	0.038124
41.81 	0.043558 	4936 	0.043083
41.83 	0.039773 	4928 	0.039416
41.85 	0.040292 	4939 	0.039679
41.87 	0.040122 	4935 	0.039765
41.89 	0.042773 	4933 	0.042417
41.91 	0.034643 	4936 	0.034149
41.93 	0.041768 	4932 	0.041055
41.95 	0.038735 	4931 	0.038497
41.97 	0.041921 	4914 	0.040967
41.99 	0.043017 	4905 	0.042659
42.01 	0.041279 	4942 	0.040805
42.03 	0.036850 	4939 	0.036375
42.05 	0.039782 	4952 	0.039545
42.07 	0.037877 	4937 	0.037165
42.09 	0.039410 	4948 	0.038700
42.11 	0.042872 	4945 	0.042635
42.13 	0.035794 	4945 	0.035675
42.15 	0.038072 	4938 	0.037835
42.17 	0.038430 	4918 	0.038192
42.19 	0.042787 	4908 	0.042429
42.21 	0.040604 	4901 	0.040126
42.23 	0.036386 	4892 	0.036146
42.25 	0.038249 	4889 	0.037770
42.27 	0.038162 	4874 	0.037921
42.29 	0.037837 	4863 	0.037355
42.31 	0.037281 	4855 	0.036799
42.33 	0.036823 	4834 	0.036459
42.35 	0.044853 	4838 	0.044490
42.37 	0.042857 	4830 	0.042615
42.39 	0.041840 	4804 	0.041596
42.41 	0.040175 	4804 	0.039301
42.43 	0.039232 	4792 	0.038988
42.45 	0.038735 	4776 	0.038367
42.47 	0.041973 	4765 	0.041358
42.49 	0.040084 	4765 	0.039592
42.51 	0.040481 	4743 	0.039863
42.53 	0.041032 	4728 	0.040289
42.55 	0.043118 	4708 	0.042102
42.57 	0.042283 	4730 	0.041912
42.59 	0.038063 	4729 	0.037691
42.61 	0.037596 	4708 	0.037347
42.63 	0.032703 	4709 	0.032330
42.65 	0.042049 	4685 	0.041424
42.67 	0.040564 	4684 	0.040314
42.69 	0.033590 	4674 	0.033339
42.71 	0.041175 	4663 	0.040924
42.73 	0.036638 	4640 	0.036133
42.75 	0.036171 	4617 	0.036171
42.77 	0.038913 	4600 	0.038658
42.79 	0.045395 	4582 	0.045011
42.81 	0.040552 	4562 	0.039654
42.83 	0.038801 	4536 	0.038672
42.85 	0.041740 	4528 	0.041352
42.87 	0.045788 	4499 	0.045007
42.89 	0.039732 	4480 	0.039078
42.91 	0.039048 	4456 	0.038501
42.93 	0.040486 	4446 	0.039564
42.95 	0.043931 	4416 	0.043666
42.97 	0.038173 	4401 	0.037907
42.99 	0.037400 	4385 	0.036866
43.01 	0.040798 	4363 	0.040261
43.03 	0.034387 	4333 	0.034252
43.05 	0.033988 	4325 	0.033447
43.07 	0.037709 	4296 	0.037437
43.09 	0.041793 	4283 	0.040973
43.11 	0.036193 	4255 	0.035917
43.13 	0.033042 	4237 	0.032489
43.15 	0.039230 	4206 	0.038812
43.17 	0.039483 	4179 	0.038782
43.19 	0.047926 	4194 	0.047227
43.21 	0.038111 	4172 	0.036988
43.23 	0.036110 	4154 	0.035546
43.25 	0.037485 	4135 	0.037202
43.27 	0.036784 	4105 	0.036356
43.29 	0.038537 	4100 	0.038251
43.31 	0.038000 	4079 	0.037569
43.33 	0.033572 	4051 	0.033427
43.35 	0.035714 	4032 	0.035278
43.37 	0.039601 	4015 	0.039164
43.39 	0.036232 	4002 	0.035646
43.41 	0.033988 	3972 	0.033103
43.43 	0.037121 	3960 	0.036530
43.45 	0.033799 	3935 	0.033502
43.47 	0.038001 	3921 	0.037552
43.49 	0.038235 	3897 	0.037934
43.51 	0.036626 	3877 	0.036475
43.53 	0.037536 	3863 	0.036626
43.55 	0.042848 	2964 	0.042452
43.57 	0.035746 	2238 	0.035746
43.59 	0.048683 	1746 	0.048012
43.61 	0.027387 	1351 	0.026520
43.63 	0.051948 	1001 	0.050778
43.65 	0.037846 	687 	0.036993
43.67 	0.021912 	502 	0.021912
43.69 	0.024523 	367 	0.024523
43.71 	0.029289 	239 	0.029289
43.73 	0.033333 	120 	0.033333
43.75 	0.000000 	16 	0.000000