File: Example_Data/25SC_s1_0012.004.dat
#F C:\frames\spec\25SC_s1_0012.004
#C title =s:12 frm:4 25SC_s1
#C wavelength =0.15406

#S 1  fr_average C:\frames\spec\25SC_s1_0012.004 C:\win32app\speccom\mask.axs chi 0 180 0 360 0.02
#C 2 theta =0.000000 to 180 deg
#C   q   =0.000000 to 81.568 nm^-1
#C  chi  =0.000000 to 360 deg
#C collumns:
#C  1 position (2theta or chi in degrees)
#C  2 average intensity (sum of all counts in the region divided with number of pixels)
#C  3 Number of pixels in region)
#C  4 error (sum of sqrt(intensity) for all pixels divided by number)
#N 4
#L TTh  Int  N_pix  Err
32.99 	0.032787 	61 	0.032787
33.01 	0.067583 	873 	0.067583
33.03 	0.056794 	1391 	0.055951
33.05 	0.051224 	1757 	0.050890
33.07 	0.058537 	2050 	0.058251
33.09 	0.069450 	2347 	0.067703
33.11 	0.066693 	2579 	0.065103
33.13 	0.061941 	2793 	0.061102
33.15 	0.072357 	2999 	0.070600
33.17 	0.061856 	3201 	0.060758
33.19 	0.048773 	3342 	0.048247
33.21 	0.056752 	3436 	0.055729
33.23 	0.054215 	3523 	0.053051
33.25 	0.047896 	3612 	0.046923
33.27 	0.068044 	3630 	0.066565
33.29 	0.057018 	3648 	0.055894
33.31 	0.063115 	3660 	0.062288
33.33 	0.058600 	3686 	0.057011
33.35 	0.053600 	3694 	0.052808
33.37 	0.067044 	3714 	0.066071
33.39 	0.068383 	3729 	0.067283
33.41 	0.059358 	3740 	0.057766
33.43 	0.054507 	3761 	0.053884
33.45 	0.062815 	3773 	0.061417
33.47 	0.062928 	3798 	0.062157
33.49 	0.062221 	3809 	0.060529
33.51 	0.059764 	3815 	0.058536
33.53 	0.070034 	3841 	0.068966
33.55 	0.057767 	3843 	0.056853
33.57 	0.060098 	3877 	0.058889
33.59 	0.061856 	3880 	0.060648
33.61 	0.060885 	3909 	0.059512
33.63 	0.059199 	3919 	0.058152
33.65 	0.060799 	3931 	0.059011
33.67 	0.058675 	3954 	0.058082
33.69 	0.058943 	3953 	0.057288
33.71 	0.065409 	3975 	0.064230
33.73 	0.055445 	4004 	0.054128
33.75 	0.057514 	3999 	0.056343
33.77 	0.059876 	4025 	0.059294
33.79 	0.060134 	4041 	0.059554
33.81 	0.065131 	4038 	0.063971
33.83 	0.057284 	4050 	0.056705
33.85 	0.063430 	4099 	0.062144
33.87 	0.054488 	4111 	0.053206
33.89 	0.066246 	4121 	0.065228
33.91 	0.056640 	4149 	0.055652
33.93 	0.058540 	4151 	0.057693
33.95 	0.063143 	4181 	0.062302
33.97 	0.060621 	4190 	0.059921
33.99 	0.058571 	4200 	0.057735
34.01 	0.069784 	4213 	0.067976
34.03 	0.055844 	4244 	0.054877
34.05 	0.066792 	4252 	0.065414
34.07 	0.057404 	4268 	0.056855
34.09 	0.056230 	4286 	0.054726
34.11 	0.057183 	4302 	0.056638
34.13 	0.065924 	4308 	0.064836
34.15 	0.063034 	4331 	0.061005
34.17 	0.061839 	4350 	0.060762
34.19 	0.056167 	4362 	0.055630
34.21 	0.053992 	4371 	0.052920
34.23 	0.062600 	4393 	0.061399
34.25 	0.058810 	4404 	0.058411
34.27 	0.062641 	4422 	0.061449
34.29 	0.059076 	4435 	0.057755
34.31 	0.060565 	4458 	0.059777
34.33 	0.059942 	4471 	0.058763
34.35 	0.059099 	4484 	0.058446
34.37 	0.063238 	4491 	0.062064
34.39 	0.061306 	4502 	0.060656
34.41 	0.063632 	4526 	0.061691
34.43 	0.059484 	4539 	0.058968
34.45 	0.067475 	4535 	0.066313
34.47 	0.059233 	4592 	0.058213
34.49 	0.064172 	4597 	0.063408
34.51 	0.062093 	4606 	0.060694
34.53 	0.052121 	4643 	0.051617
34.55 	0.062890 	4643 	0.061629
34.57 	0.053433 	4660 	0.052679
34.59 	0.070160 	4675 	0.068281
34.61 	0.059187 	4697 	0.057940
34.63 	0.071975 	4710 	0.070959
34.65 	0.059521 	4721 	0.058529
34.67 	0.059059 	4741 	0.057824
34.69 	0.066260 	4754 	0.065028
34.71 	0.062526 	4766 	0.061789
34.73 	0.060163 	4787 	0.058939
34.75 	0.061148 	4808 	0.059808
34.77 	0.062266 	4818 	0.060929
34.79 	0.054104 	4824 	0.052890
34.81 	0.073065 	4845 	0.071735
34.83 	0.063965 	4862 	0.062520
34.85 	0.059766 	4869 	0.058563
34.87 	0.061216 	4868 	0.059772
34.89 	0.059402 	4882 	0.058562
34.91 	0.058583 	4882 	0.057623
34.93 	0.059604 	4899 	0.059006
34.95 	0.052352 	4890 	0.051613
34.97 	0.060180 	4902 	0.059463
34.99 	0.062691 	4897 	0.061595
35.01 	0.060532 	4923 	0.059104
35.03 	0.059883 	4943 	0.057987
35.05 	0.063069 	4947 	0.061884
35.07 	0.058300 	4940 	0.057114
35.09 	0.065011 	4953 	0.064065
35.11 	0.058419 	4947 	0.057709
35.13 	0.060508 	4958 	0.058854
35.15 	0.054689 	4937 	0.053859
35.17 	0.064092 	4946 	0.063500
35.19 	0.063537 	4942 	0.061977
35.21 	0.062892 	4945 	0.061589
35.23 	0.056623 	4945 	0.055438
35.25 	0.053813 	4943 	0.053221
35.27 	0.065279 	4948 	0.063385
35.29 	0.065116 	4945 	0.064169
35.31 	0.058180 	4933 	0.056735
35.33 	0.062513 	4943 	0.060716
35.35 	0.062930 	4942 	0.061626
35.37 	0.062563 	4939 	0.061021
35.39 	0.058645 	4945 	0.057460
35.41 	0.063946 	4926 	0.062282
35.43 	0.062639 	4933 	0.060957
35.45 	0.064006 	4937 	0.062089
35.47 	0.054958 	4931 	0.054483
35.49 	0.054175 	4910 	0.053459
35.51 	0.062728 	4926 	0.062134
35.53 	0.057385 	4949 	0.056557
35.55 	0.064105 	4945 	0.062901
35.57 	0.058382 	4933 	0.057789
35.59 	0.058443 	4945 	0.057732
35.61 	0.057264 	4942 	0.055723
35.63 	0.061906 	4943 	0.060938
35.65 	0.065521 	4945 	0.064455
35.67 	0.062525 	4942 	0.061083
35.69 	0.063081 	4946 	0.061423
35.71 	0.064006 	4937 	0.062820
35.73 	0.064019 	4936 	0.062220
35.75 	0.057595 	4931 	0.055793
35.77 	0.059382 	4951 	0.058790
35.79 	0.062247 	4932 	0.060940
35.81 	0.065072 	4933 	0.063647
35.83 	0.061666 	4946 	0.060482
35.85 	0.060588 	4935 	0.059757
35.87 	0.060329 	4923 	0.059139
35.89 	0.056344 	4934 	0.054781
35.91 	0.066978 	4927 	0.065432
35.93 	0.060483 	4927 	0.059532
35.95 	0.058979 	4917 	0.057907
35.97 	0.057410 	4912 	0.055483
35.99 	0.057704 	4939 	0.057230
36.01 	0.069777 	4930 	0.068707
36.03 	0.065952 	4943 	0.064530
36.05 	0.054803 	4945 	0.053974
36.07 	0.058919 	4939 	0.057970
36.09 	0.059312 	4940 	0.058126
36.11 	0.061270 	4929 	0.059844
36.13 	0.060097 	4942 	0.059267
36.15 	0.058514 	4939 	0.056972
36.17 	0.060508 	4925 	0.059437
36.19 	0.059109 	4940 	0.058378
36.21 	0.057010 	4929 	0.056296
36.23 	0.056535 	4935 	0.055585
36.25 	0.063145 	4941 	0.061367
36.27 	0.058071 	4925 	0.055911
36.29 	0.056175 	4931 	0.054968
36.31 	0.061485 	4928 	0.060653
36.33 	0.054531 	4933 	0.053818
36.35 	0.062284 	4929 	0.061453
36.37 	0.062767 	4923 	0.062053
36.39 	0.061776 	4921 	0.060328
36.41 	0.059845 	4896 	0.059007
36.43 	0.055195 	4928 	0.054719
36.45 	0.056795 	4930 	0.055369
36.47 	0.059360 	4936 	0.058292
36.49 	0.057264 	4942 	0.055723
36.51 	0.054328 	4933 	0.053259
36.53 	0.056443 	4943 	0.055614
36.55 	0.061092 	4927 	0.060379
36.57 	0.062829 	4934 	0.062216
36.59 	0.061551 	4939 	0.060108
36.61 	0.063476 	4931 	0.062526
36.63 	0.061042 	4931 	0.059854
36.65 	0.059002 	4932 	0.058052
36.67 	0.062677 	4930 	0.061846
36.69 	0.057618 	4929 	0.056073
36.71 	0.060557 	4921 	0.059109
36.73 	0.061929 	4925 	0.061096
36.75 	0.055825 	4944 	0.054621
36.77 	0.056312 	4919 	0.055717
36.79 	0.065434 	4921 	0.064005
36.81 	0.060212 	4916 	0.059139
36.83 	0.059410 	4915 	0.058576
36.85 	0.056758 	4898 	0.055442
36.87 	0.053398 	4944 	0.052095
36.89 	0.054312 	4916 	0.053121
36.91 	0.060312 	4941 	0.058889
36.93 	0.055984 	4930 	0.055033
36.95 	0.054125 	4933 	0.053650
36.97 	0.061816 	4934 	0.061222
36.99 	0.063019 	4935 	0.062307
37.01 	0.058788 	4933 	0.058075
37.03 	0.051584 	4924 	0.050870
37.05 	0.061498 	4927 	0.060071
37.07 	0.060993 	4935 	0.059806
37.09 	0.054180 	4928 	0.053091
37.11 	0.058967 	4935 	0.057898
37.13 	0.055240 	4924 	0.054149
37.15 	0.058057 	4909 	0.057460
37.17 	0.057357 	4934 	0.056170
37.19 	0.058071 	4925 	0.057001
37.21 	0.056539 	4917 	0.055089
37.23 	0.058357 	4918 	0.057523
37.25 	0.058033 	4911 	0.056482
37.27 	0.056804 	4894 	0.055727
37.29 	0.054158 	4930 	0.053326
37.31 	0.055927 	4935 	0.055334
37.33 	0.057845 	4927 	0.056893
37.35 	0.053665 	4938 	0.052598
37.37 	0.055815 	4927 	0.055220
37.39 	0.059826 	4931 	0.058638
37.41 	0.056784 	4931 	0.056071
37.43 	0.056569 	4932 	0.056332
37.45 	0.052803 	4924 	0.051970
37.47 	0.063907 	4929 	0.062937
37.49 	0.049563 	4923 	0.049087
37.51 	0.052909 	4933 	0.052196
37.53 	0.050417 	4919 	0.049583
37.55 	0.055578 	4930 	0.054865
37.57 	0.058274 	4925 	0.057442
37.59 	0.057172 	4915 	0.055861
37.61 	0.050589 	4922 	0.049756
37.63 	0.056312 	4919 	0.055598
37.65 	0.053680 	4918 	0.052727
37.67 	0.052814 	4904 	0.052097
37.69 	0.053083 	4898 	0.052963
37.71 	0.058227 	4929 	0.057395
37.73 	0.053966 	4929 	0.052897
37.75 	0.059109 	4940 	0.058161
37.77 	0.055691 	4920 	0.054977
37.79 	0.056389 	4930 	0.055677
37.81 	0.059396 	4933 	0.057971
37.83 	0.053049 	4920 	0.052453
37.85 	0.056075 	4922 	0.055242
37.87 	0.054667 	4939 	0.053837
37.89 	0.054213 	4925 	0.053004
37.91 	0.055781 	4930 	0.055424
37.93 	0.050823 	4919 	0.049752
37.95 	0.049380 	4921 	0.048904
37.97 	0.055386 	4929 	0.054317
37.99 	0.055375 	4912 	0.053944
38.01 	0.058442 	4928 	0.058085
38.03 	0.063353 	4909 	0.062160
38.05 	0.059695 	4925 	0.058506
38.07 	0.060501 	4909 	0.059427
38.09 	0.057606 	4878 	0.056885
38.11 	0.056535 	4935 	0.055585
38.13 	0.059550 	4937 	0.058720
38.15 	0.060187 	4918 	0.058281
38.17 	0.052738 	4930 	0.052382
38.19 	0.063489 	4930 	0.062301
38.21 	0.057079 	4923 	0.056246
38.23 	0.062171 	4938 	0.060866
38.25 	0.062436 	4917 	0.061364
38.27 	0.064909 	4930 	0.064077
38.29 	0.066206 	4924 	0.065374
38.31 	0.062919 	4927 	0.062086
38.33 	0.068643 	4924 	0.067097
38.35 	0.062500 	4928 	0.061192
38.37 	0.063566 	4924 	0.062377
38.39 	0.065186 	4909 	0.063635
38.41 	0.075564 	4923 	0.073184
38.43 	0.068959 	4916 	0.066933
38.45 	0.066694 	4918 	0.065860
38.47 	0.067455 	4907 	0.066858
38.49 	0.066844 	4877 	0.065023
38.51 	0.062652 	4932 	0.061583
38.53 	0.066748 	4929 	0.065183
38.55 	0.068071 	4936 	0.066410
38.57 	0.063173 	4923 	0.062221
38.59 	0.063566 	4924 	0.062733
38.61 	0.063614 	4936 	0.062665
38.63 	0.058895 	4924 	0.058062
38.65 	0.062220 	4918 	0.061268
38.67 	0.056512 	4937 	0.055919
38.69 	0.055262 	4922 	0.053933
38.71 	0.061535 	4924 	0.060584
38.73 	0.054900 	4918 	0.054067
38.75 	0.062716 	4927 	0.061289
38.77 	0.059720 	4923 	0.058649
38.79 	0.057154 	4934 	0.055848
38.81 	0.057614 	4912 	0.056660
38.83 	0.060988 	4919 	0.060135
38.85 	0.058021 	4912 	0.056948
38.87 	0.049888 	4911 	0.049292
38.89 	0.055953 	4897 	0.054876
38.91 	0.059351 	4903 	0.057898
38.93 	0.059133 	4938 	0.057690
38.95 	0.058560 	4918 	0.057846
38.97 	0.053539 	4931 	0.052925
38.99 	0.051853 	4937 	0.051497
39.01 	0.056730 	4918 	0.055658
39.03 	0.056952 	4934 	0.056002
39.05 	0.053401 	4925 	0.052687
39.07 	0.056458 	4924 	0.055863
39.09 	0.056673 	4923 	0.055820
39.11 	0.055567 	4931 	0.054735
39.13 	0.051595 	4923 	0.049929
39.15 	0.056968 	4915 	0.056849
39.17 	0.055094 	4937 	0.054382
39.19 	0.055318 	4917 	0.054584
39.21 	0.055804 	4910 	0.054373
39.23 	0.051777 	4925 	0.051043
39.25 	0.058513 	4922 	0.057680
39.27 	0.052546 	4910 	0.051830
39.29 	0.058355 	4901 	0.056921
39.31 	0.053235 	4884 	0.051796
39.33 	0.053944 	4931 	0.052875
39.35 	0.057548 	4935 	0.056599
39.37 	0.053561 	4929 	0.053204
39.39 	0.057010 	4929 	0.055821
39.41 	0.056986 	4931 	0.055779
39.43 	0.055747 	4933 	0.054203
39.45 	0.057665 	4925 	0.056337
39.47 	0.058095 	4923 	0.056429
39.49 	0.048247 	4933 	0.047396
39.51 	0.055037 	4924 	0.053728
39.53 	0.057892 	4923 	0.056583
39.55 	0.060988 	4919 	0.059916
39.57 	0.054531 	4933 	0.053442
39.59 	0.057003 	4912 	0.056288
39.61 	0.055454 	4923 	0.053788
39.63 	0.056684 	4922 	0.055970
39.65 	0.054811 	4926 	0.053622
39.67 	0.062284 	4913 	0.060972
39.69 	0.059601 	4916 	0.058648
39.71 	0.052911 	4895 	0.052432
39.73 	0.055827 	4908 	0.055111
39.75 	0.047281 	4928 	0.046805
39.77 	0.058359 	4935 	0.057528
39.79 	0.057450 	4926 	0.056103
39.81 	0.059265 	4927 	0.058076
39.83 	0.058168 	4934 	0.057337
39.85 	0.052973 	4927 	0.052022
39.87 	0.058071 	4925 	0.057476
39.89 	0.055128 	4934 	0.053822
39.91 	0.060341 	4922 	0.059746
39.93 	0.051043 	4937 	0.050569
39.95 	0.053917 	4915 	0.052844
39.97 	0.055398 	4928 	0.054803
39.99 	0.053933 	4932 	0.052389
40.01 	0.058764 	4918 	0.058049
40.03 	0.060268 	4928 	0.059516
40.05 	0.048403 	4917 	0.048165
40.07 	0.046719 	4923 	0.045887
40.09 	0.056143 	4916 	0.055547
40.11 	0.055533 	4916 	0.054580
40.13 	0.056168 	4896 	0.055450
40.15 	0.056381 	4913 	0.055904
40.17 	0.057224 	4928 	0.056749
40.19 	0.055995 	4929 	0.054569
40.21 	0.047822 	4935 	0.047109
40.23 	0.055961 	4932 	0.055367
40.25 	0.051423 	4920 	0.050589
40.27 	0.048410 	4937 	0.046867
40.29 	0.055003 	4927 	0.053933
40.31 	0.043936 	4939 	0.043462
40.33 	0.059002 	4932 	0.058270
40.35 	0.054279 	4919 	0.053565
40.37 	0.053358 	4929 	0.052169
40.39 	0.044616 	4931 	0.044141
40.41 	0.051777 	4925 	0.050706
40.43 	0.052215 	4922 	0.051619
40.45 	0.060409 	4933 	0.059222
40.47 	0.052257 	4918 	0.051781
40.49 	0.056232 	4926 	0.055400
40.51 	0.055668 	4922 	0.054597
40.53 	0.052278 	4916 	0.051087
40.55 	0.051141 	4908 	0.050286
40.57 	0.056442 	4890 	0.055483
40.59 	0.057930 	4937 	0.057099
40.61 	0.053293 	4935 	0.052680
40.63 	0.054564 	4930 	0.053475
40.65 	0.052056 	4937 	0.051344
40.67 	0.056367 	4932 	0.055773
40.69 	0.049220 	4937 	0.048627
40.71 	0.054136 	4932 	0.053542
40.73 	0.053390 	4926 	0.051963
40.75 	0.062665 	4931 	0.061220
40.77 	0.051630 	4939 	0.050800
40.79 	0.058286 	4924 	0.057215
40.81 	0.050799 	4941 	0.049594
40.83 	0.051948 	4928 	0.050878
40.85 	0.052600 	4924 	0.051886
40.87 	0.054789 	4928 	0.054076
40.89 	0.052322 	4931 	0.051728
40.91 	0.056876 	4923 	0.055686
40.93 	0.050872 	4934 	0.050040
40.95 	0.056788 	4913 	0.055596
40.97 	0.053006 	4924 	0.052292
40.99 	0.050569 	4924 	0.049855
41.01 	0.055171 	4912 	0.054098
41.03 	0.055861 	4905 	0.054428
41.05 	0.056726 	4936 	0.055658
41.07 	0.050304 	4930 	0.049591
41.09 	0.054464 	4939 	0.053990
41.11 	0.052685 	4935 	0.051854
41.13 	0.052066 	4936 	0.051354
41.15 	0.052216 	4941 	0.051860
41.17 	0.054722 	4934 	0.053891
41.19 	0.052941 	4930 	0.052109
41.21 	0.054487 	4937 	0.052825
41.23 	0.051832 	4939 	0.050765
41.25 	0.053112 	4933 	0.052399
41.27 	0.051511 	4931 	0.050560
41.29 	0.054383 	4928 	0.053175
41.31 	0.051490 	4933 	0.050659
41.33 	0.049220 	4937 	0.048390
41.35 	0.051438 	4938 	0.050726
41.37 	0.054427 	4924 	0.053476
41.39 	0.048247 	4933 	0.047653
41.41 	0.050548 	4926 	0.049597
41.43 	0.049706 	4929 	0.048161
41.45 	0.051893 	4914 	0.051535
41.47 	0.056029 	4926 	0.055197
41.49 	0.054783 	4892 	0.053806
41.51 	0.051822 	4940 	0.051110
41.53 	0.046117 	4944 	0.045761
41.55 	0.046809 	4935 	0.045978
41.57 	0.048371 	4941 	0.047422
41.59 	0.054531 	4933 	0.053699
41.61 	0.049263 	4953 	0.048553
41.63 	0.049210 	4938 	0.048617
41.65 	0.054575 	4929 	0.053743
41.67 	0.051619 	4940 	0.050671
41.69 	0.056196 	4947 	0.055485
41.71 	0.048439 	4934 	0.047589
41.73 	0.049635 	4936 	0.049517
41.75 	0.050314 	4929 	0.049126
41.77 	0.049990 	4941 	0.049378
41.79 	0.046926 	4944 	0.046570
41.81 	0.044165 	4936 	0.043453
41.83 	0.049513 	4928 	0.048681
41.85 	0.047985 	4939 	0.046799
41.87 	0.050051 	4935 	0.048864
41.89 	0.051693 	4933 	0.050129
41.91 	0.053079 	4936 	0.052130
41.93 	0.047242 	4932 	0.046767
41.95 	0.052119 	4931 	0.051406
41.97 	0.043346 	4914 	0.042988
41.99 	0.048930 	4905 	0.048333
42.01 	0.046742 	4942 	0.046268
42.03 	0.044138 	4939 	0.043308
42.05 	0.055937 	4952 	0.054991
42.07 	0.046992 	4937 	0.045924
42.09 	0.046079 	4948 	0.045724
42.11 	0.046714 	4945 	0.046358
42.13 	0.046107 	4945 	0.045633
42.15 	0.043540 	4938 	0.043184
42.17 	0.048394 	4918 	0.047798
42.19 	0.047881 	4908 	0.047165
42.21 	0.045501 	4901 	0.045262
42.23 	0.051922 	4892 	0.051203
42.25 	0.048885 	4889 	0.048047
42.27 	0.047189 	4874 	0.046588
42.29 	0.051614 	4863 	0.050771
42.31 	0.050257 	4855 	0.049634
42.33 	0.047580 	4834 	0.046833
42.35 	0.046507 	4838 	0.045518
42.37 	0.047205 	4830 	0.046215
42.39 	0.048085 	4804 	0.047841
42.41 	0.051415 	4804 	0.050928
42.43 	0.045701 	4792 	0.045090
42.45 	0.051089 	4776 	0.050108
42.47 	0.049528 	4765 	0.048790
42.49 	0.049528 	4765 	0.048790
42.51 	0.046595 	4743 	0.045730
42.53 	0.045897 	4728 	0.045277
42.55 	0.049703 	4708 	0.049205
42.57 	0.046300 	4730 	0.045309
42.59 	0.049270 	4729 	0.047908
42.61 	0.047154 	4708 	0.046283
42.63 	0.049904 	4709 	0.049656
42.65 	0.046958 	4685 	0.045833
42.67 	0.046328 	4684 	0.045703
42.69 	0.050064 	4674 	0.049187
42.71 	0.045464 	4663 	0.044711
42.73 	0.053017 	4640 	0.052639
42.75 	0.048516 	4617 	0.048009
42.77 	0.047391 	4600 	0.046627
42.79 	0.047796 	4582 	0.047668
42.81 	0.047348 	4562 	0.046556
42.83 	0.050044 	4536 	0.048731
42.85 	0.049249 	4528 	0.048344
42.87 	0.050900 	4499 	0.049859
42.89 	0.049777 	4480 	0.048731
42.91 	0.052738 	4456 	0.051423
42.93 	0.051957 	4446 	0.051430
42.95 	0.048913 	4416 	0.048250
42.97 	0.050898 	4401 	0.049566
42.99 	0.051311 	4385 	0.050243
43.01 	0.051570 	4363 	0.051033
43.03 	0.044080 	4333 	0.043810
43.05 	0.046705 	4325 	0.046028
43.07 	0.048883 	4296 	0.048474
43.09 	0.055335 	4283 	0.054514
43.11 	0.044888 	4255 	0.044613
43.13 	0.044607 	4237 	0.043916
43.15 	0.045649 	4206 	0.044953
43.17 	0.048816 	4179 	0.047974
43.19 	0.044826 	4194 	0.043709
43.21 	0.051534 	4172 	0.050411
43.23 	0.046943 	4154 	0.046802
43.25 	0.046917 	4135 	0.046208
43.27 	0.049452 	4105 	0.049024
43.29 	0.049756 	4100 	0.049042
43.31 	0.050257 	4079 	0.049252
43.33 	0.049371 	4051 	0.048503
43.35 	0.042659 	4032 	0.041932
43.37 	0.050560 	4015 	0.050123
43.39 	0.051974 	4002 	0.051218
43.41 	0.045821 	3972 	0.044788
43.43 	0.050000 	3960 	0.049852
43.45 	0.051842 	3935 	0.050478
43.47 	0.048457 	3921 	0.047112
43.49 	0.048499 	3897 	0.048048
43.51 	0.048233 	3877 	0.047931
43.53 	0.041936 	3863 	0.041481
43.55 	0.047233 	2964 	0.047036
43.57 	0.048257 	2238 	0.048257
43.59 	0.045246 	1746 	0.044911
43.61 	0.045892 	1351 	0.045892
43.63 	0.054945 	1001 	0.053775
43.65 	0.039301 	687 	0.037596
43.67 	0.039841 	502 	0.037507
43.69 	0.029973 	367 	0.029973
43.71 	0.033473 	239 	0.033473
43.73 	0.025000 	120 	0.025000
43.75 	0.062500 	16 	0.062500