File: Example_Data/25SC_s1_0015.000.dat
#F C:\frames\spec\25SC_s1_0015.000
#C title =s:15 frm:0 25SC_s1
#C wavelength =0.15406

#S 1  fr_average C:\frames\spec\25SC_s1_0015.000 C:\win32app\speccom\mask.axs chi 0 180 0 360 0.02
#C 2 theta =0.000000 to 180 deg
#C   q   =0.000000 to 81.568 nm^-1
#C  chi  =0.000000 to 360 deg
#C collumns:
#C  1 position (2theta or chi in degrees)
#C  2 average intensity (sum of all counts in the region divided with number of pixels)
#C  3 Number of pixels in region)
#C  4 error (sum of sqrt(intensity) for all pixels divided by number)
#N 4
#L TTh  Int  N_pix  Err
32.99 	0.049180 	61 	0.039577
33.01 	0.058419 	873 	0.055735
33.03 	0.069734 	1391 	0.068050
33.05 	0.063745 	1757 	0.063412
33.07 	0.061463 	2050 	0.060606
33.09 	0.064764 	2347 	0.064015
33.11 	0.060101 	2579 	0.058965
33.13 	0.058002 	2793 	0.058002
33.15 	0.056019 	2999 	0.054651
33.17 	0.064667 	3201 	0.063386
33.19 	0.061640 	3342 	0.060413
33.21 	0.055588 	3436 	0.054906
33.23 	0.056202 	3523 	0.055537
33.25 	0.066999 	3612 	0.065864
33.27 	0.059780 	3630 	0.059134
33.29 	0.060855 	3648 	0.059571
33.31 	0.062842 	3660 	0.061721
33.33 	0.051004 	3686 	0.050209
33.35 	0.056578 	3694 	0.055468
33.37 	0.057351 	3714 	0.055300
33.39 	0.062483 	3729 	0.060598
33.41 	0.059626 	3740 	0.058373
33.43 	0.059825 	3761 	0.059357
33.45 	0.050623 	3773 	0.049226
33.47 	0.060821 	3798 	0.059742
33.49 	0.061433 	3809 	0.060049
33.51 	0.055832 	3815 	0.054886
33.53 	0.065348 	3841 	0.063975
33.55 	0.059849 	3843 	0.058300
33.57 	0.059066 	3877 	0.058462
33.59 	0.067010 	3880 	0.065174
33.61 	0.061397 	3909 	0.060348
33.63 	0.063537 	3919 	0.062640
33.65 	0.062071 	3931 	0.060407
33.67 	0.061204 	3954 	0.060167
33.69 	0.059449 	3953 	0.058115
33.71 	0.065409 	3975 	0.064377
33.73 	0.062188 	4004 	0.061456
33.75 	0.060765 	3999 	0.060033
33.77 	0.055652 	4025 	0.054633
33.79 	0.055927 	4041 	0.054308
33.81 	0.065627 	4038 	0.064176
33.83 	0.062716 	4050 	0.061270
33.85 	0.056599 	4099 	0.055170
33.87 	0.060569 	4111 	0.059572
33.89 	0.052657 	4121 	0.052373
33.91 	0.059532 	4149 	0.058544
33.93 	0.058540 	4151 	0.057976
33.95 	0.059316 	4181 	0.058195
33.97 	0.057041 	4190 	0.055922
33.99 	0.060238 	4200 	0.058541
34.01 	0.059577 	4213 	0.058604
34.03 	0.059378 	4244 	0.058136
34.05 	0.058090 	4252 	0.056414
34.07 	0.061621 	4268 	0.061072
34.09 	0.052963 	4286 	0.051870
34.11 	0.056020 	4302 	0.055340
34.13 	0.055942 	4308 	0.054039
34.15 	0.055876 	4331 	0.054929
34.17 	0.062299 	4350 	0.060548
34.19 	0.057542 	4362 	0.056199
34.21 	0.057653 	4371 	0.057117
34.23 	0.058275 	4393 	0.057074
34.25 	0.055858 	4404 	0.054927
34.27 	0.050204 	4422 	0.049674
34.29 	0.061105 	4435 	0.060048
34.31 	0.058771 	4458 	0.057588
34.33 	0.058824 	4471 	0.057906
34.35 	0.060214 	4484 	0.059561
34.37 	0.050100 	4491 	0.049839
34.39 	0.063083 	4502 	0.062563
34.41 	0.059213 	4526 	0.057639
34.43 	0.054638 	4539 	0.053713
34.45 	0.053804 	4535 	0.053287
34.47 	0.064895 	4592 	0.063875
34.49 	0.055471 	4597 	0.054324
34.51 	0.055797 	4606 	0.055161
34.53 	0.051906 	4643 	0.050518
34.55 	0.056644 	4643 	0.056140
34.57 	0.054077 	4660 	0.053072
34.59 	0.051123 	4675 	0.050622
34.61 	0.062167 	4697 	0.060421
34.63 	0.058174 	4710 	0.057552
34.65 	0.057403 	4721 	0.056162
34.67 	0.060114 	4741 	0.059125
34.69 	0.059318 	4754 	0.058702
34.71 	0.057491 	4766 	0.056630
34.73 	0.054940 	4787 	0.053594
34.75 	0.058444 	4808 	0.057591
34.77 	0.056247 	4818 	0.055032
34.79 	0.060323 	4824 	0.058745
34.81 	0.055315 	4845 	0.055073
34.83 	0.052653 	4862 	0.051689
34.85 	0.057507 	4869 	0.055582
34.87 	0.052383 	4868 	0.051781
34.89 	0.061655 	4882 	0.060935
34.91 	0.052028 	4882 	0.051188
34.93 	0.061237 	4899 	0.060280
34.95 	0.066667 	4890 	0.064870
34.97 	0.054876 	4902 	0.054398
34.99 	0.057790 	4897 	0.056834
35.01 	0.060532 	4923 	0.059342
35.03 	0.050779 	4943 	0.050186
35.05 	0.056398 	4947 	0.055214
35.07 	0.052834 	4940 	0.051965
35.09 	0.056329 	4953 	0.055383
35.11 	0.059026 	4947 	0.058197
35.13 	0.055869 	4958 	0.054924
35.15 	0.058132 	4937 	0.057045
35.17 	0.063890 	4946 	0.062350
35.19 	0.054027 	4942 	0.052841
35.21 	0.056218 	4945 	0.054915
35.23 	0.057230 	4945 	0.056993
35.25 	0.061703 	4943 	0.060637
35.27 	0.055174 	4948 	0.054463
35.29 	0.057836 	4945 	0.057125
35.31 	0.053720 	4933 	0.052176
35.33 	0.057860 	4943 	0.057386
35.35 	0.057264 	4942 	0.056316
35.37 	0.061956 	4939 	0.061244
35.39 	0.052983 	4945 	0.052035
35.41 	0.056638 	4926 	0.055330
35.43 	0.058382 	4933 	0.056957
35.45 	0.057120 	4937 	0.055340
35.47 	0.056581 	4931 	0.055987
35.49 	0.063136 	4910 	0.061924
35.51 	0.055420 	4926 	0.054231
35.53 	0.055567 	4949 	0.054383
35.55 	0.062083 	4945 	0.060405
35.57 	0.056152 	4933 	0.054945
35.59 	0.060061 	4945 	0.058521
35.61 	0.055848 	4942 	0.054999
35.63 	0.058669 	4943 	0.057247
35.65 	0.065116 	4945 	0.064406
35.67 	0.055645 	4942 	0.054816
35.69 	0.062879 	4946 	0.061932
35.71 	0.055094 	4937 	0.053908
35.73 	0.053890 	4936 	0.053296
35.75 	0.055770 	4931 	0.055057
35.77 	0.062008 	4951 	0.060351
35.79 	0.066504 	4932 	0.065198
35.81 	0.053112 	4933 	0.052637
35.83 	0.060655 	4946 	0.059708
35.85 	0.058561 	4935 	0.057612
35.87 	0.064189 	4923 	0.063237
35.89 	0.064451 	4934 	0.063264
35.91 	0.056424 	4927 	0.055235
35.93 	0.058656 	4927 	0.057586
35.95 	0.056132 	4917 	0.054940
35.97 	0.061482 	4912 	0.060647
35.99 	0.067220 	4939 	0.065322
36.01 	0.059229 	4930 	0.058279
36.03 	0.059680 	4943 	0.058851
36.05 	0.058645 	4945 	0.057934
36.07 	0.056489 	4939 	0.055778
36.09 	0.063765 	4940 	0.062342
36.11 	0.059241 	4929 	0.058409
36.13 	0.067179 	4942 	0.065520
36.15 	0.059324 	4939 	0.058731
36.17 	0.056650 	4925 	0.055222
36.19 	0.065385 	4940 	0.064555
36.21 	0.054372 	4929 	0.053659
36.23 	0.058561 	4935 	0.058086
36.25 	0.059097 	4941 	0.058149
36.27 	0.056650 	4925 	0.056055
36.29 	0.065301 	4931 	0.063975
36.31 	0.058036 	4928 	0.057085
36.33 	0.055139 	4933 	0.054783
36.35 	0.059647 	4929 	0.058221
36.37 	0.061345 	4923 	0.060036
36.39 	0.059541 	4921 	0.058588
36.41 	0.062296 	4896 	0.060721
36.43 	0.053774 	4928 	0.053299
36.45 	0.060243 	4930 	0.059649
36.47 	0.054903 	4936 	0.054428
36.49 	0.057669 	4942 	0.056128
36.51 	0.055950 	4933 	0.054743
36.53 	0.061501 	4943 	0.060672
36.55 	0.058453 	4927 	0.057740
36.57 	0.055330 	4934 	0.054262
36.59 	0.061956 	4939 	0.060750
36.61 	0.065098 	4931 	0.063267
36.63 	0.059623 	4931 	0.057841
36.65 	0.065288 	4932 	0.064100
36.67 	0.060852 	4930 	0.060139
36.69 	0.062487 	4929 	0.061418
36.71 	0.062589 	4921 	0.061279
36.73 	0.058883 	4925 	0.057912
36.75 	0.056837 	4944 	0.055889
36.77 	0.061598 	4919 	0.060526
36.79 	0.051006 	4921 	0.050292
36.81 	0.061025 	4916 	0.060191
36.83 	0.063683 	4915 	0.062252
36.85 	0.061249 	4898 	0.059814
36.87 	0.057848 	4944 	0.056288
36.89 	0.060415 	4916 	0.059085
36.91 	0.061526 	4941 	0.060578
36.93 	0.062272 	4930 	0.061559
36.95 	0.064464 	4933 	0.063376
36.97 	0.053506 	4934 	0.052556
36.99 	0.057143 	4935 	0.055718
37.01 	0.062437 	4933 	0.061230
37.03 	0.057067 	4924 	0.055283
37.05 	0.062107 	4927 	0.060204
37.07 	0.059574 	4935 	0.058981
37.09 	0.061282 	4928 	0.059737
37.11 	0.055724 	4935 	0.054775
37.13 	0.050162 	4924 	0.049905
37.15 	0.066612 	4909 	0.064803
37.17 	0.060195 	4934 	0.059126
37.19 	0.061726 	4925 	0.061012
37.21 	0.060809 	4917 	0.060095
37.23 	0.063237 	4918 	0.062522
37.25 	0.053960 	4911 	0.053245
37.27 	0.052105 	4894 	0.051626
37.29 	0.061460 	4930 	0.060748
37.31 	0.056940 	4935 	0.056109
37.33 	0.057642 	4927 	0.056572
37.35 	0.054070 	4938 	0.053359
37.37 	0.062716 	4927 	0.061170
37.39 	0.065098 	4931 	0.063554
37.41 	0.053742 	4931 	0.052672
37.43 	0.059813 	4932 	0.058745
37.45 	0.056255 	4924 	0.055779
37.47 	0.063096 	4929 	0.062264
37.49 	0.059923 	4923 	0.059209
37.51 	0.055950 	4933 	0.054743
37.53 	0.054076 	4919 	0.053123
37.55 	0.052130 	4930 	0.051536
37.57 	0.054416 	4925 	0.053227
37.59 	0.063479 	4915 	0.061811
37.61 	0.057294 	4922 	0.056223
37.63 	0.057939 	4919 	0.057224
37.65 	0.060390 	4918 	0.059775
37.67 	0.058524 	4904 	0.057688
37.69 	0.060433 	4898 	0.059356
37.71 	0.057415 	4929 	0.056583
37.73 	0.054981 	4929 	0.054624
37.75 	0.055466 	4940 	0.054636
37.77 	0.064634 	4920 	0.063563
37.79 	0.057809 	4930 	0.057453
37.81 	0.056355 	4933 	0.055761
37.83 	0.056098 	4920 	0.055264
37.85 	0.059935 	4922 	0.058963
37.87 	0.060944 	4939 	0.059639
37.89 	0.056041 	4925 	0.055208
37.91 	0.059838 	4930 	0.059244
37.93 	0.051433 	4919 	0.050123
37.95 	0.058728 	4921 	0.057418
37.97 	0.060661 	4929 	0.059592
37.99 	0.052932 	4912 	0.051958
38.01 	0.053369 	4928 	0.051942
38.03 	0.055205 	4909 	0.054250
38.05 	0.062132 	4925 	0.061180
38.07 	0.055612 	4909 	0.054658
38.09 	0.052481 	4878 	0.051520
38.11 	0.047214 	4935 	0.046264
38.13 	0.052866 	4937 	0.052135
38.15 	0.057747 	4918 	0.057271
38.17 	0.056389 	4930 	0.055795
38.19 	0.059229 	4930 	0.057903
38.21 	0.059110 	4923 	0.058277
38.23 	0.058121 	4938 	0.056934
38.25 	0.055928 	4917 	0.054956
38.27 	0.060852 	4930 	0.059307
38.29 	0.055037 	4924 	0.054204
38.31 	0.054597 	4927 	0.053646
38.33 	0.057474 	4924 	0.056522
38.35 	0.059050 	4928 	0.057386
38.37 	0.060114 	4924 	0.059281
38.39 	0.060501 	4909 	0.059666
38.41 	0.067642 	4923 	0.065837
38.43 	0.060008 	4916 	0.058459
38.45 	0.066084 	4918 	0.065250
38.47 	0.068881 	4907 	0.067329
38.49 	0.068690 	4877 	0.067109
38.51 	0.060827 	4932 	0.059877
38.53 	0.066342 	4929 	0.065035
38.55 	0.068071 	4936 	0.067003
38.57 	0.076986 	4923 	0.075082
38.59 	0.072502 	4924 	0.071669
38.61 	0.076175 	4936 	0.075107
38.63 	0.072705 	4924 	0.070187
38.65 	0.082554 	4918 	0.080152
38.67 	0.079198 	4937 	0.077537
38.69 	0.077204 	4922 	0.075380
38.71 	0.077782 	4924 	0.076712
38.73 	0.079504 	4918 	0.077955
38.75 	0.090116 	4927 	0.087976
38.77 	0.073329 	4923 	0.072496
38.79 	0.076611 	4934 	0.075899
38.81 	0.073086 	4912 	0.071655
38.83 	0.074405 	4919 	0.072857
38.85 	0.078176 	4912 	0.076029
38.87 	0.073508 	4911 	0.072554
38.89 	0.069430 	4897 	0.068354
38.91 	0.068937 	4903 	0.067862
38.93 	0.066019 	4938 	0.064714
38.95 	0.065474 	4918 	0.063330
38.97 	0.061854 	4931 	0.061002
38.99 	0.061171 	4937 	0.059866
39.01 	0.065474 	4918 	0.063668
39.03 	0.061613 	4934 	0.060189
39.05 	0.062944 	4925 	0.061398
39.07 	0.054427 	4924 	0.053595
39.09 	0.050173 	4923 	0.049578
39.11 	0.051105 	4931 	0.050036
39.13 	0.051391 	4923 	0.050677
39.15 	0.050254 	4915 	0.049539
39.17 	0.049625 	4937 	0.049507
39.19 	0.050234 	4917 	0.049638
39.21 	0.045825 	4910 	0.045825
39.23 	0.045888 	4925 	0.045413
39.25 	0.044900 	4922 	0.043948
39.27 	0.051731 	4910 	0.050777
39.29 	0.051010 	4901 	0.050154
39.31 	0.048935 	4884 	0.048216
39.33 	0.046846 	4931 	0.045995
39.35 	0.045187 	4935 	0.044475
39.37 	0.044025 	4929 	0.043193
39.39 	0.052140 	4929 	0.051546
39.41 	0.052930 	4931 	0.052099
39.43 	0.047841 	4933 	0.047129
39.45 	0.047716 	4925 	0.046983
39.47 	0.047938 	4923 	0.047581
39.49 	0.041354 	4933 	0.040622
39.51 	0.047116 	4924 	0.046521
39.53 	0.037579 	4923 	0.037579
39.55 	0.047367 	4919 	0.046891
39.57 	0.045003 	4933 	0.044528
39.59 	0.042956 	4912 	0.042479
39.61 	0.047329 	4923 	0.046139
39.63 	0.050386 	4922 	0.049553
39.65 	0.043443 	4926 	0.043205
39.67 	0.042337 	4913 	0.041840
39.69 	0.046786 	4916 	0.045714
39.71 	0.044127 	4895 	0.043409
39.73 	0.048900 	4908 	0.048303
39.75 	0.044846 	4928 	0.043657
39.77 	0.047416 	4935 	0.047179
39.79 	0.050954 	4926 	0.050003
39.81 	0.041810 	4927 	0.041573
39.83 	0.048642 	4934 	0.048048
39.85 	0.046682 	4927 	0.045612
39.87 	0.047919 	4925 	0.047086
39.89 	0.044386 	4934 	0.044267
39.91 	0.045916 	4922 	0.045202
39.93 	0.042131 	4937 	0.041775
39.95 	0.048830 	4915 	0.048473
39.97 	0.044034 	4928 	0.043559
39.99 	0.044809 	4932 	0.044216
40.01 	0.041887 	4918 	0.041530
40.03 	0.050933 	4928 	0.050339
40.05 	0.044133 	4917 	0.043299
40.07 	0.049563 	4923 	0.049325
40.09 	0.042311 	4916 	0.042073
40.11 	0.044548 	4916 	0.043476
40.13 	0.042279 	4896 	0.042040
40.15 	0.043354 	4913 	0.043116
40.17 	0.043019 	4928 	0.042544
40.19 	0.047474 	4929 	0.047236
40.21 	0.042148 	4935 	0.041198
40.23 	0.045215 	4932 	0.044621
40.25 	0.036789 	4920 	0.036550
40.27 	0.044156 	4937 	0.043326
40.29 	0.043028 	4927 	0.042176
40.31 	0.047783 	4939 	0.047309
40.33 	0.038929 	4932 	0.038336
40.35 	0.041472 	4919 	0.040996
40.37 	0.048489 	4929 	0.048013
40.39 	0.045224 	4931 	0.044749
40.41 	0.048122 	4925 	0.047170
40.43 	0.036977 	4922 	0.036382
40.45 	0.042570 	4933 	0.041858
40.47 	0.038024 	4918 	0.037547
40.49 	0.044864 	4926 	0.044032
40.51 	0.049777 	4922 	0.049062
40.53 	0.039260 	4916 	0.039021
40.55 	0.044214 	4908 	0.043497
40.57 	0.037832 	4890 	0.037573
40.59 	0.044359 	4937 	0.043647
40.61 	0.043566 	4935 	0.042716
40.63 	0.042191 	4930 	0.041240
40.65 	0.043954 	4937 	0.043835
40.67 	0.042174 	4932 	0.041936
40.69 	0.041928 	4937 	0.041810
40.71 	0.042376 	4932 	0.041782
40.73 	0.043037 	4926 	0.042185
40.75 	0.040154 	4931 	0.039560
40.77 	0.041709 	4939 	0.040641
40.79 	0.046913 	4924 	0.046180
40.81 	0.040275 	4941 	0.039801
40.83 	0.041396 	4928 	0.040564
40.85 	0.039399 	4924 	0.039161
40.87 	0.045455 	4928 	0.045098
40.89 	0.043805 	4931 	0.043448
40.91 	0.046516 	4923 	0.045564
40.93 	0.044183 	4934 	0.043827
40.95 	0.043558 	4913 	0.042604
40.97 	0.040414 	4924 	0.040057
40.99 	0.038383 	4924 	0.038145
41.01 	0.040309 	4912 	0.039574
41.03 	0.044444 	4905 	0.044086
41.05 	0.042950 	4936 	0.042456
41.07 	0.038540 	4930 	0.038064
41.09 	0.044746 	4939 	0.043916
41.11 	0.044580 	4935 	0.043610
41.13 	0.040721 	4936 	0.040365
41.15 	0.039263 	4941 	0.038671
41.17 	0.044791 	4934 	0.044435
41.19 	0.040162 	4930 	0.039687
41.21 	0.039700 	4937 	0.039226
41.23 	0.041101 	4939 	0.040746
41.25 	0.041557 	4933 	0.040963
41.27 	0.043196 	4931 	0.042246
41.29 	0.040381 	4928 	0.039906
41.31 	0.037705 	4933 	0.037112
41.33 	0.041726 	4937 	0.041014
41.35 	0.043540 	4938 	0.043184
41.37 	0.043867 	4924 	0.043034
41.39 	0.042165 	4933 	0.041690
41.41 	0.047706 	4926 	0.047111
41.43 	0.046663 	4929 	0.046187
41.45 	0.043549 	4914 	0.042715
41.47 	0.041210 	4926 	0.040734
41.49 	0.042314 	4892 	0.041835
41.51 	0.043320 	4940 	0.042964
41.53 	0.041869 	4944 	0.041513
41.55 	0.043566 	4935 	0.043448
41.57 	0.046752 	4941 	0.045329
41.59 	0.044192 	4933 	0.043836
41.61 	0.039572 	4953 	0.039099
41.63 	0.040705 	4938 	0.040705
41.65 	0.040779 	4929 	0.040304
41.67 	0.038866 	4940 	0.038629
41.69 	0.043056 	4947 	0.042583
41.71 	0.042359 	4934 	0.041627
41.73 	0.038898 	4936 	0.038898
41.75 	0.041185 	4929 	0.041066
41.77 	0.043513 	4941 	0.042565
41.79 	0.044701 	4944 	0.044108
41.81 	0.044773 	4936 	0.044061
41.83 	0.042614 	4928 	0.041663
41.85 	0.035635 	4939 	0.035398
41.87 	0.041337 	4935 	0.041219
41.89 	0.045814 	4933 	0.044983
41.91 	0.036062 	4936 	0.035231
41.93 	0.041565 	4932 	0.040971
41.95 	0.042385 	4931 	0.041791
41.97 	0.044363 	4914 	0.043886
41.99 	0.040571 	4905 	0.040451
42.01 	0.037434 	4942 	0.036960
42.03 	0.033610 	4939 	0.033491
42.05 	0.036551 	4952 	0.036314
42.07 	0.045169 	4937 	0.044576
42.09 	0.041633 	4948 	0.041140
42.11 	0.044894 	4945 	0.044420
42.13 	0.040243 	4945 	0.039769
42.15 	0.038882 	4938 	0.038151
42.17 	0.042904 	4918 	0.042427
42.19 	0.037694 	4908 	0.037097
42.21 	0.039380 	4901 	0.039021
42.23 	0.040883 	4892 	0.040404
42.25 	0.040704 	4889 	0.040224
42.27 	0.040213 	4874 	0.039252
42.29 	0.043183 	4863 	0.042701
42.31 	0.038105 	4855 	0.037622
42.33 	0.043029 	4834 	0.042786
42.35 	0.037826 	4838 	0.037341
42.37 	0.034161 	4830 	0.034040
42.39 	0.043505 	4804 	0.043262
42.41 	0.041840 	4804 	0.041352
42.43 	0.040067 	4792 	0.039313
42.45 	0.036851 	4776 	0.036606
42.47 	0.033578 	4765 	0.033455
42.49 	0.036936 	4765 	0.036567
42.51 	0.038583 	4743 	0.038089
42.53 	0.036379 	4728 	0.036007
42.55 	0.041844 	4708 	0.041470
42.57 	0.038478 	4730 	0.037611
42.59 	0.036160 	4729 	0.035788
42.61 	0.041844 	4708 	0.041222
42.63 	0.039711 	4709 	0.038965
42.65 	0.041409 	4685 	0.040408
42.67 	0.039069 	4684 	0.038569
42.69 	0.039367 	4674 	0.039116
42.71 	0.044178 	4663 	0.043801
42.73 	0.039224 	4640 	0.038972
42.75 	0.039853 	4617 	0.039345
42.77 	0.041304 	4600 	0.040795
42.79 	0.038848 	4582 	0.038336
42.81 	0.041868 	4562 	0.040969
42.83 	0.039683 	4536 	0.039037
42.85 	0.035998 	4528 	0.035610
42.87 	0.037119 	4499 	0.036989
42.89 	0.040848 	4480 	0.039781
42.91 	0.036355 	4456 	0.036093
42.93 	0.042735 	4446 	0.042603
42.95 	0.038949 	4416 	0.038684
42.97 	0.034083 	4401 	0.033684
42.99 	0.041961 	4385 	0.041427
43.01 	0.036901 	4363 	0.036498
43.03 	0.036234 	4333 	0.036098
43.05 	0.033988 	4325 	0.033853
43.07 	0.034451 	4296 	0.034042
43.09 	0.039225 	4283 	0.038404
43.11 	0.038073 	4255 	0.036696
43.13 	0.042719 	4237 	0.042304
43.15 	0.036377 	4206 	0.036237
43.17 	0.033979 	4179 	0.033979
43.19 	0.037434 	4194 	0.037015
43.21 	0.044583 	4172 	0.044302
43.23 	0.036351 	4154 	0.035927
43.25 	0.036276 	4135 	0.035992
43.27 	0.041413 	4105 	0.041128
43.29 	0.035366 	4100 	0.035080
43.31 	0.036038 	4079 	0.035320
43.33 	0.041718 	4051 	0.041573
43.35 	0.035714 	4032 	0.034988
43.37 	0.034620 	4015 	0.033684
43.39 	0.039730 	4002 	0.039437
43.41 	0.040534 	3972 	0.040239
43.43 	0.038131 	3960 	0.037367
43.45 	0.033545 	3935 	0.033247
43.47 	0.037490 	3921 	0.037341
43.49 	0.042084 	3897 	0.041933
43.51 	0.036368 	3877 	0.035915
43.53 	0.039865 	3863 	0.039562
43.55 	0.039136 	2964 	0.038543
43.57 	0.038427 	2238 	0.037904
43.59 	0.034937 	1746 	0.034937
43.61 	0.026647 	1351 	0.026647
43.63 	0.039960 	1001 	0.039960
43.65 	0.029112 	687 	0.029112
43.67 	0.025896 	502 	0.025896
43.69 	0.035422 	367 	0.035422
43.71 	0.033473 	239 	0.033473
43.73 	0.050000 	120 	0.050000
43.75 	0.000000 	16 	0.000000