File: Example_Data/25SC_s1_0023.002.dat
#F C:\frames\spec\25SC_s1_0023.002
#C title =s:23 frm:2 25SC_s1
#C wavelength =0.15406

#S 1  fr_average C:\frames\spec\25SC_s1_0023.002 C:\win32app\speccom\mask.axs chi 0 180 0 360 0.02
#C 2 theta =0.000000 to 180 deg
#C   q   =0.000000 to 81.568 nm^-1
#C  chi  =0.000000 to 360 deg
#C collumns:
#C  1 position (2theta or chi in degrees)
#C  2 average intensity (sum of all counts in the region divided with number of pixels)
#C  3 Number of pixels in region)
#C  4 error (sum of sqrt(intensity) for all pixels divided by number)
#N 4
#L TTh  Int  N_pix  Err
32.99 	0.049180 	61 	0.049180
33.01 	0.054983 	873 	0.053641
33.03 	0.061107 	1391 	0.059844
33.05 	0.063176 	1757 	0.062509
33.07 	0.065366 	2050 	0.063080
33.09 	0.054538 	2347 	0.053290
33.11 	0.060876 	2579 	0.059513
33.13 	0.057644 	2793 	0.056805
33.15 	0.055685 	2999 	0.054904
33.17 	0.056545 	3201 	0.056179
33.19 	0.062537 	3342 	0.060785
33.21 	0.057916 	3436 	0.056211
33.23 	0.062447 	3523 	0.062114
33.25 	0.058693 	3612 	0.057071
33.27 	0.060331 	3630 	0.059040
33.29 	0.052357 	3648 	0.051555
33.31 	0.068852 	3660 	0.067572
33.33 	0.055887 	3686 	0.055251
33.35 	0.060910 	3694 	0.060117
33.37 	0.059505 	3714 	0.057927
33.39 	0.059265 	3729 	0.057983
33.41 	0.054545 	3740 	0.052797
33.43 	0.064079 	3761 	0.062677
33.45 	0.049828 	3773 	0.049051
33.47 	0.048183 	3798 	0.047875
33.49 	0.065634 	3809 	0.064711
33.51 	0.055832 	3815 	0.055525
33.53 	0.059880 	3841 	0.059270
33.55 	0.057767 	3843 	0.056853
33.57 	0.063193 	3877 	0.062136
33.59 	0.055412 	3880 	0.054205
33.61 	0.053211 	3909 	0.052137
33.63 	0.066343 	3919 	0.064101
33.65 	0.060799 	3931 	0.060352
33.67 	0.062468 	3954 	0.061135
33.69 	0.056413 	3953 	0.055055
33.71 	0.059623 	3975 	0.058002
33.73 	0.058941 	4004 	0.058356
33.75 	0.064516 	3999 	0.062734
33.77 	0.056398 	4025 	0.055961
33.79 	0.061371 	4041 	0.060066
33.81 	0.052749 	4038 	0.052314
33.83 	0.049877 	4050 	0.049153
33.85 	0.060990 	4099 	0.059847
33.87 	0.056677 	4111 	0.055965
33.89 	0.058238 	4121 	0.057528
33.91 	0.064594 	4149 	0.063888
33.93 	0.060467 	4151 	0.059338
33.95 	0.058838 	4181 	0.057717
33.97 	0.058950 	4190 	0.057831
33.99 	0.059762 	4200 	0.058507
34.01 	0.061002 	4213 	0.059194
34.03 	0.061027 	4244 	0.060613
34.05 	0.059972 	4252 	0.058870
34.07 	0.050375 	4268 	0.049414
34.09 	0.056463 	4286 	0.055370
34.11 	0.061832 	4302 	0.060584
34.13 	0.054318 	4308 	0.052686
34.15 	0.057031 	4331 	0.055408
34.17 	0.060690 	4350 	0.059343
34.19 	0.048372 	4362 	0.047835
34.21 	0.062228 	4371 	0.061156
34.23 	0.059640 	4393 	0.058840
34.25 	0.053588 	4404 	0.052524
34.27 	0.056988 	4422 	0.056060
34.29 	0.060879 	4435 	0.059294
34.31 	0.057873 	4458 	0.057085
34.33 	0.054574 	4471 	0.054050
34.35 	0.055308 	4484 	0.054001
34.37 	0.053218 	4491 	0.052826
34.39 	0.062861 	4502 	0.061169
34.41 	0.059213 	4526 	0.058696
34.43 	0.059264 	4539 	0.058361
34.45 	0.053363 	4535 	0.052437
34.47 	0.061847 	4592 	0.060422
34.49 	0.055471 	4597 	0.054834
34.51 	0.061659 	4606 	0.060768
34.53 	0.060737 	4643 	0.059980
34.55 	0.055352 	4643 	0.054469
34.57 	0.056223 	4660 	0.054966
34.59 	0.065668 	4675 	0.064040
34.61 	0.055780 	4697 	0.055157
34.63 	0.059448 	4710 	0.057458
34.65 	0.052743 	4721 	0.051874
34.67 	0.059481 	4741 	0.058740
34.69 	0.053639 	4754 	0.052407
34.71 	0.050986 	4766 	0.050740
34.73 	0.054732 	4787 	0.053997
34.75 	0.061148 	4808 	0.059544
34.77 	0.062474 	4818 	0.061258
34.79 	0.054519 	4824 	0.053548
34.81 	0.062332 	4845 	0.061123
34.83 	0.055738 	4862 	0.054775
34.85 	0.063257 	4869 	0.062415
34.87 	0.057108 	4868 	0.055764
34.89 	0.058583 	4882 	0.057743
34.91 	0.054896 	4882 	0.053456
34.93 	0.058379 	4899 	0.057423
34.95 	0.052965 	4890 	0.051528
34.97 	0.064667 	4902 	0.063692
34.99 	0.057586 	4897 	0.057347
35.01 	0.051595 	4923 	0.051119
35.03 	0.055837 	4943 	0.054651
35.05 	0.054579 	4947 	0.053750
35.07 	0.059717 	4940 	0.058887
35.09 	0.064002 	4953 	0.062819
35.11 	0.051951 	4947 	0.051339
35.13 	0.059096 	4958 	0.058132
35.15 	0.055499 	4937 	0.054431
35.17 	0.059846 	4946 	0.058070
35.19 	0.055848 	4942 	0.055374
35.21 	0.060870 	4945 	0.060040
35.23 	0.051769 	4945 	0.050703
35.25 	0.051993 	4943 	0.051400
35.27 	0.060024 	4948 	0.059077
35.29 	0.052578 	4945 	0.051611
35.31 	0.055747 	4933 	0.055035
35.33 	0.058264 	4943 	0.057178
35.35 	0.062728 	4942 	0.061424
35.37 	0.064183 	4939 	0.063116
35.39 	0.053792 	4945 	0.053417
35.41 	0.059277 	4926 	0.057692
35.43 	0.054733 	4933 	0.053783
35.45 	0.060563 	4937 	0.059377
35.47 	0.059217 	4931 	0.057416
35.49 	0.059267 	4910 	0.058670
35.51 	0.056638 	4926 	0.055568
35.53 	0.055567 	4949 	0.054620
35.55 	0.059656 	4945 	0.058590
35.57 	0.055950 	4933 	0.055593
35.59 	0.055612 	4945 	0.055000
35.61 	0.052610 	4942 	0.051899
35.63 	0.053004 	4943 	0.051800
35.65 	0.055612 	4945 	0.054427
35.67 	0.062121 	4942 	0.060580
35.69 	0.058229 	4946 	0.057281
35.71 	0.053474 	4937 	0.052169
35.73 	0.059360 	4936 	0.058766
35.75 	0.060028 	4931 	0.058840
35.77 	0.054130 	4951 	0.053421
35.79 	0.055961 	4932 	0.055605
35.81 	0.057977 	4933 	0.056789
35.83 	0.055196 	4946 	0.054249
35.85 	0.059574 	4935 	0.057537
35.87 	0.062970 	4923 	0.061760
35.89 	0.055128 	4934 	0.054653
35.91 	0.059468 	4927 	0.058636
35.93 	0.062310 	4927 	0.061240
35.95 	0.061623 	4917 	0.060432
35.97 	0.059446 	4912 	0.058850
35.99 	0.055679 	4939 	0.054730
36.01 	0.059838 	4930 	0.059006
36.03 	0.056646 	4943 	0.055816
36.05 	0.053185 	4945 	0.052356
36.07 	0.054869 	4939 	0.054158
36.09 	0.054251 	4940 	0.053302
36.11 	0.054169 	4929 	0.053932
36.13 	0.059085 	4942 	0.058374
36.15 	0.059324 	4939 	0.058256
36.17 	0.057259 	4925 	0.056307
36.19 	0.061336 	4940 	0.060150
36.21 	0.061270 	4929 	0.060042
36.23 	0.056535 	4935 	0.055704
36.25 	0.052216 	4941 	0.050912
36.27 	0.057665 	4925 	0.056694
36.29 	0.060840 	4931 	0.059533
36.31 	0.055195 	4928 	0.054838
36.33 	0.056963 	4933 	0.056132
36.35 	0.063299 	4929 	0.062329
36.37 	0.055860 	4923 	0.055146
36.39 	0.057712 	4921 	0.055688
36.41 	0.053717 	4896 	0.052999
36.43 	0.057021 	4928 	0.056407
36.45 	0.059026 	4930 	0.058076
36.47 	0.050851 	4936 	0.050139
36.49 	0.054229 	4942 	0.053518
36.51 	0.054936 	4933 	0.054105
36.53 	0.054218 	4943 	0.053389
36.55 	0.052973 	4927 	0.052221
36.57 	0.061005 	4934 	0.059937
36.59 	0.055274 	4939 	0.054800
36.61 	0.054756 	4931 	0.053449
36.63 	0.057595 	4931 	0.056882
36.65 	0.056772 	4932 	0.055347
36.67 	0.063895 	4930 	0.062112
36.69 	0.054575 	4929 	0.053030
36.71 	0.048567 	4921 	0.047853
36.73 	0.055431 	4925 	0.054718
36.75 	0.060680 	4944 	0.060087
36.77 	0.049604 	4919 	0.049246
36.79 	0.058321 	4921 	0.057012
36.81 	0.053906 	4916 	0.052833
36.83 	0.054527 	4915 	0.053693
36.85 	0.055329 	4898 	0.054133
36.87 	0.056028 	4944 	0.054606
36.89 	0.061229 	4916 	0.060275
36.91 	0.053228 	4941 	0.052635
36.93 	0.051724 	4930 	0.051249
36.95 	0.059801 	4933 	0.058495
36.97 	0.056546 	4934 	0.055953
36.99 	0.054711 	4935 	0.053643
37.01 	0.053720 	4933 	0.052632
37.03 	0.055240 	4924 	0.054526
37.05 	0.054597 	4927 	0.053765
37.07 	0.052077 	4935 	0.051246
37.09 	0.053571 	4928 	0.052502
37.11 	0.054103 	4935 	0.053391
37.13 	0.058083 	4924 	0.057131
37.15 	0.055001 	4909 	0.054166
37.17 	0.051480 	4934 	0.050767
37.19 	0.044467 	4925 	0.043872
37.21 	0.054912 	4917 	0.054078
37.23 	0.058357 	4918 	0.057404
37.25 	0.053960 	4911 	0.053603
37.27 	0.057213 	4894 	0.056495
37.29 	0.053347 	4930 	0.052872
37.31 	0.049848 	4935 	0.049116
37.33 	0.051147 	4927 	0.049839
37.35 	0.058121 	4938 	0.057409
37.37 	0.054597 	4927 	0.054122
37.39 	0.058812 	4931 	0.057980
37.41 	0.048266 	4931 	0.047553
37.43 	0.055150 	4932 	0.054912
37.45 	0.057677 	4924 	0.055773
37.47 	0.058633 	4929 	0.057444
37.49 	0.051188 	4923 	0.050474
37.51 	0.054328 	4933 	0.053141
37.53 	0.058345 	4919 	0.057988
37.55 	0.052738 	4930 	0.052144
37.57 	0.064162 	4925 	0.062240
37.59 	0.049034 	4915 	0.048676
37.61 	0.051199 	4922 	0.050604
37.63 	0.053873 	4919 	0.052444
37.65 	0.057137 	4918 	0.056065
37.67 	0.046085 	4904 	0.045965
37.69 	0.050429 	4898 	0.049472
37.71 	0.051329 	4929 	0.050616
37.73 	0.055386 	4929 	0.054773
37.75 	0.057692 	4940 	0.056862
37.77 	0.050610 	4920 	0.049538
37.79 	0.055172 	4930 	0.054697
37.81 	0.052098 	4933 	0.051504
37.83 	0.058537 	4920 	0.056969
37.85 	0.048151 	4922 	0.047437
37.87 	0.051832 	4939 	0.051595
37.89 	0.055228 	4925 	0.054277
37.91 	0.047667 	4930 	0.046717
37.93 	0.056719 	4919 	0.056242
37.95 	0.051412 	4921 	0.050698
37.97 	0.048489 	4929 	0.047419
37.99 	0.053542 	4912 	0.052350
38.01 	0.056818 	4928 	0.056224
38.03 	0.059075 	4909 	0.058240
38.05 	0.055431 	4925 	0.054361
38.07 	0.046445 	4909 	0.045968
38.09 	0.048995 	4878 	0.047795
38.11 	0.050051 	4935 	0.049457
38.13 	0.054892 	4937 	0.054180
38.15 	0.056120 	4918 	0.054910
38.17 	0.045842 	4930 	0.044654
38.19 	0.055578 	4930 	0.054390
38.21 	0.059720 	4923 	0.058173
38.23 	0.057311 	4938 	0.055887
38.25 	0.049217 	4917 	0.048264
38.27 	0.054564 	4930 	0.053138
38.29 	0.055240 	4924 	0.054288
38.31 	0.059265 	4927 	0.058433
38.33 	0.054021 	4924 	0.053545
38.35 	0.057833 	4928 	0.056763
38.37 	0.061332 	4924 	0.060143
38.39 	0.056020 	4909 	0.054349
38.41 	0.066829 	4923 	0.065005
38.43 	0.057974 	4916 	0.057021
38.45 	0.064050 	4918 	0.062006
38.47 	0.061137 	4907 	0.060540
38.49 	0.058848 	4877 	0.058127
38.51 	0.062044 	4932 	0.060737
38.53 	0.065936 	4929 	0.064391
38.55 	0.063614 	4936 	0.062784
38.57 	0.061954 	4923 	0.060645
38.59 	0.058692 	4924 	0.058216
38.61 	0.058144 	4936 	0.057432
38.63 	0.065191 	4924 	0.063287
38.65 	0.064457 	4918 	0.062551
38.67 	0.064209 	4937 	0.062785
38.69 	0.057700 	4922 	0.056867
38.71 	0.053818 	4924 	0.053104
38.73 	0.053274 	4918 	0.052440
38.75 	0.056221 	4927 	0.055032
38.77 	0.056876 	4923 	0.056162
38.79 	0.059789 	4934 	0.058919
38.81 	0.058225 	4912 	0.057032
38.83 	0.056922 	4919 	0.056208
38.85 	0.053542 	4912 	0.052827
38.87 	0.053757 	4911 	0.052167
38.89 	0.053706 	4897 	0.053467
38.91 	0.048134 	4903 	0.047656
38.93 	0.052653 	4938 	0.051922
38.95 	0.046564 	4918 	0.046206
38.97 	0.051511 	4931 	0.050541
38.99 	0.042536 	4937 	0.042536
39.01 	0.049410 	4918 	0.048815
39.03 	0.044183 	4934 	0.043570
39.05 	0.045076 	4925 	0.044362
39.07 	0.046101 	4924 	0.045506
39.09 	0.044485 	4923 	0.043890
39.11 	0.048874 	4931 	0.048043
39.13 	0.045501 	4923 	0.044787
39.15 	0.045982 	4915 	0.044551
39.17 	0.043346 	4937 	0.042990
39.19 	0.046573 	4917 	0.046335
39.21 	0.048269 	4910 	0.047672
39.23 	0.049746 	4925 	0.049151
39.25 	0.049167 	4922 	0.047977
39.27 	0.047862 	4910 	0.047126
39.29 	0.048970 	4901 	0.047774
39.31 	0.045045 	4884 	0.044565
39.33 	0.050902 	4931 	0.050071
39.35 	0.047822 	4935 	0.047347
39.37 	0.049909 	4929 	0.049414
39.39 	0.048286 	4929 	0.046959
39.41 	0.045021 	4931 	0.044546
39.43 	0.046017 	4933 	0.045660
39.45 	0.054416 	4925 	0.053584
39.47 	0.047735 	4923 	0.047021
39.49 	0.045814 	4933 	0.045458
39.51 	0.042648 	4924 	0.042172
39.53 	0.045704 	4923 	0.045704
39.55 	0.046148 	4919 	0.045671
39.57 	0.042368 	4933 	0.041418
39.59 	0.041735 	4912 	0.041138
39.61 	0.045704 	4923 	0.044871
39.63 	0.034945 	4922 	0.034707
39.65 	0.041210 	4926 	0.040615
39.67 	0.046815 	4913 	0.046218
39.69 	0.043328 	4916 	0.042474
39.71 	0.043718 	4895 	0.043000
39.73 	0.043806 	4908 	0.043209
39.75 	0.045860 	4928 	0.045028
39.77 	0.046403 	4935 	0.045928
39.79 	0.039789 	4926 	0.039432
39.81 	0.039578 	4927 	0.038983
39.83 	0.047021 	4934 	0.046546
39.85 	0.043434 	4927 	0.042840
39.87 	0.049137 	4925 	0.048304
39.89 	0.045197 	4934 	0.044959
39.91 	0.046323 	4922 	0.045371
39.93 	0.049828 	4937 	0.048760
39.95 	0.050458 	4915 	0.049028
39.97 	0.043019 	4928 	0.042306
39.99 	0.043390 	4932 	0.043034
40.01 	0.042090 	4918 	0.041495
40.03 	0.045657 	4928 	0.045063
40.05 	0.047183 	4917 	0.046826
40.07 	0.037985 	4923 	0.037866
40.09 	0.044142 	4916 	0.043307
40.11 	0.044955 	4916 	0.044240
40.13 	0.047181 	4896 	0.046464
40.15 	0.041726 	4913 	0.041488
40.17 	0.040787 	4928 	0.040193
40.19 	0.048083 	4929 	0.047726
40.21 	0.040932 	4935 	0.040695
40.23 	0.046431 	4932 	0.045956
40.25 	0.048374 	4920 	0.047660
40.27 	0.040105 	4937 	0.039749
40.29 	0.045058 	4927 	0.044939
40.31 	0.045961 	4939 	0.045012
40.33 	0.041363 	4932 	0.040769
40.35 	0.040049 	4919 	0.039572
40.37 	0.042199 	4929 	0.041248
40.39 	0.040560 	4931 	0.039847
40.41 	0.041421 	4925 	0.041064
40.43 	0.045307 	4922 	0.044831
40.45 	0.041760 	4933 	0.041403
40.47 	0.040260 	4918 	0.040022
40.49 	0.041819 	4926 	0.041581
40.51 	0.044900 	4922 	0.043829
40.53 	0.044548 	4916 	0.043595
40.55 	0.044214 	4908 	0.043855
40.57 	0.046626 	4890 	0.046266
40.59 	0.042131 	4937 	0.041419
40.61 	0.049443 	4935 	0.048849
40.63 	0.049696 	4930 	0.048983
40.65 	0.043144 	4937 	0.042550
40.67 	0.044809 	4932 	0.043740
40.69 	0.042131 	4937 	0.041538
40.71 	0.043998 	4932 	0.043523
40.73 	0.043240 	4926 	0.042526
40.75 	0.039140 	4931 	0.038665
40.77 	0.040292 	4939 	0.039442
40.79 	0.046710 	4924 	0.045996
40.81 	0.043513 	4941 	0.043158
40.83 	0.040990 	4928 	0.040871
40.85 	0.043054 	4924 	0.042222
40.87 	0.046266 	4928 	0.045791
40.89 	0.042588 	4931 	0.042113
40.91 	0.040626 	4923 	0.039793
40.93 	0.039319 	4934 	0.038844
40.95 	0.042540 	4913 	0.042063
40.97 	0.037774 	4924 	0.037179
40.99 	0.048132 	4924 	0.047299
41.01 	0.039699 	4912 	0.039341
41.03 	0.040571 	4905 	0.040093
41.05 	0.040316 	4936 	0.039604
41.07 	0.042191 	4930 	0.042072
41.09 	0.035432 	4939 	0.035076
41.11 	0.040527 	4935 	0.040171
41.13 	0.042139 	4936 	0.041289
41.15 	0.042097 	4941 	0.041978
41.17 	0.039927 	4934 	0.039571
41.19 	0.042394 	4930 	0.041799
41.21 	0.041118 	4937 	0.040999
41.23 	0.045961 	4939 	0.045249
41.25 	0.041962 	4933 	0.041250
41.27 	0.037721 	4931 	0.037127
41.29 	0.041396 	4928 	0.040921
41.31 	0.040746 	4933 	0.040152
41.33 	0.043954 	4937 	0.043717
41.35 	0.040705 	4938 	0.040230
41.37 	0.042242 	4924 	0.041885
41.39 	0.040949 	4933 	0.040236
41.41 	0.036541 	4926 	0.036184
41.43 	0.041388 	4929 	0.040793
41.45 	0.039479 	4914 	0.038883
41.47 	0.044255 	4926 	0.043660
41.49 	0.044154 	4892 	0.043675
41.51 	0.043320 	4940 	0.042608
41.53 	0.042071 	4944 	0.041360
41.55 	0.039716 	4935 	0.039242
41.57 	0.047359 	4941 	0.047240
41.59 	0.035070 	4933 	0.034714
41.61 	0.032909 	4953 	0.032555
41.63 	0.039085 	4938 	0.038254
41.65 	0.038953 	4929 	0.038597
41.67 	0.038664 	4940 	0.037834
41.69 	0.044674 	4947 	0.043963
41.71 	0.043575 	4934 	0.043338
41.73 	0.040113 	4936 	0.039520
41.75 	0.044431 	4929 	0.043837
41.77 	0.045537 	4941 	0.044945
41.79 	0.039644 	4944 	0.039526
41.81 	0.039708 	4936 	0.039471
41.83 	0.035917 	4928 	0.035798
41.85 	0.039077 	4939 	0.038247
41.87 	0.040932 	4935 	0.040082
41.89 	0.041151 	4933 	0.040795
41.91 	0.041126 	4936 	0.040652
41.93 	0.040754 	4932 	0.040279
41.95 	0.040965 	4931 	0.040352
41.97 	0.040700 	4914 	0.040223
41.99 	0.038328 	4905 	0.037612
42.01 	0.037030 	4942 	0.036674
42.03 	0.036040 	4939 	0.035802
42.05 	0.039378 	4952 	0.039023
42.07 	0.043144 	4937 	0.042550
42.09 	0.040622 	4948 	0.040149
42.11 	0.036198 	4945 	0.035843
42.13 	0.031345 	4945 	0.030989
42.15 	0.042932 	4938 	0.042221
42.17 	0.039447 	4918 	0.038732
42.19 	0.040139 	4908 	0.039661
42.21 	0.039992 	4901 	0.039633
42.23 	0.040474 	4892 	0.039876
42.25 	0.037636 	4889 	0.037156
42.27 	0.039598 	4874 	0.039237
42.29 	0.038865 	4863 	0.038504
42.31 	0.036251 	4855 	0.035749
42.33 	0.032892 	4834 	0.032892
42.35 	0.040926 	4838 	0.040321
42.37 	0.039545 	4830 	0.039059
42.39 	0.037885 	4804 	0.037763
42.41 	0.040175 	4804 	0.039687
42.43 	0.040067 	4792 	0.039211
42.45 	0.036432 	4776 	0.036064
42.47 	0.040084 	4765 	0.039838
42.49 	0.036726 	4765 	0.036234
42.51 	0.043011 	4743 	0.042640
42.53 	0.037860 	4728 	0.037116
42.55 	0.033347 	4708 	0.032850
42.57 	0.039323 	4730 	0.038704
42.59 	0.036583 	4729 	0.036459
42.61 	0.042056 	4708 	0.041310
42.63 	0.041622 	4709 	0.040627
42.65 	0.040342 	4685 	0.039841
42.67 	0.033091 	4684 	0.033091
42.69 	0.046427 	4674 	0.045926
42.71 	0.039888 	4663 	0.039365
42.73 	0.036638 	4640 	0.036007
42.75 	0.036604 	4617 	0.036223
42.77 	0.043913 	4600 	0.043658
42.79 	0.036883 	4582 	0.036500
42.81 	0.038141 	4562 	0.037884
42.83 	0.037919 	4536 	0.037531
42.85 	0.033790 	4528 	0.033272
42.87 	0.039120 	4499 	0.038469
42.89 	0.045759 	4480 	0.045497
42.91 	0.034785 	4456 	0.034390
42.93 	0.034413 	4446 	0.033886
42.95 	0.039402 	4416 	0.038739
42.97 	0.042490 	4401 	0.041159
42.99 	0.042645 	4385 	0.042378
43.01 	0.034609 	4363 	0.034206
43.03 	0.043388 	4333 	0.043118
43.05 	0.040000 	4325 	0.039729
43.07 	0.042598 	4296 	0.041780
43.09 	0.039458 	4283 	0.039048
43.11 	0.044183 	4255 	0.044046
43.13 	0.040359 	4237 	0.040082
43.15 	0.035663 	4206 	0.035524
43.17 	0.040201 	4179 	0.040201
43.19 	0.039580 	4194 	0.039161
43.21 	0.039549 	4172 	0.038988
43.23 	0.033462 	4154 	0.033039
43.25 	0.037727 	4135 	0.037585
43.27 	0.041169 	4105 	0.041027
43.29 	0.038293 	4100 	0.037864
43.31 	0.035303 	4079 	0.034872
43.33 	0.048136 	4051 	0.047558
43.35 	0.035714 	4032 	0.035424
43.37 	0.040349 	4015 	0.039911
43.39 	0.037981 	4002 	0.037249
43.41 	0.039527 	3972 	0.039527
43.43 	0.040152 	3960 	0.039560
43.45 	0.034816 	3935 	0.034518
43.47 	0.039021 	3921 	0.038274
43.49 	0.040287 	3897 	0.039686
43.51 	0.039464 	3877 	0.038859
43.53 	0.045043 	3863 	0.044739
43.55 	0.040148 	2964 	0.039358
43.57 	0.030831 	2238 	0.030308
43.59 	0.026919 	1746 	0.026919
43.61 	0.042931 	1351 	0.042498
43.63 	0.035964 	1001 	0.035964
43.65 	0.040757 	687 	0.040757
43.67 	0.041833 	502 	0.040666
43.69 	0.029973 	367 	0.029973
43.71 	0.033473 	239 	0.033473
43.73 	0.025000 	120 	0.025000
43.75 	0.000000 	16 	0.000000