File: Example_Data/25SC_s1_0040.003.dat
#F C:\frames\spec\25SC_s1_0040.003
#C title =s:40 frm:3 25SC_s1
#C wavelength =0.15406

#S 1  fr_average C:\frames\spec\25SC_s1_0040.003 C:\win32app\speccom\mask.axs chi 0 180 0 360 0.02
#C 2 theta =0.000000 to 180 deg
#C   q   =0.000000 to 81.568 nm^-1
#C  chi  =0.000000 to 360 deg
#C collumns:
#C  1 position (2theta or chi in degrees)
#C  2 average intensity (sum of all counts in the region divided with number of pixels)
#C  3 Number of pixels in region)
#C  4 error (sum of sqrt(intensity) for all pixels divided by number)
#N 4
#L TTh  Int  N_pix  Err
32.99 	0.032787 	61 	0.032787
33.01 	0.053837 	873 	0.053837
33.03 	0.056075 	1391 	0.056075
33.05 	0.053500 	1757 	0.050778
33.07 	0.057073 	2050 	0.056455
33.09 	0.058372 	2347 	0.057374
33.11 	0.057774 	2579 	0.056639
33.13 	0.061583 	2793 	0.060534
33.15 	0.057352 	2999 	0.055562
33.17 	0.052796 	3201 	0.051119
33.19 	0.056254 	3342 	0.055027
33.21 	0.056461 	3436 	0.056291
33.23 	0.052228 	3523 	0.051896
33.25 	0.058693 	3612 	0.058045
33.27 	0.063636 	3630 	0.062668
33.29 	0.053728 	3648 	0.053086
33.31 	0.062022 	3660 	0.060902
33.33 	0.056158 	3686 	0.055046
33.35 	0.059285 	3694 	0.058651
33.37 	0.060851 	3714 	0.059116
33.39 	0.061411 	3729 	0.060154
33.41 	0.062834 	3740 	0.061894
33.43 	0.056900 	3761 	0.055342
33.45 	0.055394 	3773 	0.054773
33.47 	0.058189 	3798 	0.056929
33.49 	0.060908 	3809 	0.059986
33.51 	0.061861 	3815 	0.061093
33.53 	0.067170 	3841 	0.065925
33.55 	0.063752 	3843 	0.062203
33.57 	0.053134 	3877 	0.052983
33.59 	0.052320 	3880 	0.051565
33.61 	0.056025 	3909 	0.055275
33.63 	0.063281 	3919 	0.061936
33.65 	0.054948 	3931 	0.053905
33.67 	0.064745 	3954 	0.063708
33.69 	0.054642 	3953 	0.053901
33.71 	0.061384 	3975 	0.060794
33.73 	0.057193 	4004 	0.056754
33.75 	0.052013 	3999 	0.051134
33.77 	0.059130 	4025 	0.058257
33.79 	0.059886 	4041 	0.058726
33.81 	0.058940 	4038 	0.058360
33.83 	0.062716 	4050 	0.061848
33.85 	0.052940 	4099 	0.051773
33.87 	0.061299 	4111 	0.059708
33.89 	0.058238 	4121 	0.056675
33.91 	0.053507 	4149 	0.052519
33.93 	0.054927 	4151 	0.053939
33.95 	0.063621 	4181 	0.062220
33.97 	0.059427 	4190 	0.058309
33.99 	0.064286 	4200 	0.062612
34.01 	0.058153 	4213 	0.056022
34.03 	0.052309 	4244 	0.051343
34.05 	0.051035 	4252 	0.050346
34.07 	0.057170 	4268 	0.055934
34.09 	0.053196 	4286 	0.052103
34.11 	0.059275 	4302 	0.058322
34.13 	0.054318 	4308 	0.053094
34.15 	0.062341 	4331 	0.061259
34.17 	0.062989 	4350 	0.062585
34.19 	0.055708 	4362 	0.054768
34.21 	0.059254 	4371 	0.057222
34.23 	0.052811 	4393 	0.052011
34.25 	0.053588 	4404 	0.052923
34.27 	0.055857 	4422 	0.055195
34.29 	0.056144 	4435 	0.055352
34.31 	0.066622 	4458 	0.064782
34.33 	0.056140 	4471 	0.055353
34.35 	0.054639 	4484 	0.053855
34.37 	0.057894 	4491 	0.057111
34.39 	0.057086 	4502 	0.056045
34.41 	0.060097 	4526 	0.059191
34.43 	0.059044 	4539 	0.058270
34.45 	0.058214 	4535 	0.057310
34.47 	0.058580 	4592 	0.057304
34.49 	0.055471 	4597 	0.054452
34.51 	0.059705 	4606 	0.058814
34.53 	0.059014 	4643 	0.057983
34.55 	0.053844 	4643 	0.052709
34.57 	0.058584 	4660 	0.057201
34.59 	0.050481 	4675 	0.049479
34.61 	0.061529 	4697 	0.060032
34.63 	0.063270 	4710 	0.061632
34.65 	0.056768 	4721 	0.056023
34.67 	0.055684 	4741 	0.055190
34.69 	0.059108 	4754 	0.057732
34.71 	0.054553 	4766 	0.053939
34.73 	0.058492 	4787 	0.057635
34.75 	0.052413 	4808 	0.052047
34.77 	0.059983 	4818 	0.058768
34.79 	0.052239 	4824 	0.051024
34.81 	0.057792 	4845 	0.057187
34.83 	0.057589 	4862 	0.056365
34.85 	0.055042 	4869 	0.053959
34.87 	0.057929 	4868 	0.056967
34.89 	0.058583 	4882 	0.057503
34.91 	0.060221 	4882 	0.059141
34.93 	0.053889 	4899 	0.053530
34.95 	0.061145 	4890 	0.060666
34.97 	0.056304 	4902 	0.055587
34.99 	0.056361 	4897 	0.055643
35.01 	0.049360 	4923 	0.048646
35.03 	0.056443 	4943 	0.055614
35.05 	0.059430 	4947 	0.058364
35.07 	0.061134 	4940 	0.060778
35.09 	0.052897 	4953 	0.051951
35.11 	0.057813 	4947 	0.057102
35.13 	0.055466 	4958 	0.054383
35.15 	0.053879 	4937 	0.053404
35.17 	0.056814 	4946 	0.055629
35.19 	0.059490 	4942 	0.058897
35.21 	0.062285 	4945 	0.061456
35.23 	0.055612 	4945 	0.054546
35.25 	0.059276 	4943 	0.058802
35.27 	0.061237 	4948 	0.060290
35.29 	0.055612 	4945 	0.054783
35.31 	0.057166 	4933 	0.056929
35.33 	0.056646 	4943 	0.055204
35.35 	0.054634 	4942 	0.053923
35.37 	0.055477 	4939 	0.054528
35.39 	0.053589 	4945 	0.052622
35.41 	0.053390 	4926 	0.052300
35.43 	0.057166 	4933 	0.056454
35.45 	0.058943 	4937 	0.057519
35.47 	0.060637 	4931 	0.059092
35.49 	0.056008 	4910 	0.054934
35.51 	0.054202 	4926 	0.053489
35.53 	0.062639 	4949 	0.061436
35.55 	0.055612 	4945 	0.054901
35.57 	0.053112 	4933 	0.052637
35.59 	0.052174 	4945 	0.051059
35.61 	0.053824 	4942 	0.052876
35.63 	0.058062 	4943 	0.057114
35.65 	0.053185 	4945 	0.052474
35.67 	0.055848 	4942 	0.055255
35.69 	0.057825 	4946 	0.057075
35.71 	0.058538 	4937 	0.057351
35.73 	0.061791 	4936 	0.060723
35.75 	0.056378 	4931 	0.055190
35.77 	0.052515 	4951 	0.051923
35.79 	0.052514 	4932 	0.051683
35.81 	0.053517 	4933 	0.052548
35.83 	0.059038 	4946 	0.057696
35.85 	0.050253 	4935 	0.049185
35.87 	0.059720 	4923 	0.058411
35.89 	0.050872 	4934 	0.050278
35.91 	0.055409 	4927 	0.054815
35.93 	0.061498 	4927 	0.060190
35.95 	0.056945 	4917 	0.056588
35.97 	0.053950 	4912 	0.053234
35.99 	0.057097 	4939 	0.055911
36.01 	0.057606 	4930 	0.056656
36.03 	0.054623 	4943 	0.053655
36.05 	0.049545 	4945 	0.048479
36.07 	0.061348 	4939 	0.060262
36.09 	0.056275 	4940 	0.055090
36.11 	0.052546 	4929 	0.052190
36.13 	0.059085 	4942 	0.057426
36.15 	0.047378 	4939 	0.046904
36.17 	0.055838 	4925 	0.055243
36.19 	0.060324 	4940 	0.058625
36.21 	0.054981 	4929 	0.053555
36.23 	0.055319 	4935 	0.054370
36.25 	0.053228 	4941 	0.052161
36.27 	0.056244 	4925 	0.055649
36.29 	0.058203 	4931 	0.057253
36.31 	0.062094 	4928 	0.060549
36.33 	0.055950 	4933 	0.055475
36.35 	0.053763 	4929 	0.052932
36.37 	0.055860 	4923 	0.054670
36.39 	0.055273 	4921 	0.054559
36.41 	0.061683 	4896 	0.060726
36.43 	0.055398 	4928 	0.054090
36.45 	0.049899 	4930 	0.049304
36.47 	0.056118 	4936 	0.054694
36.49 	0.051801 	4942 	0.050616
36.51 	0.055342 	4933 	0.054392
36.53 	0.051993 	4943 	0.051400
36.55 	0.054800 	4927 	0.053849
36.57 	0.059181 	4934 	0.057994
36.59 	0.052845 	4939 	0.051421
36.61 	0.051308 	4931 	0.050476
36.63 	0.051916 	4931 	0.051085
36.65 	0.056367 	4932 	0.055298
36.67 	0.051318 	4930 	0.050724
36.69 	0.057821 	4929 	0.056276
36.71 	0.053241 	4921 	0.052289
36.73 	0.052995 	4925 	0.052400
36.75 	0.052589 	4944 	0.051167
36.77 	0.058548 	4919 	0.057477
36.79 	0.053038 	4921 	0.051828
36.81 	0.052685 	4916 	0.052089
36.83 	0.053510 	4915 	0.052914
36.85 	0.052266 	4898 	0.051429
36.87 	0.053196 	4944 	0.052110
36.89 	0.054109 	4916 	0.053255
36.91 	0.050799 	4941 	0.050088
36.93 	0.052130 	4930 	0.051417
36.95 	0.048652 	4933 	0.047702
36.97 	0.054722 	4934 	0.053773
36.99 	0.050051 	4935 	0.049220
37.01 	0.053720 	4933 	0.052770
37.03 	0.055037 	4924 	0.053470
37.05 	0.051553 	4927 	0.051196
37.07 	0.056130 	4935 	0.055774
37.09 	0.053369 	4928 	0.052418
37.11 	0.054103 	4935 	0.053490
37.13 	0.050569 	4924 	0.050093
37.15 	0.053371 	4909 	0.052894
37.17 	0.054722 	4934 	0.054485
37.19 	0.052386 	4925 	0.051315
37.21 	0.053895 	4917 	0.052822
37.23 	0.054697 	4918 	0.053625
37.25 	0.051721 	4911 	0.051124
37.27 	0.057009 	4894 	0.056151
37.29 	0.052941 	4930 	0.051991
37.31 	0.049037 	4935 	0.048563
37.33 	0.053176 	4927 	0.051750
37.35 	0.050020 	4938 	0.049308
37.37 	0.056221 	4927 	0.055626
37.39 	0.051105 	4931 	0.050392
37.41 	0.049483 	4931 	0.049245
37.43 	0.044404 	4932 	0.044048
37.45 	0.050162 	4924 	0.049449
37.47 	0.051532 	4929 	0.050938
37.49 	0.050376 	4923 	0.049642
37.51 	0.050679 	4933 	0.050204
37.53 	0.040455 	4919 	0.040336
37.55 	0.051318 	4930 	0.050606
37.57 	0.051777 	4925 	0.051301
37.59 	0.052085 	4915 	0.051132
37.61 	0.047542 	4922 	0.047066
37.63 	0.055296 	4919 	0.054204
37.65 	0.055510 	4918 	0.054657
37.67 	0.053222 	4904 	0.052486
37.69 	0.048183 	4898 	0.047585
37.71 	0.050923 	4929 	0.050329
37.73 	0.054575 	4929 	0.053505
37.75 	0.048785 	4940 	0.048430
37.77 	0.055691 	4920 	0.054262
37.79 	0.051927 	4930 	0.051214
37.81 	0.044800 	4933 	0.044207
37.83 	0.046748 	4920 	0.045915
37.85 	0.050792 	4922 	0.050078
37.87 	0.054667 	4939 	0.053600
37.89 	0.049746 	4925 	0.049270
37.91 	0.055781 	4930 	0.054712
37.93 	0.048181 	4919 	0.047347
37.95 	0.048567 	4921 	0.048210
37.97 	0.047271 	4929 	0.046895
37.99 	0.052117 	4912 	0.051879
38.01 	0.047687 	4928 	0.047211
38.03 	0.054797 	4909 	0.054439
38.05 	0.052183 	4925 	0.051231
38.07 	0.047464 	4909 	0.046987
38.09 	0.055761 	4878 	0.054780
38.11 	0.051266 	4935 	0.050436
38.13 	0.055297 	4937 	0.054110
38.15 	0.056934 	4918 	0.056219
38.17 	0.056389 	4930 	0.055677
38.19 	0.047870 	4930 	0.047038
38.21 	0.045298 	4923 	0.044941
38.23 	0.055083 	4938 	0.054352
38.25 	0.054708 	4917 	0.053398
38.27 	0.056592 	4930 	0.056236
38.29 	0.054021 	4924 	0.052931
38.31 	0.052770 	4927 	0.052295
38.33 	0.061129 	4924 	0.060177
38.35 	0.055601 	4928 	0.054036
38.37 	0.060723 	4924 	0.060247
38.39 	0.056427 	4909 	0.055950
38.41 	0.058298 	4923 	0.056493
38.43 	0.057364 	4916 	0.056649
38.45 	0.061407 	4918 	0.060097
38.47 	0.061749 	4907 	0.060316
38.49 	0.052696 	4877 	0.051735
38.51 	0.063869 	4932 	0.062800
38.53 	0.058430 	4929 	0.057598
38.55 	0.067869 	4936 	0.066919
38.57 	0.057485 	4923 	0.056652
38.59 	0.056052 	4924 	0.054862
38.61 	0.055916 	4936 	0.055204
38.63 	0.057677 	4924 	0.056606
38.65 	0.058154 	4918 	0.057062
38.67 	0.057930 	4937 	0.057455
38.69 	0.056278 	4922 	0.055445
38.71 	0.050975 	4924 	0.049904
38.73 	0.059170 	4918 	0.058337
38.75 	0.051959 	4927 	0.051245
38.77 	0.054438 	4923 	0.053962
38.79 	0.053709 	4934 	0.053115
38.81 	0.054357 	4912 	0.052548
38.83 	0.050823 	4919 	0.050228
38.85 	0.052524 	4912 	0.051928
38.87 	0.044594 	4911 	0.043978
38.89 	0.044517 	4897 	0.043321
38.91 	0.050785 	4903 	0.049710
38.93 	0.051235 	4938 	0.050524
38.95 	0.044530 	4918 	0.044173
38.97 	0.048874 	4931 	0.048280
38.99 	0.050841 	4937 	0.050129
39.01 	0.051037 	4918 	0.050322
39.03 	0.050872 	4934 	0.050397
39.05 	0.047513 	4925 	0.047037
39.07 	0.044882 	4924 	0.044168
39.09 	0.047126 	4923 	0.046769
39.11 	0.050497 	4931 	0.049665
39.13 	0.045704 	4923 	0.045228
39.15 	0.046389 	4915 	0.045912
39.17 	0.043751 	4937 	0.042802
39.19 	0.055318 	4917 	0.054246
39.21 	0.045825 	4910 	0.045070
39.23 	0.043452 	4925 	0.043095
39.25 	0.047542 	4922 	0.047066
39.27 	0.043177 	4910 	0.042342
39.29 	0.050806 	4901 	0.049969
39.31 	0.050164 	4884 	0.049324
39.33 	0.048469 	4931 	0.047875
39.35 	0.051874 	4935 	0.051518
39.37 	0.046460 	4929 	0.046103
39.39 	0.048894 	4929 	0.048062
39.41 	0.044616 	4931 	0.043883
39.43 	0.047030 	4933 	0.046318
39.45 	0.050355 	4925 	0.049642
39.47 	0.045907 	4923 	0.045788
39.49 	0.039935 	4933 	0.039579
39.51 	0.048944 	4924 	0.048211
39.53 	0.053220 	4923 	0.052506
39.55 	0.046351 	4919 	0.045636
39.57 	0.045408 	4933 	0.045290
39.59 	0.047435 	4912 	0.046839
39.61 	0.051391 	4923 	0.050202
39.63 	0.052824 	4922 	0.052229
39.65 	0.041616 	4926 	0.041259
39.67 	0.041522 	4913 	0.040569
39.69 	0.046583 	4916 	0.046225
39.71 	0.043309 	4895 	0.042711
39.73 	0.044825 	4908 	0.044347
39.75 	0.049310 	4928 	0.048121
39.77 	0.044985 	4935 	0.044747
39.79 	0.049939 	4926 	0.049345
39.81 	0.047696 	4927 	0.047221
39.83 	0.049453 	4934 	0.048859
39.85 	0.047087 	4927 	0.046374
39.87 	0.047716 	4925 	0.047121
39.89 	0.049047 	4934 	0.048691
39.91 	0.052621 	4922 	0.051907
39.93 	0.045574 	4937 	0.044625
39.95 	0.042930 	4915 	0.042334
39.97 	0.050122 	4928 	0.049646
39.99 	0.047648 	4932 	0.046935
40.01 	0.053477 	4918 	0.053001
40.03 	0.050933 	4928 	0.049982
40.05 	0.048200 	4917 	0.047009
40.07 	0.045501 	4923 	0.044192
40.09 	0.046989 	4916 	0.046155
40.11 	0.044752 	4916 	0.044514
40.13 	0.046160 	4896 	0.045442
40.15 	0.046204 	4913 	0.045369
40.17 	0.045252 	4928 	0.044895
40.19 	0.043822 	4929 	0.043347
40.21 	0.044377 	4935 	0.043783
40.23 	0.046229 	4932 	0.045872
40.25 	0.049593 	4920 	0.049593
40.27 	0.049828 	4937 	0.048760
40.29 	0.048914 	4927 	0.048320
40.31 	0.044543 	4939 	0.044188
40.33 	0.047851 	4932 	0.047494
40.35 	0.043911 	4919 	0.043554
40.37 	0.048083 	4929 	0.047489
40.39 	0.043196 	4931 	0.042721
40.41 	0.037970 	4925 	0.037137
40.43 	0.045104 	4922 	0.044132
40.45 	0.045408 	4933 	0.044815
40.47 	0.041277 	4918 	0.041039
40.49 	0.049127 	4926 	0.048532
40.51 	0.043478 	4922 	0.043121
40.53 	0.046583 	4916 	0.045987
40.55 	0.043806 	4908 	0.043090
40.57 	0.045399 	4890 	0.045159
40.59 	0.041118 	4937 	0.040881
40.61 	0.036677 	4935 	0.036083
40.63 	0.049696 	4930 	0.049220
40.65 	0.043954 	4937 	0.043460
40.67 	0.045418 	4932 	0.045061
40.69 	0.042131 	4937 	0.041775
40.71 	0.047648 	4932 	0.047054
40.73 	0.047300 	4926 	0.047062
40.75 	0.042588 	4931 	0.042231
40.77 	0.050618 	4939 	0.050262
40.79 	0.043664 	4924 	0.043069
40.81 	0.040882 	4941 	0.040290
40.83 	0.045049 	4928 	0.044573
40.85 	0.046710 	4924 	0.046472
40.87 	0.039976 	4928 	0.039500
40.89 	0.044818 	4931 	0.044225
40.91 	0.040626 	4923 	0.040388
40.93 	0.042764 	4934 	0.042527
40.95 	0.039894 	4913 	0.039060
40.97 	0.045288 	4924 	0.044456
40.99 	0.040617 	4924 	0.040023
41.01 	0.041735 	4912 	0.041377
41.03 	0.042813 	4905 	0.042336
41.05 	0.045786 	4936 	0.044955
41.07 	0.047059 	4930 	0.046465
41.09 	0.041506 	4939 	0.041032
41.11 	0.048430 	4935 	0.047836
41.13 	0.046191 	4936 	0.045835
41.15 	0.046549 	4941 	0.046075
41.17 	0.044791 	4934 	0.043960
41.19 	0.040365 	4930 	0.040246
41.21 	0.040510 	4937 	0.040036
41.23 	0.042519 	4939 	0.042282
41.25 	0.037908 	4933 	0.037295
41.27 	0.049280 	4931 	0.048805
41.29 	0.043628 	4928 	0.042796
41.31 	0.047030 	4933 	0.046436
41.33 	0.048005 	4937 	0.047530
41.35 	0.043742 	4938 	0.043031
41.37 	0.038383 	4924 	0.038027
41.39 	0.045408 	4933 	0.044458
41.41 	0.044255 	4926 	0.043541
41.43 	0.045648 	4929 	0.045054
41.45 	0.041921 	4914 	0.041444
41.47 	0.041616 	4926 	0.041140
41.49 	0.043336 	4892 	0.042498
41.51 	0.046356 	4940 	0.045882
41.53 	0.038633 	4944 	0.038040
41.55 	0.044782 	4935 	0.044307
41.57 	0.041894 	4941 	0.041420
41.59 	0.045611 	4933 	0.045136
41.61 	0.043206 	4953 	0.042851
41.63 	0.042527 	4938 	0.042290
41.65 	0.039359 	4929 	0.038884
41.67 	0.040486 	4940 	0.040130
41.69 	0.044674 	4947 	0.043707
41.71 	0.041954 	4934 	0.041123
41.73 	0.041734 	4936 	0.041141
41.75 	0.043417 	4929 	0.042466
41.77 	0.043918 	4941 	0.043444
41.79 	0.040655 	4944 	0.040063
41.81 	0.041329 	4936 	0.040973
41.83 	0.044643 	4928 	0.044405
41.85 	0.042316 	4939 	0.041723
41.87 	0.042553 	4935 	0.041722
41.89 	0.039327 	4933 	0.038614
41.91 	0.040924 	4936 	0.040568
41.93 	0.040957 	4932 	0.040838
41.95 	0.043805 	4931 	0.043448
41.97 	0.041514 	4914 	0.041018
41.99 	0.042813 	4905 	0.042436
42.01 	0.038648 	4942 	0.038530
42.03 	0.040696 	4939 	0.040222
42.05 	0.043215 	4952 	0.043097
42.07 	0.036257 	4937 	0.035782
42.09 	0.041633 	4948 	0.041041
42.11 	0.041456 	4945 	0.040864
42.13 	0.045501 	4945 	0.045027
42.15 	0.038882 	4938 	0.038526
42.17 	0.036804 	4918 	0.036446
42.19 	0.039324 	4908 	0.038846
42.21 	0.041420 	4901 	0.041181
42.23 	0.041496 	4892 	0.041257
42.25 	0.038045 	4889 	0.037685
42.27 	0.041444 	4874 	0.040603
42.29 	0.038454 	4863 	0.037972
42.31 	0.036045 	4855 	0.036045
42.33 	0.043235 	4834 	0.042266
42.35 	0.040719 	4838 	0.039872
42.37 	0.041822 	4830 	0.041458
42.39 	0.037885 	4804 	0.037397
42.41 	0.035387 	4804 	0.034777
42.43 	0.041319 	4792 	0.040830
42.45 	0.039363 	4776 	0.038873
42.47 	0.038405 	4765 	0.037913
42.49 	0.039874 	4765 	0.039382
42.51 	0.044487 	4743 	0.043622
42.53 	0.041244 	4728 	0.041120
42.55 	0.042906 	4708 	0.042532
42.57 	0.042706 	4730 	0.042087
42.59 	0.037852 	4729 	0.037728
42.61 	0.037596 	4708 	0.037347
42.63 	0.044595 	4709 	0.044098
42.65 	0.038207 	4685 	0.038082
42.67 	0.039710 	4684 	0.039585
42.69 	0.040009 	4674 	0.039507
42.71 	0.037958 	4663 	0.037456
42.73 	0.041379 	4640 	0.040748
42.75 	0.042885 	4617 	0.042504
42.77 	0.036957 	4600 	0.036702
42.79 	0.037975 	4582 	0.037591
42.81 	0.039237 	4562 	0.038852
42.83 	0.037698 	4536 	0.037311
42.85 	0.043507 	4528 	0.043248
42.87 	0.038898 	4499 	0.038377
42.89 	0.038839 	4480 	0.038447
42.91 	0.042415 	4456 	0.041757
42.93 	0.042735 	4446 	0.042340
42.95 	0.038496 	4416 	0.037700
42.97 	0.047489 	4401 	0.046957
42.99 	0.042417 	4385 	0.042150
43.01 	0.044236 	4363 	0.043833
43.03 	0.042926 	4333 	0.042250
43.05 	0.040925 	4325 	0.040383
43.07 	0.043296 	4296 	0.042592
43.09 	0.048097 	4283 	0.047413
43.11 	0.040658 	4255 	0.040107
43.13 	0.038943 	4237 	0.038528
43.15 	0.039230 	4206 	0.038812
43.17 	0.043312 	4179 	0.043031
43.19 	0.036719 	4194 	0.036579
43.21 	0.037152 	4172 	0.037152
43.23 	0.038036 	4154 	0.037895
43.25 	0.043531 	4135 	0.043248
43.27 	0.037028 	4105 	0.036172
43.29 	0.042683 	4100 	0.042111
43.31 	0.039225 	4079 	0.038340
43.33 	0.041718 	4051 	0.041140
43.35 	0.038194 	4032 	0.037759
43.37 	0.044085 	4015 	0.042917
43.39 	0.039980 	4002 	0.039395
43.41 	0.041541 	3972 	0.041098
43.43 	0.038636 	3960 	0.037897
43.45 	0.041423 	3935 	0.041274
43.47 	0.041316 	3921 	0.040420
43.49 	0.042340 	3897 	0.042190
43.51 	0.044880 	3877 	0.044427
43.53 	0.039865 	3863 	0.039082
43.55 	0.038124 	2964 	0.037729
43.57 	0.040214 	2238 	0.040214
43.59 	0.036655 	1746 	0.036320
43.61 	0.042931 	1351 	0.040692
43.63 	0.034965 	1001 	0.034380
43.65 	0.043668 	687 	0.043668
43.67 	0.035857 	502 	0.035857
43.69 	0.032698 	367 	0.031101
43.71 	0.050209 	239 	0.050209
43.73 	0.041667 	120 	0.036785
43.75 	0.062500 	16 	0.062500