File: Example_Data/25SC_s1_0029.004.dat
#F C:\frames\spec\25SC_s1_0029.004
#C title =s:29 frm:4 25SC_s1
#C wavelength =0.15406

#S 1  fr_average C:\frames\spec\25SC_s1_0029.004 C:\win32app\speccom\mask.axs chi 0 180 0 360 0.02
#C 2 theta =0.000000 to 180 deg
#C   q   =0.000000 to 81.568 nm^-1
#C  chi  =0.000000 to 360 deg
#C collumns:
#C  1 position (2theta or chi in degrees)
#C  2 average intensity (sum of all counts in the region divided with number of pixels)
#C  3 Number of pixels in region)
#C  4 error (sum of sqrt(intensity) for all pixels divided by number)
#N 4
#L TTh  Int  N_pix  Err
32.99 	0.032787 	61 	0.032787
33.01 	0.057274 	873 	0.055261
33.03 	0.055356 	1391 	0.053250
33.05 	0.066022 	1757 	0.065021
33.07 	0.047317 	2050 	0.046174
33.09 	0.061781 	2347 	0.059535
33.11 	0.050795 	2579 	0.049432
33.13 	0.055854 	2793 	0.055015
33.15 	0.055018 	2999 	0.054237
33.17 	0.054983 	3201 	0.054251
33.19 	0.058049 	3342 	0.057523
33.21 	0.060244 	3436 	0.059392
33.23 	0.063298 	3523 	0.062134
33.25 	0.045958 	3612 	0.045471
33.27 	0.051515 	3630 	0.050708
33.29 	0.049616 	3648 	0.049456
33.31 	0.064208 	3660 	0.063087
33.33 	0.056701 	3686 	0.055589
33.35 	0.059285 	3694 	0.058017
33.37 	0.064351 	3714 	0.062932
33.39 	0.058193 	3729 	0.056936
33.41 	0.053209 	3740 	0.052112
33.43 	0.054507 	3761 	0.054040
33.45 	0.059104 	3773 	0.058173
33.47 	0.063191 	3798 	0.062883
33.49 	0.062746 	3809 	0.061823
33.51 	0.056619 	3815 	0.055390
33.53 	0.058578 	3841 	0.057663
33.55 	0.059589 	3843 	0.058522
33.57 	0.061904 	3877 	0.060544
33.59 	0.056186 	3880 	0.055884
33.61 	0.060629 	3909 	0.059131
33.63 	0.058433 	3919 	0.058134
33.65 	0.062579 	3931 	0.061834
33.67 	0.058675 	3954 	0.057045
33.69 	0.052871 	3953 	0.051686
33.71 	0.053836 	3975 	0.053394
33.73 	0.050949 	4004 	0.050364
33.75 	0.057014 	3999 	0.056575
33.77 	0.064099 	4025 	0.063081
33.79 	0.059886 	4041 	0.058726
33.81 	0.057949 	4038 	0.057224
33.83 	0.056543 	4050 	0.055820
33.85 	0.061966 	4099 	0.060680
33.87 	0.063975 	4111 	0.063262
33.89 	0.056782 	4121 	0.055195
33.91 	0.053025 	4149 	0.052601
33.93 	0.050590 	4151 	0.049885
33.95 	0.060512 	4181 	0.059251
33.97 	0.059905 	4190 	0.058786
33.99 	0.052857 	4200 	0.052160
34.01 	0.054593 	4213 	0.053898
34.03 	0.059378 	4244 	0.057975
34.05 	0.055268 	4252 	0.054304
34.07 	0.064199 	4268 	0.062941
34.09 	0.059029 	4286 	0.058209
34.11 	0.058345 	4302 	0.057664
34.13 	0.062674 	4308 	0.061428
34.15 	0.056800 	4331 	0.056124
34.17 	0.061149 	4350 	0.060050
34.19 	0.056167 	4362 	0.055227
34.21 	0.059025 	4371 	0.058221
34.23 	0.050535 	4393 	0.049468
34.25 	0.054950 	4404 	0.053221
34.27 	0.055179 	4422 	0.054230
34.29 	0.057723 	4435 	0.056512
34.31 	0.057425 	4458 	0.056636
34.33 	0.057034 	4471 	0.056358
34.35 	0.054639 	4484 	0.053594
34.37 	0.062124 	4491 	0.060950
34.39 	0.059973 	4502 	0.057891
34.41 	0.051701 	4526 	0.050925
34.43 	0.055078 	4539 	0.054820
34.45 	0.054465 	4535 	0.053432
34.47 	0.060976 	4592 	0.059828
34.49 	0.063737 	4597 	0.062718
34.51 	0.055580 	4606 	0.054562
34.53 	0.063752 	4643 	0.062995
34.55 	0.058367 	4643 	0.057484
34.57 	0.058798 	4660 	0.057667
34.59 	0.057326 	4675 	0.055697
34.61 	0.057484 	4697 	0.057234
34.63 	0.065180 	4710 	0.063937
34.65 	0.057827 	4721 	0.056338
34.67 	0.060536 	4741 	0.059794
34.69 	0.057846 	4754 	0.056737
34.71 	0.057071 	4766 	0.056456
34.73 	0.053687 	4787 	0.052463
34.75 	0.057612 	4808 	0.056394
34.77 	0.056455 	4818 	0.055847
34.79 	0.053897 	4824 	0.053533
34.81 	0.061300 	4845 	0.060696
34.83 	0.054916 	4862 	0.054554
34.85 	0.060177 	4869 	0.059575
34.87 	0.056286 	4868 	0.055203
34.89 	0.059197 	4882 	0.057517
34.91 	0.062884 	4882 	0.061424
34.93 	0.060625 	4899 	0.058951
34.95 	0.062986 	4890 	0.062507
34.97 	0.055488 	4902 	0.054651
34.99 	0.060649 	4897 	0.059812
35.01 	0.058501 	4923 	0.057311
35.03 	0.055027 	4943 	0.054198
35.05 	0.064079 	4947 	0.063014
35.07 	0.057895 	4940 	0.056946
35.09 	0.059964 	4953 	0.058899
35.11 	0.057813 	4947 	0.056629
35.13 	0.057281 	4958 	0.056690
35.15 	0.053069 	4937 	0.052475
35.17 	0.061464 	4946 	0.059806
35.19 	0.059895 	4942 	0.058828
35.21 	0.053185 	4945 	0.052474
35.23 	0.057836 	4945 	0.057362
35.25 	0.057455 	4943 	0.056033
35.27 	0.060631 	4948 	0.059328
35.29 	0.055410 	4945 	0.054580
35.31 	0.053112 	4933 	0.052162
35.33 	0.051993 	4943 	0.051637
35.35 	0.058276 	4942 	0.057446
35.37 	0.053250 	4939 	0.052657
35.39 	0.055207 	4945 	0.054378
35.41 	0.051766 	4926 	0.050815
35.43 	0.059599 	4933 	0.058154
35.45 	0.061171 	4937 	0.059628
35.47 	0.056378 	4931 	0.055408
35.49 	0.049695 	4910 	0.049098
35.51 	0.058059 	4926 	0.057108
35.53 	0.053748 	4949 	0.052920
35.55 	0.058443 	4945 	0.057258
35.57 	0.059801 	4933 	0.058970
35.59 	0.058241 	4945 	0.057175
35.61 	0.062121 	4942 	0.061271
35.63 	0.054420 	4943 	0.053591
35.65 	0.064307 	4945 	0.063241
35.67 	0.053217 	4942 	0.052862
35.69 	0.058633 	4946 	0.057923
35.71 	0.058335 	4937 	0.057386
35.73 	0.059562 	4936 	0.058494
35.75 	0.056784 	4931 	0.055358
35.77 	0.052919 	4951 	0.052090
35.79 	0.056772 	4932 	0.056059
35.81 	0.061626 	4933 	0.060656
35.83 	0.057218 	4946 	0.055915
35.85 	0.059777 	4935 	0.058709
35.87 	0.054438 	4923 	0.053486
35.89 	0.054925 	4934 	0.053856
35.91 	0.052770 	4927 	0.051582
35.93 	0.057439 	4927 	0.056963
35.95 	0.057962 	4917 	0.057009
35.97 	0.060261 	4912 	0.058591
35.99 	0.056692 	4939 	0.055861
36.01 	0.057809 	4930 	0.056740
36.03 	0.051386 	4943 	0.050912
36.05 	0.055612 	4945 	0.054783
36.07 	0.055882 	4939 	0.055526
36.09 	0.057692 	4940 	0.056981
36.11 	0.057212 	4929 	0.056499
36.13 	0.060299 	4942 	0.058640
36.15 	0.056084 	4939 	0.055135
36.17 	0.059695 	4925 	0.058863
36.19 	0.057085 	4940 	0.056136
36.21 	0.052140 	4929 	0.051071
36.23 	0.055319 	4935 	0.054607
36.25 	0.062133 	4941 	0.061066
36.27 	0.054619 	4925 	0.053668
36.29 	0.058000 	4931 	0.057050
36.31 	0.060471 	4928 	0.059758
36.33 	0.057977 	4933 	0.056889
36.35 	0.052952 	4929 	0.052714
36.37 	0.057079 	4923 	0.056246
36.39 	0.053038 	4921 	0.052205
36.41 	0.054943 	4896 	0.053966
36.43 	0.056412 	4928 	0.055580
36.45 	0.061663 	4930 	0.060594
36.47 	0.054903 	4936 	0.054191
36.49 	0.056860 	4942 	0.056030
36.51 	0.052706 	4933 	0.051994
36.53 	0.054623 	4943 	0.054030
36.55 	0.052567 	4927 	0.051973
36.57 	0.051885 	4934 	0.051173
36.59 	0.053452 	4939 	0.052622
36.61 	0.056175 	4931 	0.054750
36.63 	0.059420 	4931 	0.058588
36.65 	0.054339 	4932 	0.053626
36.67 	0.056389 	4930 	0.055677
36.69 	0.054575 	4929 	0.053981
36.71 	0.057305 	4921 	0.055857
36.73 	0.057056 	4925 	0.055747
36.75 	0.054005 	4944 	0.053412
36.77 	0.051637 	4919 	0.050803
36.79 	0.052428 	4921 	0.051595
36.81 	0.054719 	4916 	0.053885
36.83 	0.055748 	4915 	0.055152
36.85 	0.053695 	4898 	0.053217
36.87 	0.054409 	4944 	0.053817
36.89 	0.050854 	4916 	0.050616
36.91 	0.049990 	4941 	0.048567
36.93 	0.056592 	4930 	0.055048
36.95 	0.055544 	4933 	0.054594
36.97 	0.054317 	4934 	0.053130
36.99 	0.049848 	4935 	0.049017
37.01 	0.048652 	4933 	0.047939
37.03 	0.050975 	4924 	0.050499
37.05 	0.052973 	4927 	0.052379
37.07 	0.051469 	4935 	0.051113
37.09 	0.049107 	4928 	0.048632
37.11 	0.052888 	4935 	0.051701
37.13 	0.057880 	4924 	0.056790
37.15 	0.051945 	4909 	0.051110
37.17 	0.052290 	4934 	0.051083
37.19 	0.055635 	4925 	0.054683
37.21 	0.057352 	4917 	0.056280
37.23 	0.056120 	4918 	0.055525
37.25 	0.057015 	4911 	0.056180
37.27 	0.055578 	4894 	0.054621
37.29 	0.050710 	4930 	0.050472
37.31 	0.056940 	4935 	0.055397
37.33 	0.054394 	4927 	0.053324
37.35 	0.053868 	4938 	0.053393
37.37 	0.055409 	4927 	0.054577
37.39 	0.055972 	4931 	0.054903
37.41 	0.054553 	4931 	0.053959
37.43 	0.051703 	4932 	0.050991
37.45 	0.054630 	4924 	0.053917
37.47 	0.055995 	4929 	0.055381
37.49 	0.050173 	4923 	0.049221
37.51 	0.055342 	4933 	0.054629
37.53 	0.053669 	4919 	0.053193
37.55 	0.053347 	4930 	0.052990
37.57 	0.052386 	4925 	0.052267
37.59 	0.055137 	4915 	0.054422
37.61 	0.051402 	4922 	0.050688
37.63 	0.049197 	4919 	0.048363
37.65 	0.055307 	4918 	0.054950
37.67 	0.057708 	4904 	0.056613
37.69 	0.051041 	4898 	0.050324
37.71 	0.053358 	4929 	0.052882
37.73 	0.060864 	4929 	0.059557
37.75 	0.057692 	4940 	0.056862
37.77 	0.050407 	4920 	0.050287
37.79 	0.051724 	4930 	0.050992
37.81 	0.056963 	4933 	0.056370
37.83 	0.056504 	4920 	0.056147
37.85 	0.055262 	4922 	0.054429
37.87 	0.055882 	4939 	0.055170
37.89 	0.056041 	4925 	0.054970
37.91 	0.054970 	4930 	0.054019
37.93 	0.054686 	4919 	0.053852
37.95 	0.056289 	4921 	0.055079
37.97 	0.049706 	4929 	0.049349
37.99 	0.047435 	4912 	0.046481
38.01 	0.049310 	4928 	0.048835
38.03 	0.053371 	4909 	0.052775
38.05 	0.059492 	4925 	0.058422
38.07 	0.055816 	4909 	0.055080
38.09 	0.054121 	4878 	0.053520
38.11 	0.060588 	4935 	0.059638
38.13 	0.059753 	4937 	0.058290
38.15 	0.056527 	4918 	0.055693
38.17 	0.060852 	4930 	0.059545
38.19 	0.059635 	4930 	0.058803
38.21 	0.060329 	4923 	0.059496
38.23 	0.057918 	4938 	0.056851
38.25 	0.064267 	4917 	0.063671
38.27 	0.068154 	4930 	0.066828
38.29 	0.060723 	4924 	0.060009
38.31 	0.066166 	4927 	0.064006
38.33 	0.064175 	4924 	0.062867
38.35 	0.058239 	4928 	0.057763
38.37 	0.069253 	4924 	0.067211
38.39 	0.063760 	4909 	0.063164
38.41 	0.064189 	4923 	0.063356
38.43 	0.068755 	4916 	0.067563
38.45 	0.059984 	4918 	0.058435
38.47 	0.065621 	4907 	0.064785
38.49 	0.055567 	4877 	0.055087
38.51 	0.063666 	4932 	0.062003
38.53 	0.063502 	4929 	0.063026
38.55 	0.056929 	4936 	0.056078
38.57 	0.058704 	4923 	0.058109
38.59 	0.057067 	4924 	0.056066
38.61 	0.064830 	4936 	0.064236
38.63 	0.053412 	4924 	0.052817
38.65 	0.057747 	4918 	0.056536
38.67 	0.059550 	4937 	0.058720
38.69 	0.054246 	4922 	0.053889
38.71 	0.054427 	4924 	0.053595
38.73 	0.062220 	4918 	0.060414
38.75 	0.052567 	4927 	0.051497
38.77 	0.051188 	4923 	0.050712
38.79 	0.051682 	4934 	0.051089
38.81 	0.054967 	4912 	0.054371
38.83 	0.053873 	4919 	0.052682
38.85 	0.061075 	4912 	0.060002
38.87 	0.056608 	4911 	0.055037
38.89 	0.055953 	4897 	0.054996
38.91 	0.051193 	4903 	0.050237
38.93 	0.051438 	4938 	0.050963
38.95 	0.056730 	4918 	0.055658
38.97 	0.056175 	4931 	0.055581
38.99 	0.047397 	4937 	0.046329
39.01 	0.052867 	4918 	0.051199
39.03 	0.048034 	4934 	0.047183
39.05 	0.054416 	4925 	0.053822
39.07 	0.051381 	4924 	0.050429
39.09 	0.053220 	4923 	0.052605
39.11 	0.054756 	4931 	0.053924
39.13 	0.052610 	4923 	0.052134
39.15 	0.048423 	4915 	0.047470
39.17 	0.055702 	4937 	0.054258
39.19 	0.054301 	4917 	0.053587
39.21 	0.042770 	4910 	0.042054
39.23 	0.050355 	4925 	0.049761
39.25 	0.047338 	4922 	0.046505
39.27 	0.053768 	4910 	0.053171
39.29 	0.052438 	4901 	0.051482
39.31 	0.055283 	4884 	0.054323
39.33 	0.052119 	4931 	0.051288
39.35 	0.050861 	4935 	0.050030
39.37 	0.051938 	4929 	0.050630
39.39 	0.055589 	4929 	0.054757
39.41 	0.059014 	4931 	0.058302
39.43 	0.055342 	4933 	0.054392
39.45 	0.051371 	4925 	0.050300
39.47 	0.052813 	4923 	0.052337
39.49 	0.052706 	4933 	0.052113
39.51 	0.058286 	4924 	0.057334
39.53 	0.053423 	4923 	0.052352
39.55 	0.055702 	4919 	0.054492
39.57 	0.057774 	4933 	0.056824
39.59 	0.054764 	4912 	0.053691
39.61 	0.057282 	4923 	0.056330
39.63 	0.047948 	4922 	0.046758
39.65 	0.051360 	4926 	0.050766
39.67 	0.055974 	4913 	0.055259
39.69 	0.049837 	4916 	0.048884
39.71 	0.053933 	4895 	0.053334
39.73 	0.055827 	4908 	0.054514
39.75 	0.053166 	4928 	0.051977
39.77 	0.056332 	4935 	0.055363
39.79 	0.053999 	4926 	0.052810
39.81 	0.057439 	4927 	0.056844
39.83 	0.054317 	4934 	0.053961
39.85 	0.052770 	4927 	0.052057
39.87 	0.057462 	4925 	0.056273
39.89 	0.055736 	4934 	0.055142
39.91 	0.052215 	4922 	0.051262
39.93 	0.052866 	4937 	0.052273
39.95 	0.048627 	4915 	0.048031
39.97 	0.047484 	4928 	0.046889
39.99 	0.049270 	4932 	0.048419
40.01 	0.060797 	4918 	0.059844
40.03 	0.051745 	4928 	0.051389
40.05 	0.052878 	4917 	0.052401
40.07 	0.044891 	4923 	0.044177
40.09 	0.056143 	4916 	0.055309
40.11 	0.056143 	4916 	0.055071
40.13 	0.053513 	4896 	0.053034
40.15 	0.053939 	4913 	0.052746
40.17 	0.054383 	4928 	0.053789
40.19 	0.050720 	4929 	0.049413
40.21 	0.050051 	4935 	0.049576
40.23 	0.050284 	4932 	0.049077
40.25 	0.056504 	4920 	0.055413
40.27 	0.052461 	4937 	0.051630
40.29 	0.051350 	4927 	0.050993
40.31 	0.052642 	4939 	0.051812
40.33 	0.051298 	4932 	0.050466
40.35 	0.057939 	4919 	0.056748
40.37 	0.052952 	4929 	0.052239
40.39 	0.055770 	4931 	0.055156
40.41 	0.051371 	4925 	0.050657
40.43 	0.054449 	4922 	0.053973
40.45 	0.054125 	4933 	0.053057
40.47 	0.049207 	4918 	0.047778
40.49 	0.051969 	4926 	0.050899
40.51 	0.052824 	4922 	0.051872
40.53 	0.054312 	4916 	0.052883
40.55 	0.052567 	4908 	0.051970
40.57 	0.052761 	4890 	0.052282
40.59 	0.045372 	4937 	0.045016
40.61 	0.051064 	4935 	0.049976
40.63 	0.045436 	4930 	0.044842
40.65 	0.053069 	4937 	0.052238
40.67 	0.052920 	4932 	0.052326
40.69 	0.045777 	4937 	0.045302
40.71 	0.051500 	4932 	0.050669
40.73 	0.048315 	4926 	0.047483
40.75 	0.053944 	4931 	0.053350
40.77 	0.049403 	4939 	0.048928
40.79 	0.051990 	4924 	0.050682
40.81 	0.048978 	4941 	0.048504
40.83 	0.049513 	4928 	0.048562
40.85 	0.052600 	4924 	0.051767
40.87 	0.050528 	4928 	0.049814
40.89 	0.051105 	4931 	0.050511
40.91 	0.050985 	4923 	0.049914
40.93 	0.050872 	4934 	0.049922
40.95 	0.054346 	4913 	0.053511
40.97 	0.051787 	4924 	0.050835
40.99 	0.050162 	4924 	0.049330
41.01 	0.056800 	4912 	0.056084
41.03 	0.050968 	4905 	0.050252
41.05 	0.047812 	4936 	0.047575
41.07 	0.053753 	4930 	0.053040
41.09 	0.050213 	4939 	0.049363
41.11 	0.056940 	4935 	0.056465
41.13 	0.046799 	4936 	0.046206
41.15 	0.052216 	4941 	0.051604
41.17 	0.048034 	4934 	0.047678
41.19 	0.048884 	4930 	0.047815
41.21 	0.048207 	4937 	0.048089
41.23 	0.056084 	4939 	0.055728
41.25 	0.048044 	4933 	0.047688
41.27 	0.048063 	4931 	0.047350
41.29 	0.051136 	4928 	0.050423
41.31 	0.053314 	4933 	0.052364
41.33 	0.046790 	4937 	0.046078
41.35 	0.047388 	4938 	0.046913
41.37 	0.051381 	4924 	0.050429
41.39 	0.052301 	4933 	0.051826
41.41 	0.045879 	4926 	0.045284
41.43 	0.051532 	4929 	0.050700
41.45 	0.049247 	4914 	0.048651
41.47 	0.043646 	4926 	0.042932
41.49 	0.046402 	4892 	0.045923
41.51 	0.048381 	4940 	0.047788
41.53 	0.049150 	4944 	0.048795
41.55 	0.055522 	4935 	0.054691
41.57 	0.047966 	4941 	0.047136
41.59 	0.053112 	4933 	0.051687
41.61 	0.049061 	4953 	0.048115
41.63 	0.048198 	4938 	0.047842
41.65 	0.047271 	4929 	0.046915
41.67 	0.048785 	4940 	0.047244
41.69 	0.047301 	4947 	0.046709
41.71 	0.050061 	4934 	0.049467
41.73 	0.049433 	4936 	0.049077
41.75 	0.045851 	4929 	0.045000
41.77 	0.048371 	4941 	0.047541
41.79 	0.052184 	4944 	0.051118
41.81 	0.047812 	4936 	0.047456
41.83 	0.052963 	4928 	0.052131
41.85 	0.050010 	4939 	0.049417
41.87 	0.052888 	4935 	0.051938
41.89 	0.049463 	4933 	0.048632
41.91 	0.051864 	4936 	0.050677
41.93 	0.050284 	4932 	0.049215
41.95 	0.043805 	4931 	0.043191
41.97 	0.045991 	4914 	0.045514
41.99 	0.049134 	4905 	0.048536
42.01 	0.046135 	4942 	0.045780
42.03 	0.045758 	4939 	0.045047
42.05 	0.040792 	4952 	0.040318
42.07 	0.044967 	4937 	0.044255
42.09 	0.051536 	4948 	0.050589
42.11 	0.045905 	4945 	0.045313
42.13 	0.049343 	4945 	0.048395
42.15 	0.049210 	4938 	0.048617
42.17 	0.051850 	4918 	0.050183
42.19 	0.045844 	4908 	0.045366
42.21 	0.044481 	4901 	0.043764
42.23 	0.049877 	4892 	0.049518
42.25 	0.043976 	4889 	0.043617
42.27 	0.044317 	4874 	0.043956
42.29 	0.048530 	4863 	0.047807
42.31 	0.045726 	4855 	0.045123
42.33 	0.046752 	4834 	0.046146
42.35 	0.047747 	4838 	0.046899
42.37 	0.043478 	4830 	0.042751
42.39 	0.038926 	4804 	0.038682
42.41 	0.045171 	4804 	0.044663
42.43 	0.042154 	4792 	0.041665
42.45 	0.043132 	4776 	0.042887
42.47 	0.050367 	4765 	0.049998
42.49 	0.045750 	4765 	0.045013
42.51 	0.047227 	4743 	0.047104
42.53 	0.042301 	4728 	0.041661
42.55 	0.044605 	4708 	0.043962
42.57 	0.052008 	4730 	0.051018
42.59 	0.046944 	4729 	0.046573
42.61 	0.044605 	4708 	0.043983
42.63 	0.051179 	4709 	0.050183
42.65 	0.039274 	4685 	0.038774
42.67 	0.045901 	4684 	0.045151
42.69 	0.042790 	4674 	0.042414
42.71 	0.049539 	4663 	0.048911
42.73 	0.043103 	4640 	0.042725
42.75 	0.045051 	4617 	0.044670
42.77 	0.047391 	4600 	0.046627
42.79 	0.041685 	4582 	0.040641
42.81 	0.050416 	4562 	0.049646
42.83 	0.047619 	4536 	0.047361
42.85 	0.049249 	4528 	0.048732
42.87 	0.049122 	4499 	0.048211
42.89 	0.046205 	4480 	0.045682
42.91 	0.039048 	4456 	0.038391
42.93 	0.048808 	4446 	0.048544
42.95 	0.038723 	4416 	0.038192
42.97 	0.042945 	4401 	0.042412
42.99 	0.043101 	4385 	0.042968
43.01 	0.040798 	4363 	0.040529
43.03 	0.044311 	4333 	0.044176
43.05 	0.047168 	4325 	0.046897
43.07 	0.048650 	4296 	0.048104
43.09 	0.046463 	4283 	0.045916
43.11 	0.047004 	4255 	0.046315
43.13 	0.043899 	4237 	0.043484
43.15 	0.053971 	4206 	0.052717
43.17 	0.044987 	4179 	0.044146
43.19 	0.044588 	4194 	0.044168
43.21 	0.044583 	4172 	0.043600
43.23 	0.049109 	4154 	0.047958
43.25 	0.045949 	4135 	0.044958
43.27 	0.049208 	4105 	0.048923
43.29 	0.046829 	4100 	0.046401
43.31 	0.045354 	4079 	0.044493
43.33 	0.043199 	4051 	0.042187
43.35 	0.042659 	4032 	0.042659
43.37 	0.043836 	4015 	0.043544
43.39 	0.044978 	4002 	0.044538
43.41 	0.051611 	3972 	0.050431
43.43 	0.049242 	3960 	0.048799
43.45 	0.046506 	3935 	0.046208
43.47 	0.046162 	3921 	0.045863
43.49 	0.041827 	3897 	0.041677
43.51 	0.049007 	3877 	0.047949
43.53 	0.049961 	3863 	0.049203
43.55 	0.051957 	2964 	0.050969
43.57 	0.051832 	2238 	0.051309
43.59 	0.041810 	1746 	0.041139
43.61 	0.040711 	1351 	0.040277
43.63 	0.038961 	1001 	0.038376
43.65 	0.039301 	687 	0.039301
43.67 	0.041833 	502 	0.041833
43.69 	0.024523 	367 	0.024523
43.71 	0.025105 	239 	0.025105
43.73 	0.033333 	120 	0.033333
43.75 	0.062500 	16 	0.062500