File: Example_Data/25SC_s1_0012.002.dat
#F C:\frames\spec\25SC_s1_0012.002
#C title =s:12 frm:2 25SC_s1
#C wavelength =0.15406

#S 1  fr_average C:\frames\spec\25SC_s1_0012.002 C:\win32app\speccom\mask.axs chi 0 180 0 360 0.02
#C 2 theta =0.000000 to 180 deg
#C   q   =0.000000 to 81.568 nm^-1
#C  chi  =0.000000 to 360 deg
#C collumns:
#C  1 position (2theta or chi in degrees)
#C  2 average intensity (sum of all counts in the region divided with number of pixels)
#C  3 Number of pixels in region)
#C  4 error (sum of sqrt(intensity) for all pixels divided by number)
#N 4
#L TTh  Int  N_pix  Err
32.99 	0.081967 	61 	0.081967
33.01 	0.064147 	873 	0.062805
33.03 	0.063264 	1391 	0.062422
33.05 	0.057484 	1757 	0.056818
33.07 	0.046829 	2050 	0.045354
33.09 	0.067746 	2347 	0.066498
33.11 	0.060876 	2579 	0.059930
33.13 	0.061941 	2793 	0.060472
33.15 	0.058686 	2999 	0.057319
33.17 	0.059669 	3201 	0.058937
33.19 	0.057151 	3342 	0.057151
33.21 	0.055297 	3436 	0.055297
33.23 	0.061028 	3523 	0.060030
33.25 	0.052049 	3612 	0.051076
33.27 	0.059504 	3630 	0.059020
33.29 	0.062226 	3648 	0.061075
33.31 	0.056011 	3660 	0.055371
33.33 	0.058600 	3686 	0.057170
33.35 	0.055766 	3694 	0.055290
33.37 	0.063813 	3714 	0.062209
33.39 	0.067847 	3729 	0.066276
33.41 	0.058021 	3740 	0.056768
33.43 	0.057963 	3761 	0.056873
33.45 	0.057514 	3773 	0.056427
33.47 	0.060032 	3798 	0.058747
33.49 	0.065109 	3809 	0.064186
33.51 	0.062647 	3815 	0.061419
33.53 	0.061182 	3841 	0.059479
33.55 	0.056987 	3843 	0.056225
33.57 	0.054939 	3877 	0.054033
33.59 	0.055670 	3880 	0.054311
33.61 	0.058071 	3909 	0.057472
33.63 	0.057157 	3919 	0.056261
33.65 	0.052404 	3931 	0.051808
33.67 	0.054122 	3954 	0.053678
33.69 	0.060713 	3953 	0.060417
33.71 	0.061132 	3975 	0.060248
33.73 	0.054945 	4004 	0.054214
33.75 	0.059765 	3999 	0.058593
33.77 	0.059627 	4025 	0.058463
33.79 	0.055679 	4041 	0.054061
33.81 	0.056216 	4038 	0.055200
33.83 	0.058272 	4050 	0.057548
33.85 	0.060503 	4099 	0.059336
33.87 	0.057650 	4111 	0.056083
33.89 	0.053870 	4121 	0.052733
33.91 	0.062425 	4149 	0.061295
33.93 	0.059022 	4151 	0.058011
33.95 	0.057163 	4181 	0.056043
33.97 	0.058473 	4190 	0.057214
33.99 	0.058333 	4200 	0.056939
34.01 	0.057204 	4213 	0.055930
34.03 	0.058671 	4244 	0.057981
34.05 	0.058561 	4252 	0.058262
34.07 	0.058575 	4268 	0.058438
34.09 	0.054596 	4286 	0.054050
34.11 	0.058345 	4302 	0.057800
34.13 	0.058496 	4308 	0.057658
34.15 	0.057492 	4331 	0.056275
34.17 	0.057241 	4350 	0.056433
34.19 	0.056167 	4362 	0.055361
34.21 	0.055365 	4371 	0.054271
34.23 	0.062827 	4393 	0.062160
34.25 	0.051090 	4404 	0.050425
34.27 	0.050204 	4422 	0.049144
34.29 	0.054340 	4435 	0.054076
34.31 	0.056976 	4458 	0.055925
34.33 	0.056587 	4471 	0.055386
34.35 	0.058430 	4484 	0.057385
34.37 	0.054554 	4491 	0.053901
34.39 	0.055309 	4502 	0.054528
34.41 	0.050597 	4526 	0.050338
34.43 	0.059264 	4539 	0.058361
34.45 	0.052922 	4535 	0.052018
34.47 	0.053789 	4592 	0.053151
34.49 	0.058951 	4597 	0.057422
34.51 	0.059271 	4606 	0.058253
34.53 	0.058152 	4643 	0.057017
34.55 	0.057937 	4643 	0.057180
34.57 	0.060086 	4660 	0.059206
34.59 	0.056043 	4675 	0.055291
34.61 	0.055780 	4697 	0.054783
34.63 	0.053503 	4710 	0.052612
34.65 	0.057191 	4721 	0.056199
34.67 	0.054841 	4741 	0.053956
34.69 	0.057425 	4754 	0.056809
34.71 	0.061477 	4766 	0.060740
34.73 	0.059954 	4787 	0.059342
34.75 	0.049917 	4808 	0.049308
34.77 	0.056040 	4818 	0.055554
34.79 	0.052239 	4824 	0.051996
34.81 	0.057172 	4845 	0.055721
34.83 	0.062937 	4862 	0.062214
34.85 	0.062436 	4869 	0.061233
34.87 	0.053205 	4868 	0.052242
34.89 	0.056125 	4882 	0.054805
34.91 	0.054486 	4882 	0.053646
34.93 	0.052256 	4899 	0.051777
34.95 	0.057669 	4890 	0.056830
34.97 	0.058548 	4902 	0.057950
34.99 	0.056974 	4897 	0.055897
35.01 	0.060938 	4923 	0.060106
35.03 	0.057455 	4943 	0.056744
35.05 	0.059026 	4947 	0.058197
35.07 	0.065182 	4940 	0.064589
35.09 	0.056733 	4953 	0.055768
35.11 	0.055994 	4947 	0.054691
35.13 	0.059096 	4958 	0.057915
35.15 	0.061981 	4937 	0.061150
35.17 	0.060857 	4946 	0.059673
35.19 	0.059895 	4942 	0.058709
35.21 	0.056825 	4945 	0.055996
35.23 	0.059858 	4945 	0.058674
35.25 	0.060085 	4943 	0.058426
35.27 	0.061237 	4948 	0.060290
35.29 	0.062892 	4945 	0.061707
35.31 	0.057166 	4933 	0.056216
35.33 	0.059073 	4943 	0.057651
35.35 	0.062323 	4942 	0.061493
35.37 	0.062563 	4939 	0.061496
35.39 	0.054398 	4945 	0.053688
35.41 	0.058262 	4926 	0.057549
35.43 	0.051693 	4933 	0.050861
35.45 	0.057322 	4937 	0.056136
35.47 	0.052322 	4931 	0.051015
35.49 	0.061914 	4910 	0.061079
35.51 	0.060698 	4926 	0.059628
35.53 	0.051526 	4949 	0.050815
35.55 	0.062285 	4945 	0.061101
35.57 	0.054936 	4933 	0.054105
35.59 	0.055005 	4945 	0.054176
35.61 	0.062323 	4942 	0.061019
35.63 	0.059883 	4943 	0.058915
35.65 	0.056421 	4945 	0.055828
35.67 	0.055241 	4942 	0.054155
35.69 	0.060655 	4946 	0.059826
35.71 	0.057930 	4937 	0.056862
35.73 	0.056929 	4936 	0.056217
35.75 	0.055972 	4931 	0.054784
35.77 	0.054130 	4951 	0.053421
35.79 	0.059611 	4932 	0.058661
35.81 	0.064058 	4933 	0.063227
35.83 	0.059038 	4946 	0.057735
35.85 	0.059372 	4935 	0.058660
35.87 	0.053016 	4923 	0.051688
35.89 	0.058370 	4934 	0.057658
35.91 	0.054800 	4927 	0.053730
35.93 	0.053582 	4927 	0.052869
35.95 	0.050844 	4917 	0.049772
35.97 	0.057614 	4912 	0.056183
35.99 	0.060336 	4939 	0.059624
36.01 	0.057201 	4930 	0.056369
36.03 	0.056646 	4943 	0.056172
36.05 	0.053387 	4945 	0.051709
36.07 	0.062361 	4939 	0.061274
36.09 	0.054453 	4940 	0.053386
36.11 	0.059647 	4929 	0.059053
36.13 	0.056657 	4942 	0.055353
36.15 	0.053452 	4939 	0.052385
36.17 	0.061117 	4925 	0.059412
36.19 	0.060931 	4940 	0.059489
36.21 	0.059647 	4929 	0.057845
36.23 	0.062614 	4935 	0.061783
36.25 	0.055859 	4941 	0.055503
36.27 	0.058680 	4925 	0.057967
36.29 	0.053742 	4931 	0.053148
36.31 	0.057224 	4928 	0.056630
36.33 	0.053112 	4933 	0.052518
36.35 	0.059038 	4929 	0.058206
36.37 	0.059517 	4923 	0.058307
36.39 	0.059947 	4921 	0.058995
36.41 	0.058007 	4896 	0.057408
36.43 	0.060674 	4928 	0.059366
36.45 	0.061055 	4930 	0.059253
36.47 	0.060778 	4936 	0.059829
36.49 	0.055443 	4942 	0.054732
36.51 	0.057977 	4933 	0.056908
36.53 	0.057657 	4943 	0.056709
36.55 	0.056018 	4927 	0.055305
36.57 	0.056141 	4934 	0.055429
36.59 	0.062968 	4939 	0.061901
36.61 	0.055770 	4931 	0.054344
36.63 	0.059217 	4931 	0.058861
36.65 	0.057989 	4932 	0.057276
36.67 	0.058012 	4930 	0.057299
36.69 	0.056401 	4929 	0.055807
36.71 	0.059744 	4921 	0.058792
36.73 	0.056244 	4925 	0.055768
36.75 	0.062298 	4944 	0.060718
36.77 	0.059768 	4919 	0.059173
36.79 	0.060760 	4921 	0.059163
36.81 	0.058788 	4916 	0.057477
36.83 	0.056562 	4915 	0.055608
36.85 	0.056962 	4898 	0.055886
36.87 	0.055623 	4944 	0.054675
36.89 	0.058788 	4916 	0.058192
36.91 	0.060109 	4941 	0.059398
36.93 	0.055984 	4930 	0.054776
36.95 	0.057977 	4933 	0.056433
36.97 	0.059181 	4934 	0.058469
36.99 	0.057548 	4935 	0.056005
37.01 	0.056558 	4933 	0.055727
37.03 	0.060317 	4924 	0.059008
37.05 	0.054597 	4927 	0.053884
37.07 	0.060182 	4935 	0.058877
37.09 	0.058847 	4928 	0.057540
37.11 	0.055319 	4935 	0.054251
37.13 	0.055646 	4924 	0.054437
37.15 	0.055001 	4909 	0.054166
37.17 	0.051885 	4934 	0.051410
37.19 	0.051777 	4925 	0.050944
37.21 	0.060809 	4917 	0.060095
37.23 	0.047784 	4918 	0.046950
37.25 	0.053553 	4911 	0.052360
37.27 	0.058439 	4894 	0.057362
37.29 	0.052941 	4930 	0.051753
37.31 	0.055724 	4935 	0.054775
37.33 	0.056018 	4927 	0.054552
37.35 	0.062778 	4938 	0.061454
37.37 	0.056018 	4927 	0.054948
37.39 	0.053944 	4931 	0.053113
37.41 	0.053539 	4931 	0.052470
37.43 	0.050487 	4932 	0.050012
37.45 	0.047522 	4924 	0.046928
37.47 	0.051126 	4929 	0.049819
37.49 	0.057688 	4923 	0.056736
37.51 	0.062437 	4933 	0.061348
37.53 	0.056516 	4919 	0.055305
37.55 	0.061055 	4930 	0.060104
37.57 	0.055025 	4925 	0.053717
37.59 	0.062055 	4915 	0.060863
37.61 	0.047135 	4922 	0.046540
37.63 	0.050823 	4919 	0.049990
37.65 	0.058764 	4918 	0.057930
37.67 	0.053426 	4904 	0.052231
37.69 	0.060433 	4898 	0.058998
37.71 	0.050720 	4929 	0.049769
37.73 	0.051126 	4929 	0.049799
37.75 	0.057085 	4940 	0.056136
37.77 	0.058943 	4920 	0.058110
37.79 	0.051318 	4930 	0.050130
37.81 	0.051085 	4933 	0.049778
37.83 	0.054675 	4920 	0.053960
37.85 	0.053840 	4922 	0.053007
37.87 	0.051832 	4939 	0.051239
37.89 	0.045482 	4925 	0.045006
37.91 	0.052333 	4930 	0.051263
37.93 	0.051230 	4919 	0.050396
37.95 	0.057509 	4921 	0.056418
37.97 	0.051126 	4929 	0.051007
37.99 	0.053746 	4912 	0.053269
38.01 	0.052557 	4928 	0.051606
38.03 	0.047871 	4909 	0.047275
38.05 	0.055025 	4925 	0.054787
38.07 	0.052964 	4909 	0.051771
38.09 	0.052481 	4878 	0.051760
38.11 	0.054711 	4935 	0.053287
38.13 	0.058740 	4937 	0.057435
38.15 	0.055714 	4918 	0.055237
38.17 	0.049696 	4930 	0.048626
38.19 	0.048884 	4930 	0.048528
38.21 	0.053423 	4923 	0.052352
38.23 	0.048198 	4938 	0.047822
38.25 	0.058776 	4917 	0.058180
38.27 	0.049493 	4930 	0.048523
38.29 	0.053006 	4924 	0.052054
38.31 	0.058453 	4927 	0.057978
38.33 	0.050162 	4924 	0.049449
38.35 	0.055398 	4928 	0.054328
38.37 	0.056661 	4924 	0.055432
38.39 	0.055612 	4909 	0.055135
38.41 	0.056876 	4923 	0.055805
38.43 	0.055330 	4916 	0.054615
38.45 	0.055307 	4918 	0.054354
38.47 	0.057673 	4907 	0.056001
38.49 	0.060078 	4877 	0.059237
38.51 	0.062652 	4932 	0.061227
38.53 	0.060459 	4929 	0.059627
38.55 	0.057942 	4936 	0.056874
38.57 	0.063173 	4923 	0.062102
38.59 	0.057880 	4924 	0.056790
38.61 	0.065235 	4936 	0.063930
38.63 	0.060317 	4924 	0.059841
38.65 	0.059984 	4918 	0.059150
38.67 	0.059753 	4937 	0.058804
38.69 	0.062170 	4922 	0.060742
38.71 	0.055443 	4924 	0.054372
38.73 	0.061000 	4918 	0.059214
38.75 	0.064136 	4927 	0.062452
38.77 	0.059110 	4923 	0.058396
38.79 	0.056952 	4934 	0.055864
38.81 	0.061075 	4912 	0.059882
38.83 	0.055906 	4919 	0.054596
38.85 	0.052321 	4912 	0.051228
38.87 	0.059255 	4911 	0.058420
38.89 	0.052890 	4897 	0.052411
38.91 	0.056700 	4903 	0.055744
38.93 	0.054273 	4938 	0.053324
38.95 	0.049207 	4918 	0.048254
38.97 	0.054756 	4931 	0.054280
38.99 	0.055297 	4937 	0.054941
39.01 	0.051850 	4918 	0.050897
39.03 	0.051074 	4934 	0.050124
39.05 	0.044061 	4925 	0.043704
39.07 	0.049147 	4924 	0.048076
39.09 	0.053829 	4923 	0.052758
39.11 	0.045427 	4931 	0.044952
39.13 	0.047126 	4923 	0.046174
39.15 	0.048423 	4915 	0.047589
39.17 	0.053069 	4937 	0.052594
39.19 	0.050437 	4917 	0.049842
39.21 	0.040326 	4910 	0.040087
39.23 	0.049340 	4925 	0.048626
39.25 	0.042666 	4922 	0.042071
39.27 	0.044196 	4910 	0.044076
39.29 	0.052438 	4901 	0.051243
39.31 	0.044021 	4884 	0.042942
39.33 	0.048469 	4931 	0.047162
39.35 	0.047822 	4935 	0.047466
39.37 	0.043417 	4929 	0.043060
39.39 	0.047880 	4929 	0.046771
39.41 	0.047455 	4931 	0.046505
39.43 	0.047638 	4933 	0.047045
39.45 	0.046294 	4925 	0.045819
39.47 	0.045907 	4923 	0.044955
39.49 	0.048044 	4933 	0.047925
39.51 	0.043054 	4924 	0.042460
39.53 	0.044891 	4923 	0.043939
39.55 	0.041065 	4919 	0.040589
39.57 	0.047841 	4933 	0.047010
39.59 	0.047231 	4912 	0.046635
39.61 	0.044282 	4923 	0.044044
39.63 	0.042056 	4922 	0.041461
39.65 	0.047503 	4926 	0.047027
39.67 	0.045390 	4913 	0.044913
39.69 	0.050448 	4916 	0.049852
39.71 	0.048212 	4895 	0.047494
39.73 	0.050326 	4908 	0.049132
39.75 	0.047484 	4928 	0.047365
39.77 	0.048227 	4935 	0.047277
39.79 	0.049533 	4926 	0.048939
39.81 	0.038969 	4927 	0.038493
39.83 	0.046818 	4934 	0.046343
39.85 	0.047493 	4927 	0.046661
39.87 	0.046091 	4925 	0.045378
39.89 	0.039319 	4934 	0.038844
39.91 	0.042056 	4922 	0.041699
39.93 	0.040713 	4937 	0.040238
39.95 	0.048423 	4915 	0.047708
39.97 	0.039367 	4928 	0.039129
39.99 	0.042376 	4932 	0.042020
40.01 	0.051647 	4918 	0.051051
40.03 	0.045657 	4928 	0.045182
40.05 	0.045353 	4917 	0.044876
40.07 	0.044485 	4923 	0.043871
40.09 	0.038039 	4916 	0.036967
40.11 	0.045769 	4916 	0.045411
40.13 	0.044526 	4896 	0.044048
40.15 	0.042540 	4913 	0.042183
40.17 	0.044643 	4928 	0.044286
40.19 	0.047677 	4929 	0.046845
40.21 	0.041135 	4935 	0.040541
40.23 	0.045012 	4932 	0.044300
40.25 	0.048780 	4920 	0.047709
40.27 	0.043549 	4937 	0.043074
40.29 	0.043028 	4927 	0.042434
40.31 	0.043734 	4939 	0.043141
40.33 	0.043593 	4932 	0.042386
40.35 	0.050417 	4919 	0.050059
40.37 	0.042808 	4929 	0.042451
40.39 	0.038532 	4931 	0.038294
40.41 	0.039391 	4925 	0.038439
40.43 	0.041447 	4922 	0.041090
40.45 	0.043787 	4933 	0.043312
40.47 	0.037210 	4918 	0.036376
40.49 	0.048112 	4926 	0.047517
40.51 	0.045307 	4922 	0.044355
40.53 	0.034784 	4916 	0.034427
40.55 	0.047066 	4908 	0.046111
40.57 	0.043558 	4890 	0.043199
40.59 	0.038890 	4937 	0.038534
40.61 	0.040324 	4935 	0.040206
40.63 	0.038337 	4930 	0.037980
40.65 	0.044561 	4937 	0.044561
40.67 	0.046026 	4932 	0.046026
40.69 	0.042333 	4937 	0.041503
40.71 	0.044404 	4932 	0.044285
40.73 	0.044458 	4926 	0.043863
40.75 	0.044616 	4931 	0.044141
40.77 	0.044948 	4939 	0.044711
40.79 	0.038587 	4924 	0.038111
40.81 	0.044728 	4941 	0.044016
40.83 	0.036932 	4928 	0.036694
40.85 	0.047116 	4924 	0.046640
40.87 	0.041193 	4928 	0.040718
40.89 	0.041777 	4931 	0.041064
40.91 	0.044688 	4923 	0.044312
40.93 	0.045602 	4934 	0.045127
40.95 	0.043558 	4913 	0.043081
40.97 	0.037368 	4924 	0.037011
40.99 	0.044070 	4924 	0.043951
41.01 	0.044381 	4912 	0.043546
41.03 	0.037105 	4905 	0.036747
41.05 	0.043558 	4936 	0.043202
41.07 	0.041988 	4930 	0.041275
41.09 	0.045151 	4939 	0.044914
41.11 	0.042148 	4935 	0.041554
41.13 	0.037682 	4936 	0.037208
41.15 	0.042299 	4941 	0.041825
41.17 	0.047021 	4934 	0.046427
41.19 	0.038540 	4930 	0.037708
41.21 	0.042333 	4937 	0.041028
41.23 	0.044948 	4939 	0.044237
41.25 	0.040746 	4933 	0.040509
41.27 	0.044210 	4931 	0.043735
41.29 	0.039367 	4928 	0.038654
41.31 	0.039732 	4933 	0.039257
41.33 	0.041523 	4937 	0.041167
41.35 	0.040097 	4938 	0.039267
41.37 	0.044476 	4924 	0.044119
41.39 	0.042773 	4933 	0.041942
41.41 	0.045879 	4926 	0.045522
41.43 	0.047880 	4929 	0.047642
41.45 	0.040497 	4914 	0.040139
41.47 	0.042428 	4926 	0.042071
41.49 	0.041905 	4892 	0.041306
41.51 	0.039474 	4940 	0.038762
41.53 	0.040251 	4944 	0.039777
41.55 	0.040122 	4935 	0.039765
41.57 	0.045133 	4941 	0.044658
41.59 	0.043381 	4933 	0.042906
41.61 	0.040783 	4953 	0.040665
41.63 	0.043135 	4938 	0.042423
41.65 	0.043214 	4929 	0.042263
41.67 	0.043320 	4940 	0.042608
41.69 	0.047706 	4947 	0.047232
41.71 	0.038914 	4934 	0.038083
41.73 	0.042342 	4936 	0.041986
41.75 	0.037533 	4929 	0.036701
41.77 	0.039061 	4941 	0.039061
41.79 	0.040858 	4944 	0.040028
41.81 	0.045381 	4936 	0.044669
41.83 	0.040179 	4928 	0.039703
41.85 	0.043329 	4939 	0.042973
41.87 	0.040324 	4935 	0.039731
41.89 	0.037908 	4933 	0.037552
41.91 	0.042139 	4936 	0.041190
41.93 	0.038929 	4932 	0.038098
41.95 	0.043602 	4931 	0.043245
41.97 	0.042735 	4914 	0.042020
41.99 	0.035474 	4905 	0.034757
42.01 	0.043302 	4942 	0.043065
42.03 	0.045961 	4939 	0.045605
42.05 	0.041801 	4952 	0.041446
42.07 	0.037270 	4937 	0.036795
42.09 	0.037995 	4948 	0.037285
42.11 	0.043883 	4945 	0.043389
42.13 	0.038827 	4945 	0.038353
42.15 	0.041515 	4938 	0.041278
42.17 	0.041074 	4918 	0.040835
42.19 	0.039731 	4908 	0.039015
42.21 	0.041216 	4901 	0.040858
42.23 	0.039657 	4892 	0.039537
42.25 	0.039476 	4889 	0.038877
42.27 	0.042470 	4874 	0.042350
42.29 	0.046062 	4863 	0.045460
42.31 	0.037487 	4855 	0.037005
42.33 	0.037443 	4834 	0.037201
42.35 	0.039066 	4838 	0.038702
42.37 	0.041201 	4830 	0.041080
42.39 	0.041216 	4804 	0.040606
42.41 	0.041216 	4804 	0.040606
42.43 	0.040275 	4792 	0.039766
42.45 	0.043132 	4776 	0.042764
42.47 	0.039454 	4765 	0.038594
42.49 	0.037566 	4765 	0.037443
42.51 	0.040059 	4743 	0.039565
42.53 	0.035956 	4728 	0.035337
42.55 	0.043543 	4708 	0.042796
42.57 	0.042283 	4730 	0.040921
42.59 	0.041446 	4729 	0.040951
42.61 	0.038870 	4708 	0.038372
42.63 	0.038862 	4709 	0.038240
42.65 	0.035646 	4685 	0.035396
42.67 	0.038642 	4684 	0.038267
42.69 	0.038083 	4674 	0.037456
42.71 	0.039460 	4663 	0.038434
42.73 	0.034914 	4640 	0.034661
42.75 	0.041802 	4617 	0.041421
42.77 	0.038043 	4600 	0.037661
42.79 	0.036229 	4582 	0.035462
42.81 	0.037264 	4562 	0.036473
42.83 	0.038360 	4536 	0.038080
42.85 	0.032906 	4528 	0.032777
42.87 	0.040898 	4499 	0.040638
42.89 	0.036607 	4480 	0.036215
42.91 	0.039497 	4456 	0.038971
42.93 	0.043185 	4446 	0.042526
42.95 	0.039402 	4416 	0.038739
42.97 	0.041127 	4401 	0.040728
42.99 	0.038312 	4385 	0.037912
43.01 	0.045611 	4363 	0.045477
43.03 	0.037618 	4333 	0.036920
43.05 	0.036763 	4325 	0.036086
43.07 	0.035615 	4296 	0.035342
43.09 	0.038524 	4283 	0.037977
43.11 	0.039953 	4255 	0.039540
43.13 	0.039179 	4237 	0.038487
43.15 	0.039467 	4206 	0.038771
43.17 	0.042115 	4179 	0.041274
43.19 	0.041488 	4194 	0.040789
43.21 	0.037152 	4172 	0.037012
43.23 	0.036110 	4154 	0.036110
43.25 	0.041838 	4135 	0.040988
43.27 	0.039464 	4105 	0.039321
43.29 	0.043659 	4100 	0.042801
43.31 	0.039225 	4079 	0.038794
43.33 	0.039496 	4051 	0.039207
43.35 	0.042411 	4032 	0.041394
43.37 	0.042590 	4015 	0.042007
43.39 	0.042479 	4002 	0.042186
43.41 	0.039527 	3972 	0.038789
43.43 	0.037121 	3960 	0.036677
43.45 	0.047776 	3935 	0.047032
43.47 	0.039786 	3921 	0.039188
43.49 	0.037208 	3897 	0.036907
43.51 	0.035079 	3877 	0.034776
43.53 	0.033911 	3863 	0.033608
43.55 	0.046559 	2964 	0.045966
43.57 	0.037087 	2238 	0.036825
43.59 	0.041810 	1746 	0.041810
43.61 	0.039230 	1351 	0.038363
43.63 	0.037962 	1001 	0.037377
43.65 	0.034934 	687 	0.034934
43.67 	0.029880 	502 	0.029880
43.69 	0.029973 	367 	0.028377
43.71 	0.046025 	239 	0.046025
43.73 	0.058333 	120 	0.058333
43.75 	0.125000 	16 	0.125000