File: Example_Data/25SC_s1_0029.003.dat
#F C:\frames\spec\25SC_s1_0029.003
#C title =s:29 frm:3 25SC_s1
#C wavelength =0.15406

#S 1  fr_average C:\frames\spec\25SC_s1_0029.003 C:\win32app\speccom\mask.axs chi 0 180 0 360 0.02
#C 2 theta =0.000000 to 180 deg
#C   q   =0.000000 to 81.568 nm^-1
#C  chi  =0.000000 to 360 deg
#C collumns:
#C  1 position (2theta or chi in degrees)
#C  2 average intensity (sum of all counts in the region divided with number of pixels)
#C  3 Number of pixels in region)
#C  4 error (sum of sqrt(intensity) for all pixels divided by number)
#N 4
#L TTh  Int  N_pix  Err
32.99 	0.032787 	61 	0.032787
33.01 	0.051546 	873 	0.051546
33.03 	0.057513 	1391 	0.056670
33.05 	0.069437 	1757 	0.067770
33.07 	0.061463 	2050 	0.060035
33.09 	0.064337 	2347 	0.062840
33.11 	0.063978 	2579 	0.061670
33.13 	0.062299 	2793 	0.060201
33.15 	0.054685 	2999 	0.053904
33.17 	0.061856 	3201 	0.060575
33.19 	0.058648 	3342 	0.057946
33.21 	0.057625 	3436 	0.056943
33.23 	0.058473 	3523 	0.057309
33.25 	0.062016 	3612 	0.061367
33.27 	0.062259 	3630 	0.061291
33.29 	0.056469 	3648 	0.055506
33.31 	0.052732 	3660 	0.052412
33.33 	0.063755 	3686 	0.062642
33.35 	0.062534 	3694 	0.061582
33.37 	0.061389 	3714 	0.059970
33.39 	0.068383 	3729 	0.066655
33.41 	0.064171 	3740 	0.063545
33.43 	0.054241 	3761 	0.052683
33.45 	0.058309 	3773 	0.057377
33.47 	0.060821 	3798 	0.059408
33.49 	0.055658 	3809 	0.054889
33.51 	0.057929 	3815 	0.056240
33.53 	0.058058 	3841 	0.056838
33.55 	0.061410 	3843 	0.060191
33.57 	0.060356 	3877 	0.059147
33.59 	0.054897 	3880 	0.053991
33.61 	0.056536 	3909 	0.055787
33.63 	0.069916 	3919 	0.068122
33.65 	0.059272 	3931 	0.058080
33.67 	0.060951 	3954 	0.059618
33.69 	0.061472 	3953 	0.060583
33.71 	0.054843 	3975 	0.053811
33.73 	0.056194 	4004 	0.054707
33.75 	0.061015 	3999 	0.059843
33.77 	0.063106 	4025 	0.061917
33.79 	0.055927 	4041 	0.054622
33.81 	0.059188 	4038 	0.058027
33.83 	0.061728 	4050 	0.061150
33.85 	0.055379 	4099 	0.054236
33.87 	0.057407 	4111 	0.056837
33.89 	0.054598 	4121 	0.053888
33.91 	0.060497 	4149 	0.059649
33.93 	0.057336 	4151 	0.056348
33.95 	0.065056 	4181 	0.062534
33.97 	0.052745 	4190 	0.051463
33.99 	0.059286 	4200 	0.058170
34.01 	0.060764 	4213 	0.060208
34.03 	0.053723 	4244 	0.053447
34.05 	0.057150 	4252 	0.056047
34.07 	0.062793 	4268 	0.061558
34.09 	0.059263 	4286 	0.058443
34.11 	0.063459 	4302 	0.062778
34.13 	0.061978 	4308 	0.061026
34.15 	0.054953 	4331 	0.054141
34.17 	0.058621 	4350 	0.057947
34.19 	0.058230 	4362 	0.057022
34.21 	0.058797 	4371 	0.057859
34.23 	0.066014 	4393 	0.064814
34.25 	0.054723 	4404 	0.053526
34.27 	0.060380 	4422 	0.059585
34.29 	0.059977 	4435 	0.058921
34.31 	0.060565 	4458 	0.059383
34.33 	0.057258 	4471 	0.056079
34.35 	0.053747 	4484 	0.052832
34.37 	0.052327 	4491 	0.051414
34.39 	0.059751 	4502 	0.058971
34.41 	0.057225 	4526 	0.056319
34.43 	0.057281 	4539 	0.056507
34.45 	0.055127 	4535 	0.053577
34.47 	0.057709 	4592 	0.056561
34.49 	0.056341 	4597 	0.055704
34.51 	0.055363 	4606 	0.054599
34.53 	0.061598 	4643 	0.060715
34.55 	0.062029 	4643 	0.060767
34.57 	0.060515 	4660 	0.059384
34.59 	0.054118 	4675 	0.053616
34.61 	0.061529 	4697 	0.060406
34.63 	0.063482 	4710 	0.062238
34.65 	0.054226 	4721 	0.053357
34.67 	0.056317 	4741 	0.055185
34.69 	0.061001 	4754 	0.059769
34.71 	0.056022 	4766 	0.054793
34.73 	0.055776 	4787 	0.055287
34.75 	0.058236 	4808 	0.057018
34.77 	0.055832 	4818 	0.054981
34.79 	0.052446 	4824 	0.051596
34.81 	0.050155 	4845 	0.049308
34.83 	0.055738 	4862 	0.054052
34.85 	0.056891 	4869 	0.056048
34.87 	0.058135 	4868 	0.057533
34.89 	0.054691 	4882 	0.053731
34.91 	0.054896 	4882 	0.053936
34.93 	0.057971 	4899 	0.057014
34.95 	0.059509 	4890 	0.058052
34.97 	0.059976 	4902 	0.058781
34.99 	0.059220 	4897 	0.058602
35.01 	0.063782 	4923 	0.063187
35.03 	0.059680 	4943 	0.058614
35.05 	0.057004 	4947 	0.056175
35.07 	0.055061 	4940 	0.054468
35.09 	0.050071 	4953 	0.049361
35.11 	0.061047 	4947 	0.060100
35.13 	0.058491 	4958 	0.057664
35.15 	0.054892 	4937 	0.054180
35.17 	0.051961 	4946 	0.050777
35.19 	0.064549 	4942 	0.064075
35.21 	0.056825 	4945 	0.056114
35.23 	0.056016 	4945 	0.055779
35.25 	0.064738 	4943 	0.063553
35.27 	0.051132 	4948 	0.050658
35.29 	0.056623 	4945 	0.055794
35.31 	0.057977 	4933 	0.057621
35.33 	0.055230 	4943 	0.054045
35.35 	0.055443 	4942 	0.054613
35.37 	0.052035 	4939 	0.051560
35.39 	0.054196 	4945 	0.053130
35.41 	0.058262 	4926 	0.057430
35.43 	0.062234 	4933 	0.061284
35.45 	0.051043 	4937 	0.049975
35.47 	0.053133 	4931 	0.052302
35.49 	0.058045 	4910 	0.057210
35.51 	0.059683 	4926 	0.058118
35.53 	0.052940 	4949 	0.051875
35.55 	0.059454 	4945 	0.058743
35.57 	0.055139 	4933 	0.054308
35.59 	0.053589 	4945 	0.052523
35.61 	0.058681 	4942 	0.058444
35.63 	0.061703 	4943 	0.060281
35.65 	0.057634 	4945 	0.057279
35.67 	0.054634 	4942 	0.053923
35.69 	0.056611 	4946 	0.055289
35.71 	0.051853 	4937 	0.050785
35.73 	0.056321 	4936 	0.055490
35.75 	0.059420 	4931 	0.059182
35.77 	0.055948 	4951 	0.055238
35.79 	0.053528 	4932 	0.053053
35.81 	0.056558 	4933 	0.055351
35.83 	0.053983 	4946 	0.053490
35.85 	0.050861 	4935 	0.050149
35.87 	0.055048 	4923 	0.053957
35.89 	0.057762 	4934 	0.056931
35.91 	0.055206 	4927 	0.054255
35.93 	0.053176 	4927 	0.051869
35.95 	0.057555 	4917 	0.056602
35.97 	0.051507 	4912 	0.050433
35.99 	0.051630 	4939 	0.051155
36.01 	0.053144 	4930 	0.052075
36.03 	0.054218 	4943 	0.053507
36.05 	0.053994 	4945 	0.053402
36.07 	0.055882 	4939 	0.055407
36.09 	0.054049 	4940 	0.053574
36.11 	0.054575 	4929 	0.053624
36.13 	0.056050 	4942 	0.054983
36.15 	0.056894 	4939 	0.055945
36.17 	0.059289 	4925 	0.059051
36.19 	0.062551 	4940 	0.060515
36.21 	0.058835 	4929 	0.057766
36.23 	0.057143 	4935 	0.056431
36.25 	0.061526 	4941 	0.059985
36.27 	0.052183 	4925 	0.051112
36.29 	0.059623 	4931 	0.058316
36.31 	0.053571 	4928 	0.052858
36.33 	0.053923 	4933 	0.053210
36.35 	0.052546 	4929 	0.050882
36.37 	0.058298 	4923 	0.057326
36.39 	0.058321 	4921 	0.057369
36.41 	0.052696 	4896 	0.051859
36.43 	0.050528 	4928 	0.050052
36.45 	0.054361 	4930 	0.053767
36.47 	0.058549 	4936 	0.057719
36.49 	0.048361 	4942 	0.047413
36.51 	0.054328 	4933 	0.053497
36.53 	0.058467 	4943 	0.057281
36.55 	0.052365 	4927 	0.051651
36.57 	0.052493 	4934 	0.051899
36.59 	0.054262 	4939 	0.053432
36.61 	0.055770 	4931 	0.055176
36.63 	0.057392 	4931 	0.056560
36.65 	0.052514 	4932 	0.051802
36.67 	0.052941 	4930 	0.052109
36.69 	0.050720 	4929 	0.050364
36.71 	0.048974 	4921 	0.047902
36.73 	0.054010 	4925 	0.053178
36.75 	0.054409 	4944 	0.053343
36.77 	0.050620 	4919 	0.050144
36.79 	0.060354 	4921 	0.059520
36.81 	0.058991 	4916 	0.057542
36.83 	0.056968 	4915 	0.055777
36.85 	0.058800 	4898 	0.057962
36.87 	0.050971 	4944 	0.049431
36.89 	0.050448 	4916 	0.049375
36.91 	0.047359 	4941 	0.046509
36.93 	0.052130 	4930 	0.051179
36.95 	0.055342 	4933 	0.054372
36.97 	0.051480 	4934 	0.050411
36.99 	0.054103 	4935 	0.053154
37.01 	0.058788 	4933 	0.057719
37.03 	0.057067 	4924 	0.055997
37.05 	0.053988 	4927 	0.052899
37.07 	0.056535 	4935 	0.056179
37.09 	0.057021 	4928 	0.056308
37.11 	0.055117 	4935 	0.053692
37.13 	0.044070 	4924 	0.043713
37.15 	0.053779 	4909 	0.053301
37.17 	0.049453 	4934 	0.048365
37.19 	0.053198 	4925 	0.052603
37.21 	0.057962 	4917 	0.056890
37.23 	0.052054 	4918 	0.051577
37.25 	0.053350 	4911 	0.052395
37.27 	0.048427 	4894 	0.047828
37.29 	0.051116 	4930 	0.050284
37.31 	0.052888 	4935 	0.052175
37.33 	0.048711 	4927 	0.047503
37.35 	0.049008 	4938 	0.048770
37.37 	0.042825 	4927 	0.042231
37.39 	0.051308 	4931 	0.050952
37.41 	0.052728 	4931 	0.052371
37.43 	0.065693 	4932 	0.064743
37.45 	0.055443 	4924 	0.054134
37.47 	0.049503 	4929 	0.049028
37.49 	0.051391 	4923 	0.051034
37.51 	0.053314 	4933 	0.052008
37.53 	0.047977 	4919 	0.047382
37.55 	0.056795 	4930 	0.055845
37.57 	0.053198 	4925 	0.052722
37.59 	0.047813 	4915 	0.046979
37.61 	0.054856 	4922 	0.053547
37.63 	0.052043 	4919 	0.051805
37.65 	0.051037 	4918 	0.050203
37.67 	0.057096 	4904 	0.055902
37.69 	0.057166 	4898 	0.056449
37.71 	0.051938 	4929 	0.051343
37.73 	0.048489 	4929 	0.047894
37.75 	0.049595 	4940 	0.049002
37.77 	0.052033 	4920 	0.050961
37.79 	0.048479 	4930 	0.047409
37.81 	0.050071 	4933 	0.049002
37.83 	0.045325 	4920 	0.044968
37.85 	0.050386 	4922 	0.049890
37.87 	0.056084 	4939 	0.055610
37.89 	0.052995 	4925 	0.052400
37.91 	0.048884 	4930 	0.047696
37.93 	0.047164 	4919 	0.045973
37.95 	0.042268 	4921 	0.041792
37.97 	0.056401 	4929 	0.054836
37.99 	0.054764 	4912 	0.053691
38.01 	0.045860 	4928 	0.045147
38.03 	0.050112 	4909 	0.049396
38.05 	0.055838 	4925 	0.055005
38.07 	0.049705 	4909 	0.048869
38.09 	0.054531 	4878 	0.053690
38.11 	0.052685 	4935 	0.051854
38.13 	0.049423 	4937 	0.048335
38.15 	0.050427 	4918 	0.049831
38.17 	0.050913 	4930 	0.050081
38.19 	0.052738 	4930 	0.051155
38.21 	0.054845 	4923 	0.053179
38.23 	0.055691 	4938 	0.054504
38.25 	0.060403 	4917 	0.059092
38.27 	0.049899 	4930 	0.049661
38.29 	0.057067 	4924 	0.055878
38.31 	0.061498 	4927 	0.060309
38.33 	0.054427 	4924 	0.053714
38.35 	0.066558 	4928 	0.065251
38.37 	0.056458 	4924 	0.055269
38.39 	0.053982 	4909 	0.053386
38.41 	0.058704 	4923 	0.057990
38.43 	0.060008 	4916 	0.059055
38.45 	0.059780 	4918 	0.059066
38.47 	0.056450 	4907 	0.055853
38.49 	0.059258 	4877 	0.058417
38.51 	0.057989 	4932 	0.057038
38.53 	0.068777 	4929 	0.066974
38.55 	0.053687 	4936 	0.052856
38.57 	0.049766 	4923 	0.049171
38.59 	0.050366 	4924 	0.049771
38.61 	0.054903 	4936 	0.053934
38.63 	0.048741 	4924 	0.048503
38.65 	0.051647 	4918 	0.050813
38.67 	0.054689 	4937 	0.053483
38.69 	0.053637 	4922 	0.052784
38.71 	0.049756 	4924 	0.049161
38.73 	0.053680 	4918 	0.053204
38.75 	0.049929 	4927 	0.048978
38.77 	0.052610 	4923 	0.051539
38.79 	0.049250 	4934 	0.048637
38.81 	0.050692 	4912 	0.049977
38.83 	0.047774 	4919 	0.047179
38.85 	0.050285 	4912 	0.049569
38.87 	0.050499 	4911 	0.050141
38.89 	0.047376 	4897 	0.046419
38.91 	0.052213 	4903 	0.051377
38.93 	0.050020 	4938 	0.049071
38.95 	0.054087 	4918 	0.053253
38.97 	0.053944 	4931 	0.053350
38.99 	0.046790 	4937 	0.046315
39.01 	0.048800 	4918 	0.048205
39.03 	0.048642 	4934 	0.047811
39.05 	0.052792 	4925 	0.052197
39.07 	0.052193 	4924 	0.051242
39.09 	0.048954 	4923 	0.048359
39.11 	0.046846 	4931 	0.046490
39.13 	0.045501 	4923 	0.044906
39.15 	0.044354 	4915 	0.043520
39.17 	0.051246 	4937 	0.050652
39.19 	0.051251 	4917 	0.050655
39.21 	0.045010 	4910 	0.044294
39.23 	0.048528 	4925 	0.047457
39.25 	0.052215 	4922 	0.051262
39.27 	0.046640 	4910 	0.046162
39.29 	0.050806 	4901 	0.050089
39.31 	0.048526 	4884 	0.048046
39.33 	0.045630 	4931 	0.044917
39.35 	0.050051 	4935 	0.049695
39.37 	0.042402 	4929 	0.041808
39.39 	0.045851 	4929 	0.045138
39.41 	0.047860 	4931 	0.047029
39.43 	0.044395 	4933 	0.044039
39.45 	0.049949 	4925 	0.049355
39.47 	0.048548 	4923 	0.047715
39.49 	0.047841 	4933 	0.047366
39.51 	0.047725 	4924 	0.047250
39.53 	0.045704 	4923 	0.045466
39.55 	0.049197 	4919 	0.048602
39.57 	0.044192 	4933 	0.043480
39.59 	0.050489 	4912 	0.050250
39.61 	0.049563 	4923 	0.048968
39.63 	0.051605 	4922 	0.049820
39.65 	0.045473 	4926 	0.044997
39.67 	0.046407 	4913 	0.045811
39.69 	0.049227 	4916 	0.048750
39.71 	0.047191 	4895 	0.046214
39.73 	0.044214 	4908 	0.043855
39.75 	0.046875 	4928 	0.046380
39.77 	0.050861 	4935 	0.050149
39.79 	0.048518 	4926 	0.047805
39.81 	0.045667 	4927 	0.045072
39.83 	0.043778 	4934 	0.043066
39.85 	0.048102 	4927 	0.047746
39.87 	0.043858 	4925 	0.043144
39.89 	0.050061 	4934 	0.049348
39.91 	0.045307 	4922 	0.044216
39.93 	0.042131 	4937 	0.041894
39.95 	0.042116 	4915 	0.041639
39.97 	0.045657 	4928 	0.045301
39.99 	0.046229 	4932 	0.044922
40.01 	0.048394 	4918 	0.048036
40.03 	0.048498 	4928 	0.047904
40.05 	0.043929 	4917 	0.043453
40.07 	0.047938 	4923 	0.047581
40.09 	0.048007 	4916 	0.047768
40.11 	0.046176 	4916 	0.045222
40.13 	0.047794 	4896 	0.047076
40.15 	0.043965 	4913 	0.043011
40.17 	0.046469 	4928 	0.046350
40.19 	0.045851 	4929 	0.045475
40.21 	0.044377 	4935 	0.043665
40.23 	0.048459 	4932 	0.048103
40.25 	0.044309 	4920 	0.043714
40.27 	0.041928 	4937 	0.041572
40.29 	0.044652 	4927 	0.044176
40.31 	0.047580 	4939 	0.046869
40.33 	0.048054 	4932 	0.047460
40.35 	0.047571 	4919 	0.046975
40.37 	0.045851 	4929 	0.045376
40.39 	0.049686 	4931 	0.048973
40.41 	0.042234 	4925 	0.041758
40.43 	0.044088 	4922 	0.043374
40.45 	0.046827 	4933 	0.046234
40.47 	0.046767 	4918 	0.045794
40.49 	0.050142 	4926 	0.049548
40.51 	0.051199 	4922 	0.050247
40.53 	0.042514 	4916 	0.041918
40.55 	0.045844 	4908 	0.045108
40.57 	0.044990 	4890 	0.044511
40.59 	0.043751 	4937 	0.043039
40.61 	0.045795 	4935 	0.045439
40.63 	0.045639 	4930 	0.045520
40.65 	0.041523 	4937 	0.041405
40.67 	0.042376 	4932 	0.041664
40.69 	0.045777 	4937 	0.045302
40.71 	0.048054 	4932 	0.047341
40.73 	0.047097 	4926 	0.046146
40.75 	0.044818 	4931 	0.043868
40.77 	0.045556 	4939 	0.045437
40.79 	0.046101 	4924 	0.045506
40.81 	0.045942 	4941 	0.045705
40.83 	0.045252 	4928 	0.044776
40.85 	0.041836 	4924 	0.041360
40.87 	0.043628 	4928 	0.043153
40.89 	0.042993 	4931 	0.042637
40.91 	0.045501 	4923 	0.044906
40.93 	0.049047 	4934 	0.048454
40.95 	0.043965 	4913 	0.043488
40.97 	0.049959 	4924 	0.049246
40.99 	0.045288 	4924 	0.045050
41.01 	0.049064 	4912 	0.048825
41.03 	0.044444 	4905 	0.043967
41.05 	0.035251 	4936 	0.034777
41.07 	0.043611 	4930 	0.042898
41.09 	0.043734 	4939 	0.043022
41.11 	0.043972 	4935 	0.043141
41.13 	0.038493 	4936 	0.038493
41.15 	0.043513 	4941 	0.043158
41.17 	0.047629 	4934 	0.046323
41.19 	0.045842 	4930 	0.044654
41.21 	0.043346 	4937 	0.043109
41.23 	0.047378 	4939 	0.047022
41.25 	0.040341 	4933 	0.039628
41.27 	0.042182 	4931 	0.041826
41.29 	0.045657 	4928 	0.045182
41.31 	0.049057 	4933 	0.048464
41.33 	0.043751 	4937 	0.042901
41.35 	0.042932 	4938 	0.042576
41.37 	0.045288 	4924 	0.044694
41.39 	0.046422 	4933 	0.046066
41.41 	0.047706 	4926 	0.046517
41.43 	0.046663 	4929 	0.045712
41.45 	0.036834 	4914 	0.036238
41.47 	0.044255 	4926 	0.043898
41.49 	0.043949 	4892 	0.043590
41.51 	0.042510 	4940 	0.042154
41.53 	0.047330 	4944 	0.046382
41.55 	0.042553 	4935 	0.042316
41.57 	0.045133 	4941 	0.044421
41.59 	0.044192 	4933 	0.043480
41.61 	0.040581 	4953 	0.040227
41.63 	0.042527 	4938 	0.041578
41.65 	0.041793 	4929 	0.041675
41.67 	0.043117 	4940 	0.042880
41.69 	0.039014 	4947 	0.038540
41.71 	0.040738 	4934 	0.039669
41.73 	0.042139 	4936 	0.041309
41.75 	0.046460 	4929 	0.045509
41.77 	0.040478 	4941 	0.040003
41.79 	0.043689 	4944 	0.042860
41.81 	0.038493 	4936 	0.038255
41.83 	0.042817 	4928 	0.042222
41.85 	0.045758 	4939 	0.045165
41.87 	0.038298 	4935 	0.037823
41.89 	0.037300 	4933 	0.036944
41.91 	0.040721 	4936 	0.040365
41.93 	0.041160 	4932 	0.040210
41.95 	0.047049 	4931 	0.046337
41.97 	0.040090 	4914 	0.039732
41.99 	0.046483 	4905 	0.046244
42.01 	0.046338 	4942 	0.045863
42.03 	0.039684 	4939 	0.038716
42.05 	0.043417 	4952 	0.042707
42.07 	0.038080 	4937 	0.037724
42.09 	0.044867 	4948 	0.044275
42.11 	0.038827 	4945 	0.038472
42.13 	0.039029 	4945 	0.038911
42.15 	0.042730 	4938 	0.042137
42.17 	0.038634 	4918 	0.038038
42.19 	0.038712 	4908 	0.038354
42.21 	0.039380 	4901 	0.038782
42.23 	0.039861 	4892 	0.039143
42.25 	0.042954 	4889 	0.042354
42.27 	0.046368 	4874 	0.045647
42.29 	0.039482 	4863 	0.039361
42.31 	0.046756 	4855 	0.046273
42.33 	0.041167 	4834 	0.040561
42.35 	0.040926 	4838 	0.040684
42.37 	0.045342 	4830 	0.044978
42.39 	0.043714 	4804 	0.043226
42.41 	0.039967 	4804 	0.039601
42.43 	0.044866 	4792 	0.044377
42.45 	0.044598 	4776 	0.043985
42.47 	0.042183 	4765 	0.041937
42.49 	0.040714 	4765 	0.040345
42.51 	0.047649 	4743 	0.046785
42.53 	0.039975 	4728 	0.039603
42.55 	0.044180 	4708 	0.043682
42.57 	0.040169 	4730 	0.039674
42.59 	0.045464 	4729 	0.044969
42.61 	0.039082 	4708 	0.038709
42.63 	0.044808 	4709 	0.044061
42.65 	0.044610 	4685 	0.043985
42.67 	0.041204 	4684 	0.040454
42.69 	0.043646 	4674 	0.043270
42.71 	0.038602 	4663 	0.038351
42.73 	0.036422 	4640 	0.036044
42.75 	0.043535 	4617 	0.043027
42.77 	0.039130 	4600 	0.038748
42.79 	0.042340 	4582 	0.041445
42.81 	0.044936 	4562 	0.044936
42.83 	0.039462 	4536 	0.039333
42.85 	0.043507 	4528 	0.042990
42.87 	0.032674 	4499 	0.032153
42.89 	0.043304 	4480 	0.042781
42.91 	0.036580 	4456 	0.036448
42.93 	0.039361 	4446 	0.038834
42.95 	0.041440 	4416 	0.041042
42.97 	0.041127 	4401 	0.040328
42.99 	0.043786 	4385 	0.043385
43.01 	0.048361 	4363 	0.047690
43.03 	0.039465 	4333 	0.038902
43.05 	0.041850 	4325 	0.041308
43.07 	0.039339 	4296 	0.039339
43.09 	0.044828 	4283 	0.044145
43.11 	0.040423 	4255 	0.040148
43.13 	0.040359 	4237 	0.039944
43.15 	0.042083 	4206 	0.041665
43.17 	0.042355 	4179 	0.041934
43.19 	0.041726 	4194 	0.041307
43.21 	0.043864 	4172 	0.043583
43.23 	0.036351 	4154 	0.035927
43.25 	0.042322 	4135 	0.042180
43.27 	0.037515 	4105 	0.037230
43.29 	0.036341 	4100 	0.035770
43.31 	0.039961 	4079 	0.039674
43.33 	0.035547 	4051 	0.034824
43.35 	0.042907 	4032 	0.042761
43.37 	0.045579 	4015 	0.045141
43.39 	0.043478 	4002 	0.043332
43.41 	0.040785 	3972 	0.040196
43.43 	0.037374 	3960 	0.036930
43.45 	0.039136 	3935 	0.038689
43.47 	0.038256 	3921 	0.037335
43.49 	0.038491 	3897 	0.038040
43.51 	0.041269 	3877 	0.040489
43.53 	0.041936 	3863 	0.041633
43.55 	0.045884 	2964 	0.044698
43.57 	0.041108 	2238 	0.040846
43.59 	0.035510 	1746 	0.035174
43.61 	0.037750 	1351 	0.037316
43.63 	0.030969 	1001 	0.030384
43.65 	0.039301 	687 	0.039301
43.67 	0.033865 	502 	0.033865
43.69 	0.035422 	367 	0.035422
43.71 	0.046025 	239 	0.046025
43.73 	0.025000 	120 	0.025000
43.75 	0.000000 	16 	0.000000