File: Example_Data/25SC_s1_0034.001.dat
#F C:\frames\spec\25SC_s1_0034.001
#C title =s:34 frm:1 25SC_s1
#C wavelength =0.15406

#S 1  fr_average C:\frames\spec\25SC_s1_0034.001 C:\win32app\speccom\mask.axs chi 0 180 0 360 0.02
#C 2 theta =0.000000 to 180 deg
#C   q   =0.000000 to 81.568 nm^-1
#C  chi  =0.000000 to 360 deg
#C collumns:
#C  1 position (2theta or chi in degrees)
#C  2 average intensity (sum of all counts in the region divided with number of pixels)
#C  3 Number of pixels in region)
#C  4 error (sum of sqrt(intensity) for all pixels divided by number)
#N 4
#L TTh  Int  N_pix  Err
32.99 	0.016393 	61 	0.016393
33.01 	0.056128 	873 	0.054786
33.03 	0.058231 	1391 	0.056478
33.05 	0.071713 	1757 	0.069046
33.07 	0.064878 	2050 	0.063402
33.09 	0.063485 	2347 	0.062237
33.11 	0.058938 	2579 	0.057802
33.13 	0.055496 	2793 	0.054237
33.15 	0.058686 	2999 	0.058100
33.17 	0.059356 	3201 	0.057709
33.19 	0.052065 	3342 	0.050662
33.21 	0.058498 	3436 	0.057816
33.23 	0.052796 	3523 	0.051632
33.25 	0.056478 	3612 	0.055181
33.27 	0.063085 	3630 	0.061956
33.29 	0.061404 	3648 	0.060761
33.31 	0.059016 	3660 	0.058856
33.33 	0.070537 	3686 	0.069584
33.35 	0.053871 	3694 	0.053554
33.37 	0.058697 	3714 	0.057750
33.39 	0.064092 	3729 	0.062993
33.41 	0.059358 	3740 	0.058236
33.43 	0.058761 	3761 	0.057359
33.45 	0.066260 	3773 	0.065329
33.47 	0.059242 	3798 	0.058471
33.49 	0.054608 	3809 	0.053839
33.51 	0.060550 	3815 	0.059476
33.53 	0.054413 	3841 	0.053193
33.55 	0.058548 	3843 	0.057303
33.57 	0.054939 	3877 	0.053580
33.59 	0.061082 	3880 	0.058969
33.61 	0.063955 	3909 	0.062756
33.63 	0.066088 	3919 	0.064868
33.65 	0.054948 	3931 	0.054054
33.67 	0.055134 	3954 	0.054245
33.69 	0.060207 	3953 	0.059170
33.71 	0.057107 	3975 	0.055633
33.73 	0.060440 	4004 	0.059415
33.75 	0.056014 	3999 	0.055135
33.77 	0.060373 	4025 	0.059063
33.79 	0.065825 	4041 	0.064666
33.81 	0.058940 	4038 	0.058070
33.83 	0.059012 	4050 	0.058723
33.85 	0.062454 	4099 	0.060454
33.87 	0.061785 	4111 	0.060931
33.89 	0.057753 	4121 	0.056474
33.91 	0.063148 	4149 	0.062018
33.93 	0.060708 	4151 	0.060144
33.95 	0.058598 	4181 	0.058178
33.97 	0.066587 	4190 	0.065469
33.99 	0.055238 	4200 	0.053704
34.01 	0.057204 	4213 	0.056231
34.03 	0.051131 	4244 	0.050027
34.05 	0.055738 	4252 	0.054774
34.07 	0.054592 	4268 	0.053906
34.09 	0.059263 	4286 	0.057896
34.11 	0.058345 	4302 	0.057119
34.13 	0.060121 	4308 	0.059441
34.15 	0.054260 	4331 	0.053719
34.17 	0.068276 	4350 	0.067333
34.19 	0.052728 	4362 	0.052325
34.21 	0.054450 	4371 	0.053914
34.23 	0.054860 	4393 	0.053638
34.25 	0.058583 	4404 	0.057652
34.27 	0.052917 	4422 	0.052387
34.29 	0.058174 	4435 	0.056831
34.31 	0.060565 	4458 	0.059777
34.33 	0.057705 	4471 	0.056395
34.35 	0.058876 	4484 	0.058092
34.37 	0.058116 	4491 	0.057594
34.39 	0.049311 	4502 	0.048531
34.41 	0.062970 	4526 	0.062193
34.43 	0.060145 	4539 	0.059221
34.45 	0.057773 	4535 	0.056481
34.47 	0.052918 	4592 	0.051515
34.49 	0.057211 	4597 	0.056319
34.51 	0.056014 	4606 	0.055760
34.53 	0.056214 	4643 	0.055835
34.55 	0.054921 	4643 	0.054291
34.57 	0.056223 	4660 	0.055595
34.59 	0.050909 	4675 	0.050157
34.61 	0.058335 	4697 	0.057337
34.63 	0.060085 	4710 	0.058966
34.65 	0.056979 	4721 	0.056483
34.67 	0.056739 	4741 	0.056121
34.69 	0.057215 	4754 	0.056106
34.71 	0.056861 	4766 	0.056001
34.73 	0.053896 	4787 	0.053039
34.75 	0.051997 	4808 	0.051022
34.77 	0.052096 	4818 	0.051488
34.79 	0.054726 	4824 	0.053269
34.81 	0.052632 	4845 	0.052269
34.83 	0.054916 	4862 	0.053590
34.85 	0.052988 	4869 	0.052126
34.87 	0.051356 	4868 	0.050874
34.89 	0.055920 	4882 	0.055200
34.91 	0.065342 	4882 	0.064142
34.93 	0.053480 	4899 	0.052763
34.95 	0.057669 	4890 	0.056710
34.97 	0.052224 	4902 	0.051507
34.99 	0.053502 	4897 	0.053263
35.01 	0.054032 	4923 	0.053556
35.03 	0.056039 	4943 	0.055683
35.05 	0.058217 	4947 	0.056796
35.07 	0.054656 	4940 	0.053351
35.09 	0.055118 	4953 	0.054527
35.11 	0.051951 	4947 	0.051714
35.13 	0.055869 	4958 	0.055042
35.15 	0.059955 	4937 	0.058888
35.17 	0.052770 	4946 	0.052178
35.19 	0.052813 	4942 	0.052101
35.21 	0.060465 	4945 	0.059162
35.23 	0.056218 	4945 	0.055152
35.25 	0.053611 	4943 	0.053256
35.27 	0.052749 	4948 	0.051683
35.29 	0.052174 	4945 	0.051937
35.31 	0.054733 	4933 	0.054140
35.33 	0.053813 	4943 	0.053339
35.35 	0.056657 	4942 	0.055689
35.37 	0.051022 	4939 	0.050192
35.39 	0.051163 	4945 	0.050689
35.41 	0.051766 	4926 	0.051409
35.43 	0.056355 	4933 	0.055405
35.45 	0.051448 	4937 	0.050855
35.47 	0.051308 	4931 	0.050239
35.49 	0.056415 	4910 	0.055203
35.51 	0.056638 	4926 	0.055687
35.53 	0.056173 	4949 	0.055463
35.55 	0.058847 	4945 	0.058018
35.57 	0.060815 	4933 	0.059845
35.59 	0.054803 	4945 	0.053855
35.61 	0.055241 	4942 	0.054530
35.63 	0.052600 	4943 	0.051652
35.65 	0.053994 	4945 	0.053283
35.67 	0.053824 	4942 	0.053113
35.69 	0.058633 	4946 	0.057567
35.71 	0.057120 	4937 	0.056764
35.73 	0.060778 	4936 	0.059473
35.75 	0.058000 	4931 	0.057525
35.77 	0.056352 	4951 	0.055997
35.79 	0.046229 	4932 	0.045754
35.81 	0.049463 	4933 	0.048869
35.83 	0.052972 	4946 	0.052025
35.85 	0.057548 	4935 	0.056480
35.87 	0.054641 	4923 	0.053214
35.89 	0.050669 	4934 	0.049700
35.91 	0.052162 	4927 	0.051567
35.93 	0.061498 	4927 	0.060666
35.95 	0.058369 	4917 	0.058012
35.97 	0.057410 	4912 	0.056933
35.99 	0.058311 	4939 	0.057718
36.01 	0.059838 	4930 	0.058650
36.03 	0.060490 	4943 	0.059166
36.05 	0.056421 	4945 	0.055947
36.07 	0.059729 	4939 	0.058780
36.09 	0.053441 	4940 	0.052730
36.11 	0.061270 	4929 	0.060270
36.13 	0.053015 	4942 	0.052422
36.15 	0.061348 	4939 	0.060044
36.17 	0.051574 	4925 	0.051098
36.19 	0.058704 	4940 	0.057361
36.21 	0.054981 	4929 	0.053911
36.23 	0.058764 	4935 	0.057696
36.25 	0.057883 	4941 	0.057290
36.27 	0.057462 	4925 	0.056867
36.29 	0.054147 	4931 	0.052959
36.31 	0.052963 	4928 	0.052249
36.33 	0.053923 	4933 	0.053804
36.35 	0.053561 	4929 	0.052847
36.37 	0.055454 	4923 	0.055097
36.39 	0.049787 	4921 	0.048953
36.41 	0.054534 	4896 	0.053577
36.43 	0.051745 	4928 	0.051032
36.45 	0.056998 	4930 	0.055810
36.47 	0.059968 	4936 	0.058899
36.49 	0.057467 	4942 	0.055926
36.51 	0.054328 	4933 	0.053497
36.53 	0.059478 	4943 	0.058174
36.55 	0.055815 	4927 	0.054626
36.57 	0.056344 	4934 	0.055156
36.59 	0.048593 	4939 	0.047763
36.61 	0.050294 	4931 	0.049700
36.63 	0.051308 	4931 	0.050833
36.65 	0.052311 	4932 	0.051480
36.67 	0.050101 	4930 	0.048894
36.69 	0.053561 	4929 	0.052828
36.71 	0.054664 	4921 	0.053592
36.73 	0.056447 	4925 	0.055138
36.75 	0.059668 	4944 	0.058602
36.77 	0.056719 	4919 	0.056242
36.79 	0.049787 	4921 	0.048953
36.81 	0.060822 	4916 	0.059372
36.83 	0.053510 	4915 	0.052675
36.85 	0.055941 	4898 	0.054984
36.87 	0.056432 	4944 	0.055484
36.89 	0.055736 	4916 	0.054783
36.91 	0.059300 	4941 	0.058114
36.93 	0.060446 	4930 	0.059852
36.95 	0.058180 	4933 	0.056992
36.97 	0.053101 	4934 	0.052626
36.99 	0.052888 	4935 	0.052057
37.01 	0.054936 	4933 	0.053986
37.03 	0.055849 	4924 	0.054878
37.05 	0.055409 	4927 	0.054101
37.07 	0.054914 	4935 	0.053925
37.09 	0.053571 	4928 	0.052739
37.11 	0.054306 	4935 	0.053356
37.13 	0.050975 	4924 	0.050380
37.15 	0.057446 	4909 	0.056491
37.17 	0.057357 	4934 	0.056526
37.19 	0.056041 	4925 	0.055327
37.21 	0.053285 	4917 	0.051855
37.23 	0.057544 	4918 	0.056214
37.25 	0.047852 	4911 	0.047017
37.27 	0.052718 	4894 	0.051880
37.29 	0.052535 	4930 	0.051704
37.31 	0.062411 	4935 	0.060987
37.33 	0.050944 	4927 	0.049755
37.35 	0.050628 	4938 	0.049797
37.37 	0.052770 	4927 	0.051819
37.39 	0.056378 	4931 	0.055428
37.41 	0.056784 	4931 	0.055833
37.43 	0.057380 	4932 	0.056193
37.45 	0.058895 	4924 	0.057428
37.47 	0.051735 	4929 	0.050903
37.49 	0.057079 	4923 	0.056603
37.51 	0.058788 	4933 	0.057600
37.53 	0.053669 	4919 	0.052717
37.55 	0.059432 	4930 	0.058224
37.57 	0.053401 	4925 	0.052668
37.59 	0.064293 	4915 	0.063220
37.61 	0.055872 	4922 	0.055277
37.63 	0.051637 	4919 	0.050684
37.65 	0.053884 	4918 	0.052931
37.67 	0.054445 	4904 	0.054326
37.69 	0.053083 	4898 	0.051987
37.71 	0.057212 	4929 	0.056499
37.73 	0.058430 	4929 	0.057222
37.75 	0.055263 	4940 	0.053840
37.77 	0.051626 	4920 	0.051031
37.79 	0.052535 	4930 	0.050991
37.81 	0.054936 	4933 	0.054105
37.83 	0.059350 	4920 	0.058159
37.85 	0.052011 	4922 	0.051159
37.87 	0.051225 	4939 	0.050513
37.89 	0.054213 	4925 	0.053143
37.91 	0.056795 	4930 	0.055845
37.93 	0.053466 	4919 	0.052633
37.95 	0.060150 	4921 	0.058940
37.97 	0.050112 	4929 	0.049399
37.99 	0.055375 	4912 	0.054659
38.01 	0.052557 	4928 	0.051962
38.03 	0.061112 	4909 	0.060277
38.05 	0.055431 	4925 	0.054203
38.07 	0.059075 	4909 	0.058598
38.09 	0.053711 	4878 	0.053230
38.11 	0.054711 	4935 	0.053406
38.13 	0.052461 	4937 	0.051986
38.15 	0.053884 	4918 	0.053526
38.17 	0.057201 	4930 	0.056250
38.19 	0.056389 	4930 	0.055439
38.21 	0.058704 	4923 	0.057752
38.23 	0.058931 	4938 	0.057982
38.25 	0.055318 	4917 	0.054723
38.27 	0.065923 	4930 	0.064735
38.29 	0.060114 	4924 	0.059281
38.31 	0.064136 	4927 	0.063542
38.33 	0.067628 	4924 	0.065843
38.35 	0.070008 	4928 	0.068443
38.37 	0.069456 	4924 	0.067552
38.39 	0.066205 	4909 	0.064892
38.41 	0.070485 	4923 	0.069633
38.43 	0.069772 	4916 	0.068700
38.45 	0.073404 	4918 	0.072094
38.47 	0.073568 	4907 	0.072355
38.49 	0.073816 	4877 	0.072254
38.51 	0.069951 	4932 	0.069357
38.53 	0.076486 	4929 	0.074783
38.55 	0.078404 	4936 	0.076485
38.57 	0.071501 	4923 	0.069240
38.59 	0.072705 	4924 	0.071634
38.61 	0.069084 	4936 	0.067541
38.63 	0.063160 	4924 	0.061138
38.65 	0.074624 	4918 	0.073075
38.67 	0.066235 	4937 	0.064929
38.69 	0.069484 	4922 	0.068294
38.71 	0.057474 	4924 	0.056522
38.73 	0.061204 	4918 	0.060489
38.75 	0.053176 	4927 	0.051869
38.77 	0.058095 	4923 	0.057262
38.79 	0.058573 	4934 	0.057742
38.81 	0.053950 	4912 	0.053234
38.83 	0.055499 	4919 	0.054546
38.85 	0.055171 	4912 	0.054217
38.87 	0.054571 	4911 	0.053975
38.89 	0.050235 	4897 	0.049756
38.91 	0.051805 	4903 	0.051088
38.93 	0.051640 	4938 	0.050197
38.95 	0.051444 	4918 	0.050729
38.97 	0.050700 	4931 	0.050106
38.99 	0.045777 	4937 	0.044946
39.01 	0.050224 	4918 	0.049013
39.03 	0.050061 	4934 	0.049230
39.05 	0.042437 	4925 	0.042080
39.07 	0.045898 	4924 	0.045660
39.09 	0.048141 	4923 	0.047427
39.11 	0.046035 	4931 	0.045679
39.13 	0.048141 	4923 	0.047070
39.15 	0.051679 	4915 	0.050844
39.17 	0.050030 	4937 	0.049081
39.19 	0.046573 	4917 	0.046454
39.21 	0.046232 	4910 	0.045755
39.23 	0.041624 	4925 	0.040673
39.25 	0.046526 	4922 	0.046169
39.27 	0.048065 	4910 	0.047827
39.29 	0.046929 	4901 	0.046451
39.31 	0.050778 	4884 	0.049799
39.33 	0.047658 	4931 	0.046213
39.35 	0.042148 	4935 	0.041792
39.37 	0.043011 	4929 	0.042417
39.39 	0.040576 	4929 	0.039982
39.41 	0.045832 	4931 	0.045239
39.43 	0.046422 	4933 	0.045235
39.45 	0.043046 	4925 	0.042927
39.47 	0.047329 	4923 	0.046853
39.49 	0.041962 	4933 	0.041487
39.51 	0.044070 	4924 	0.043594
39.53 	0.041844 	4923 	0.041249
39.55 	0.042285 	4919 	0.041690
39.57 	0.049260 	4933 	0.048904
39.59 	0.039495 	4912 	0.038899
39.61 	0.044282 	4923 	0.043687
39.63 	0.043275 	4922 	0.042680
39.65 	0.047097 	4926 	0.046502
39.67 	0.043354 	4913 	0.042758
39.69 	0.041294 	4916 	0.041055
39.71 	0.043309 	4895 	0.042831
39.73 	0.046047 	4908 	0.045092
39.75 	0.048093 	4928 	0.047498
39.77 	0.048227 	4935 	0.047159
39.79 	0.047097 	4926 	0.046502
39.81 	0.044246 	4927 	0.043770
39.83 	0.044994 	4934 	0.044282
39.85 	0.048711 	4927 	0.047998
39.87 	0.047919 	4925 	0.047443
39.89 	0.050872 	4934 	0.050159
39.91 	0.043275 	4922 	0.042442
39.93 	0.043144 	4937 	0.042788
39.95 	0.040488 	4915 	0.040369
39.97 	0.041193 	4928 	0.040718
39.99 	0.042579 	4932 	0.041748
40.01 	0.044530 	4918 	0.044173
40.03 	0.046063 	4928 	0.045469
40.05 	0.043522 	4917 	0.042927
40.07 	0.040016 	4923 	0.039897
40.09 	0.045566 	4916 	0.044731
40.11 	0.048617 	4916 	0.048021
40.13 	0.038194 	4896 	0.037955
40.15 	0.045186 	4913 	0.044590
40.17 	0.040179 	4928 	0.039941
40.19 	0.038750 	4929 	0.038394
40.21 	0.041945 	4935 	0.041233
40.23 	0.040349 	4932 	0.040349
40.25 	0.045732 	4920 	0.045375
40.27 	0.046384 	4937 	0.045910
40.29 	0.042419 	4927 	0.041825
40.31 	0.040089 	4939 	0.039377
40.33 	0.039943 	4932 	0.039330
40.35 	0.037609 	4919 	0.036776
40.37 	0.049909 	4929 	0.049552
40.39 	0.042791 	4931 	0.042078
40.41 	0.045076 	4925 	0.044362
40.43 	0.037586 	4922 	0.037110
40.45 	0.044192 	4933 	0.043361
40.47 	0.041074 	4918 	0.040835
40.49 	0.035729 	4926 	0.035491
40.51 	0.042462 	4922 	0.041610
40.53 	0.041294 	4916 	0.040936
40.55 	0.043602 	4908 	0.043244
40.57 	0.040695 	4890 	0.040096
40.59 	0.042941 	4937 	0.042704
40.61 	0.047619 	4935 	0.046907
40.63 	0.042191 	4930 	0.041359
40.65 	0.043954 	4937 	0.043479
40.67 	0.034469 	4932 	0.034112
40.69 	0.045372 	4937 	0.044660
40.71 	0.039943 	4932 	0.039468
40.73 	0.039789 	4926 	0.038956
40.75 	0.042385 	4931 	0.041672
40.77 	0.046163 	4939 	0.045570
40.79 	0.045898 	4924 	0.045184
40.81 	0.036025 	4941 	0.035788
40.83 	0.039773 	4928 	0.039060
40.85 	0.042242 	4924 	0.041766
40.87 	0.046875 	4928 	0.046162
40.89 	0.041979 	4931 	0.041267
40.91 	0.036969 	4923 	0.036493
40.93 	0.044183 	4934 	0.043471
40.95 	0.046815 	4913 	0.045980
40.97 	0.040617 	4924 	0.040142
40.99 	0.037977 	4924 	0.037620
41.01 	0.038274 	4912 	0.037916
41.03 	0.035066 	4905 	0.034827
41.05 	0.037277 	4936 	0.036783
41.07 	0.036105 	4930 	0.035868
41.09 	0.042316 	4939 	0.041842
41.11 	0.036879 	4935 	0.036523
41.13 	0.047407 	4936 	0.046576
41.15 	0.039466 	4941 	0.039110
41.17 	0.037900 	4934 	0.037425
41.19 	0.038540 	4930 	0.038183
41.21 	0.049423 	4937 	0.048592
41.23 	0.040494 	4939 	0.039782
41.25 	0.042976 	4933 	0.042738
41.27 	0.037721 	4931 	0.037483
41.29 	0.038149 	4928 	0.037555
41.31 	0.040949 	4933 	0.040474
41.33 	0.039498 	4937 	0.039023
41.35 	0.036655 	4938 	0.036536
41.37 	0.042242 	4924 	0.042004
41.39 	0.032637 	4933 	0.032162
41.41 	0.041007 	4926 	0.040769
41.43 	0.041591 	4929 	0.040739
41.45 	0.038462 	4914 	0.038342
41.47 	0.034105 	4926 	0.033510
41.49 	0.041292 	4892 	0.040813
41.51 	0.036640 	4940 	0.036165
41.53 	0.039442 	4944 	0.039205
41.55 	0.038703 	4935 	0.037991
41.57 	0.043311 	4941 	0.042718
41.59 	0.041962 	4933 	0.041725
41.61 	0.043408 	4953 	0.042817
41.63 	0.038477 	4938 	0.037765
41.65 	0.041185 	4929 	0.040452
41.67 	0.038259 	4940 	0.037903
41.69 	0.035779 	4947 	0.035306
41.71 	0.037900 	4934 	0.037307
41.73 	0.033630 	4936 	0.033393
41.75 	0.042808 	4929 	0.042570
41.77 	0.039263 	4941 	0.038671
41.79 	0.041667 	4944 	0.041074
41.81 	0.039303 	4936 	0.038571
41.83 	0.034700 	4928 	0.034581
41.85 	0.037255 	4939 	0.037255
41.87 	0.041743 	4935 	0.041268
41.89 	0.035881 	4933 	0.035287
41.91 	0.040519 	4936 	0.040163
41.93 	0.032238 	4932 	0.032001
41.95 	0.037315 	4931 	0.036959
41.97 	0.039072 	4914 	0.038953
41.99 	0.038124 	4905 	0.037527
42.01 	0.039660 	4942 	0.039304
42.03 	0.037659 	4939 	0.037422
42.05 	0.039378 	4952 	0.039023
42.07 	0.038080 	4937 	0.037605
42.09 	0.036176 	4948 	0.035939
42.11 	0.032154 	4945 	0.032035
42.13 	0.034580 	4945 	0.034462
42.15 	0.043135 	4938 	0.042285
42.17 	0.041887 	4918 	0.041411
42.19 	0.035452 	4908 	0.035214
42.21 	0.034279 	4901 	0.034279
42.23 	0.040474 	4892 	0.039636
42.25 	0.039067 	4889 	0.038947
42.27 	0.042265 	4874 	0.041784
42.29 	0.041538 	4863 	0.041418
42.31 	0.040989 	4855 	0.040385
42.33 	0.035788 	4834 	0.035425
42.35 	0.040306 	4838 	0.039943
42.37 	0.036232 	4830 	0.036232
42.39 	0.035595 	4804 	0.034742
42.41 	0.038926 	4804 	0.038682
42.43 	0.035684 	4792 	0.035440
42.45 	0.035804 	4776 	0.035804
42.47 	0.033368 	4765 	0.033000
42.49 	0.038405 	4765 	0.037913
42.51 	0.044487 	4743 	0.044116
42.53 	0.038283 	4728 	0.037787
42.55 	0.038020 	4708 	0.037627
42.57 	0.031501 	4730 	0.031501
42.59 	0.034680 	4729 	0.034164
42.61 	0.035472 	4708 	0.034974
42.63 	0.040773 	4709 	0.040027
42.65 	0.038634 	4685 	0.037884
42.67 	0.040350 	4684 	0.039725
42.69 	0.038083 	4674 	0.037456
42.71 	0.039031 	4663 	0.038403
42.73 	0.040517 	4640 	0.040012
42.75 	0.037037 	4617 	0.036636
42.77 	0.036304 	4600 	0.035922
42.79 	0.038411 	4582 	0.038411
42.81 	0.039237 	4562 	0.038852
42.83 	0.036376 	4536 	0.035859
42.85 	0.038869 	4528 	0.038352
42.87 	0.040676 	4499 	0.039764
42.89 	0.040402 	4480 	0.040010
42.91 	0.038824 	4456 	0.038430
42.93 	0.037562 	4446 	0.036640
42.95 	0.037364 	4416 	0.036834
42.97 	0.036583 	4401 	0.035784
42.99 	0.042189 	4385 	0.041521
43.01 	0.041714 	4363 	0.041446
43.03 	0.040619 	4333 	0.040483
43.05 	0.039538 	4325 	0.039267
43.07 	0.036080 	4296 	0.035807
43.09 	0.033388 	4283 	0.033251
43.11 	0.039483 	4255 	0.038795
43.13 	0.037763 	4237 	0.037210
43.15 	0.036852 	4206 	0.036434
43.17 	0.028715 	4179 	0.028575
43.19 	0.036719 	4194 	0.036440
43.21 	0.038591 	4172 	0.037889
43.23 	0.038036 	4154 	0.037472
43.25 	0.039661 	4135 	0.039236
43.27 	0.038733 	4105 	0.037877
43.29 	0.038780 	4100 	0.038352
43.31 	0.034567 	4079 	0.034567
43.33 	0.039743 	4051 	0.039309
43.35 	0.033978 	4032 	0.033978
43.37 	0.037609 	4015 	0.037317
43.39 	0.045477 	4002 	0.044599
43.41 	0.031974 	3972 	0.031531
43.43 	0.039646 	3960 	0.039646
43.45 	0.037865 	3935 	0.037568
43.47 	0.034175 	3921 	0.033727
43.49 	0.034899 	3897 	0.034598
43.51 	0.037400 	3877 	0.036947
43.53 	0.034688 	3863 	0.034688
43.55 	0.031039 	2964 	0.030446
43.57 	0.037087 	2238 	0.036825
43.59 	0.044674 	1746 	0.044674
43.61 	0.037010 	1351 	0.036576
43.63 	0.036963 	1001 	0.035793
43.65 	0.033479 	687 	0.033479
43.67 	0.031873 	502 	0.031873
43.69 	0.040872 	367 	0.039276
43.71 	0.046025 	239 	0.043574
43.73 	0.008333 	120 	0.008333
43.75 	0.000000 	16 	0.000000