File: Example_Data/25SC_s1_0009.003.dat
#F C:\frames\spec\25SC_s1_0009.003
#C title =s:9 frm:3 25SC_s1
#C wavelength =0.15406

#S 1  fr_average C:\frames\spec\25SC_s1_0009.003 C:\win32app\speccom\mask.axs chi 0 180 0 360 0.02
#C 2 theta =0.000000 to 180 deg
#C   q   =0.000000 to 81.568 nm^-1
#C  chi  =0.000000 to 360 deg
#C collumns:
#C  1 position (2theta or chi in degrees)
#C  2 average intensity (sum of all counts in the region divided with number of pixels)
#C  3 Number of pixels in region)
#C  4 error (sum of sqrt(intensity) for all pixels divided by number)
#N 4
#L TTh  Int  N_pix  Err
32.99 	0.049180 	61 	0.049180
33.01 	0.064147 	873 	0.064147
33.03 	0.069734 	1391 	0.067207
33.05 	0.055777 	1757 	0.053776
33.07 	0.062439 	2050 	0.061296
33.09 	0.065190 	2347 	0.064441
33.11 	0.077162 	2579 	0.075345
33.13 	0.063015 	2793 	0.062595
33.15 	0.058019 	2999 	0.057629
33.17 	0.054046 	3201 	0.054046
33.19 	0.059545 	3342 	0.058494
33.21 	0.052386 	3436 	0.051875
33.23 	0.054215 	3523 	0.053716
33.25 	0.055925 	3612 	0.055114
33.27 	0.053444 	3630 	0.051830
33.29 	0.062226 	3648 	0.060781
33.31 	0.062568 	3660 	0.061448
33.33 	0.061856 	3686 	0.061220
33.35 	0.062805 	3694 	0.061219
33.37 	0.061120 	3714 	0.059858
33.39 	0.062751 	3729 	0.061312
33.41 	0.058556 	3740 	0.057147
33.43 	0.064876 	3761 	0.064253
33.45 	0.054333 	3773 	0.053091
33.47 	0.063454 	3798 	0.062992
33.49 	0.062746 	3809 	0.061516
33.51 	0.066055 	3815 	0.064980
33.53 	0.060401 	3841 	0.059181
33.55 	0.062972 	3843 	0.061600
33.57 	0.056229 	3877 	0.055171
33.59 	0.062887 	3880 	0.061981
33.61 	0.060885 	3909 	0.059986
33.63 	0.063281 	3919 	0.062086
33.65 	0.062834 	3931 	0.061642
33.67 	0.062468 	3954 	0.061135
33.69 	0.057425 	3953 	0.056684
33.71 	0.066415 	3975 	0.065384
33.73 	0.067183 	4004 	0.066159
33.75 	0.060765 	3999 	0.059593
33.77 	0.060621 	4025 	0.059457
33.79 	0.055432 	4041 	0.054562
33.81 	0.063398 	4038 	0.062382
33.83 	0.060000 	4050 	0.058698
33.85 	0.062454 	4099 	0.061025
33.87 	0.060326 	4111 	0.059613
33.89 	0.066974 	4121 	0.065837
33.91 	0.060255 	4149 	0.059408
33.93 	0.067935 	4151 	0.066665
33.95 	0.056924 	4181 	0.055663
33.97 	0.065632 	4190 	0.064514
33.99 	0.056190 	4200 	0.055354
34.01 	0.058865 	4213 	0.057614
34.03 	0.054665 	4244 	0.054251
34.05 	0.052211 	4252 	0.051246
34.07 	0.063027 	4268 	0.060968
34.09 	0.058563 	4286 	0.058016
34.11 	0.067411 	4302 	0.066049
34.13 	0.059424 	4308 	0.058608
34.15 	0.061879 	4331 	0.061338
34.17 	0.053103 	4350 	0.052295
34.19 	0.058230 	4362 	0.057290
34.21 	0.057653 	4371 	0.056715
34.23 	0.051901 	4393 	0.051101
34.25 	0.066757 	4404 	0.065427
34.27 	0.055857 	4422 	0.055062
34.29 	0.061781 	4435 	0.060835
34.31 	0.059892 	4458 	0.058447
34.33 	0.063968 	4471 	0.062658
34.35 	0.054416 	4484 	0.053240
34.37 	0.062792 	4491 	0.061597
34.39 	0.056864 	4502 	0.055281
34.41 	0.057225 	4526 	0.056190
34.43 	0.061247 	4539 	0.059956
34.45 	0.059096 	4535 	0.058708
34.47 	0.059451 	4592 	0.058176
34.49 	0.061562 	4597 	0.060542
34.51 	0.061007 	4606 	0.060096
34.53 	0.055998 	4643 	0.054989
34.55 	0.060090 	4643 	0.059081
34.57 	0.060515 	4660 	0.059509
34.59 	0.057540 	4675 	0.055891
34.61 	0.059187 	4697 	0.057670
34.63 	0.051168 	4710 	0.050670
34.65 	0.056979 	4721 	0.056111
34.67 	0.057161 	4741 	0.056172
34.69 	0.061632 	4754 	0.059887
34.71 	0.056861 	4766 	0.056124
34.73 	0.052225 	4787 	0.051123
34.75 	0.058652 	4808 	0.057556
34.77 	0.061021 	4818 	0.060049
34.79 	0.056799 	4824 	0.055706
34.81 	0.055728 	4845 	0.054881
34.83 	0.058618 	4862 	0.057654
34.85 	0.065927 	4869 	0.064965
34.87 	0.064708 	4868 	0.063866
34.89 	0.059197 	4882 	0.058097
34.91 	0.061041 	4882 	0.059681
34.93 	0.067157 	4899 	0.066559
34.95 	0.064826 	4890 	0.063508
34.97 	0.066503 	4902 	0.065189
34.99 	0.060241 	4897 	0.059164
35.01 	0.055657 	4923 	0.054924
35.03 	0.061703 	4943 	0.060637
35.05 	0.060036 	4947 	0.059444
35.07 	0.064575 	4940 	0.063508
35.09 	0.063194 	4953 	0.060947
35.11 	0.060441 	4947 	0.059119
35.13 	0.062324 	4958 	0.061142
35.15 	0.060766 	4937 	0.060172
35.17 	0.060049 	4946 	0.058371
35.19 	0.059288 	4942 	0.058695
35.21 	0.055612 	4945 	0.055019
35.23 	0.057027 	4945 	0.056672
35.25 	0.057253 	4943 	0.056542
35.27 	0.066087 	4948 	0.065022
35.29 	0.060667 	4945 	0.059601
35.31 	0.061626 	4933 	0.060557
35.33 	0.056443 	4943 	0.055614
35.35 	0.056455 	4942 	0.055507
35.37 	0.057299 	4939 	0.056331
35.39 	0.055207 	4945 	0.053786
35.41 	0.059683 	4926 	0.058851
35.43 	0.058382 	4933 	0.057789
35.45 	0.057525 	4937 	0.055963
35.47 	0.060028 	4931 	0.058702
35.49 	0.060285 	4910 	0.059072
35.51 	0.055420 	4926 	0.054588
35.53 	0.059406 	4949 	0.058321
35.55 	0.060870 	4945 	0.059567
35.57 	0.056152 	4933 	0.055677
35.59 	0.062083 	4945 	0.061017
35.61 	0.062728 	4942 	0.061779
35.63 	0.057657 	4943 	0.056808
35.65 	0.059252 	4945 	0.058166
35.67 	0.058883 	4942 	0.058172
35.69 	0.064699 	4946 	0.062922
35.71 	0.063399 	4937 	0.061936
35.73 	0.060373 	4936 	0.059305
35.75 	0.063476 	4931 	0.062288
35.77 	0.064431 	4951 	0.063367
35.79 	0.061638 	4932 	0.060451
35.81 	0.062234 	4933 	0.060571
35.83 	0.060655 	4946 	0.059352
35.85 	0.060790 	4935 	0.059722
35.87 	0.057688 	4923 	0.057212
35.89 	0.062019 	4934 	0.061306
35.91 	0.067587 	4927 	0.066160
35.93 	0.060280 	4927 	0.059567
35.95 	0.060809 	4917 	0.059975
35.97 	0.059039 	4912 	0.057569
35.99 	0.055072 	4939 	0.054479
36.01 	0.058621 	4930 	0.057195
36.03 	0.060085 	4943 	0.058999
36.05 	0.057230 	4945 	0.056637
36.07 	0.053047 	4939 	0.052217
36.09 	0.058502 	4940 	0.057435
36.11 	0.054981 	4929 	0.054387
36.13 	0.066977 	4942 	0.065317
36.15 	0.061956 	4939 	0.060770
36.17 	0.061523 	4925 	0.060096
36.19 	0.064575 	4940 	0.063508
36.21 	0.057212 	4929 	0.055480
36.23 	0.061601 	4935 	0.059820
36.25 	0.058693 	4941 	0.056628
36.27 	0.058477 	4925 	0.057526
36.29 	0.060637 	4931 	0.059924
36.31 	0.060065 	4928 	0.058995
36.33 	0.056558 	4933 	0.055845
36.35 	0.062690 	4929 	0.061858
36.37 	0.064189 	4923 	0.062880
36.39 	0.061370 	4921 	0.059584
36.41 	0.060253 	4896 	0.058559
36.43 	0.056412 	4928 	0.054729
36.45 	0.054970 	4930 	0.054732
36.47 	0.055105 	4936 	0.054393
36.49 	0.062121 	4942 	0.061153
36.51 	0.055139 	4933 	0.054051
36.53 	0.057860 	4943 	0.056438
36.55 	0.054191 	4927 	0.053478
36.57 	0.055938 	4934 	0.055463
36.59 	0.052845 	4939 	0.052726
36.61 	0.058812 	4931 	0.058455
36.63 	0.056784 	4931 	0.055932
36.65 	0.055150 	4932 	0.054556
36.67 	0.060041 	4930 	0.058852
36.69 	0.059850 	4929 	0.059236
36.71 	0.062995 	4921 	0.060803
36.73 	0.055431 	4925 	0.054480
36.75 	0.051982 	4944 	0.051271
36.77 	0.048384 	4919 	0.047907
36.79 	0.065840 	4921 	0.065007
36.81 	0.057974 	4916 	0.056763
36.83 	0.052899 	4915 	0.052542
36.85 	0.055533 	4898 	0.054815
36.87 	0.052387 	4944 	0.052031
36.89 	0.055126 	4916 	0.054173
36.91 	0.059300 	4941 	0.058470
36.93 	0.067343 	4930 	0.065798
36.95 	0.051085 	4933 	0.050372
36.97 	0.050669 	4934 	0.049838
36.99 	0.060993 	4935 	0.060399
37.01 	0.058180 	4933 	0.056992
37.03 	0.057474 	4924 	0.056165
37.05 	0.051147 	4927 	0.050077
37.07 	0.052280 	4935 	0.051211
37.09 	0.056615 	4928 	0.055070
37.11 	0.052482 	4935 	0.050820
37.13 	0.053209 	4924 	0.052376
37.15 	0.052557 	4909 	0.052079
37.17 	0.056546 	4934 	0.055340
37.19 	0.054213 	4925 	0.053737
37.21 	0.054912 	4917 	0.054078
37.23 	0.056730 	4918 	0.056016
37.25 	0.050295 	4911 	0.049580
37.27 	0.052105 	4894 	0.051746
37.29 	0.052130 	4930 	0.051417
37.31 	0.060993 	4935 	0.059925
37.33 	0.051350 	4927 	0.050874
37.35 	0.057716 	4938 	0.056885
37.37 	0.054800 	4927 	0.054206
37.39 	0.053133 	4931 	0.051807
37.41 	0.054756 	4931 	0.053805
37.43 	0.055961 	4932 	0.055248
37.45 	0.053818 	4924 	0.053104
37.47 	0.060661 	4929 	0.059354
37.49 	0.053423 	4923 	0.053185
37.51 	0.056963 	4933 	0.055875
37.53 	0.059565 	4919 	0.058017
37.55 	0.054767 	4930 	0.054173
37.57 	0.050761 	4925 	0.049433
37.59 	0.054527 	4915 	0.053454
37.61 	0.055262 	4922 	0.054191
37.63 	0.055296 	4919 	0.054343
37.65 	0.049410 	4918 	0.047862
37.67 	0.046697 	4904 	0.045741
37.69 	0.053695 	4898 	0.052858
37.71 	0.055184 	4929 	0.054471
37.73 	0.048691 	4929 	0.047860
37.75 	0.053846 	4940 	0.052779
37.77 	0.054675 	4920 	0.053484
37.79 	0.046653 	4930 	0.046158
37.81 	0.050882 	4933 	0.050051
37.83 	0.052236 	4920 	0.051760
37.85 	0.054449 	4922 	0.053597
37.87 	0.050618 	4939 	0.050025
37.89 	0.055635 	4925 	0.055159
37.91 	0.054767 	4930 	0.053579
37.93 	0.053466 	4919 	0.053228
37.95 	0.054460 	4921 	0.053865
37.97 	0.055589 	4929 	0.054995
37.99 	0.056393 	4912 	0.055319
38.01 	0.056818 	4928 	0.056105
38.03 	0.057038 	4909 	0.056561
38.05 	0.050558 	4925 	0.049607
38.07 	0.053371 	4909 	0.052297
38.09 	0.058221 	4878 	0.057360
38.11 	0.058967 	4935 	0.057542
38.13 	0.054892 	4937 	0.054298
38.15 	0.052867 	4918 	0.051656
38.17 	0.055984 	4930 	0.055152
38.19 	0.056389 	4930 	0.055795
38.21 	0.054641 	4923 	0.053313
38.23 	0.059538 	4938 	0.058471
38.25 	0.052674 	4917 	0.052198
38.27 	0.049290 	4930 	0.048815
38.29 	0.052803 	4924 	0.052446
38.31 	0.053176 	4927 	0.052582
38.33 	0.061535 	4924 	0.060822
38.35 	0.060471 	4928 	0.059401
38.37 	0.059911 	4924 	0.058840
38.39 	0.065390 	4909 	0.064913
38.41 	0.062563 	4923 	0.061850
38.43 	0.056347 	4916 	0.055632
38.45 	0.059374 	4918 	0.058421
38.47 	0.064602 	4907 	0.063885
38.49 	0.062949 	4877 	0.061988
38.51 	0.062247 	4932 	0.060564
38.53 	0.053358 	4929 	0.052526
38.55 	0.063412 	4936 	0.062087
38.57 	0.062970 	4923 	0.062256
38.59 	0.058286 	4924 	0.057215
38.61 	0.064222 	4936 	0.063273
38.63 	0.061332 	4924 	0.060123
38.65 	0.056934 	4918 	0.056219
38.67 	0.061981 	4937 	0.060083
38.69 	0.056075 	4922 	0.055004
38.71 	0.051990 	4924 	0.051395
38.73 	0.059374 	4918 	0.057825
38.75 	0.053379 	4927 	0.052309
38.77 	0.053016 	4923 	0.052659
38.79 	0.055533 	4934 	0.054821
38.81 	0.052321 	4912 	0.051367
38.83 	0.052856 	4919 	0.052023
38.85 	0.061686 	4912 	0.060612
38.87 	0.051924 	4911 	0.050851
38.89 	0.053094 	4897 	0.051419
38.91 	0.056496 	4903 	0.055062
38.93 	0.051843 	4938 	0.051250
38.95 	0.050427 	4918 	0.049712
38.97 	0.053539 	4931 	0.052588
38.99 	0.049423 	4937 	0.049067
39.01 	0.050224 	4918 	0.049390
39.03 	0.050466 	4934 	0.049398
39.05 	0.053198 	4925 	0.052227
39.07 	0.056255 	4924 	0.055422
39.09 	0.052407 	4923 	0.051793
39.11 	0.051916 	4931 	0.051441
39.13 	0.049970 	4923 	0.049613
39.15 	0.047406 	4915 	0.046572
39.17 	0.049828 	4937 	0.048760
39.19 	0.049420 	4917 	0.048706
39.21 	0.046436 	4910 	0.045481
39.23 	0.048325 	4925 	0.047373
39.25 	0.048151 	4922 	0.047080
39.27 	0.046029 	4910 	0.045074
39.29 	0.052234 	4901 	0.051278
39.31 	0.046274 	4884 	0.045674
39.33 	0.043196 	4931 	0.042365
39.35 	0.050051 	4935 	0.049220
39.37 	0.055184 	4929 	0.054589
39.39 	0.043822 	4929 	0.043109
39.41 	0.046441 	4931 	0.045491
39.43 	0.054328 	4933 	0.053378
39.45 	0.045888 	4925 	0.045769
39.47 	0.053626 	4923 	0.052674
39.49 	0.049057 	4933 	0.047969
39.51 	0.049553 	4924 	0.049196
39.53 	0.047532 	4923 	0.046937
39.55 	0.044928 	4919 	0.044213
39.57 	0.048044 	4933 	0.047450
39.59 	0.054560 	4912 	0.054083
39.61 	0.046313 	4923 	0.045599
39.63 	0.049777 	4922 	0.049062
39.65 	0.047503 	4926 	0.047384
39.67 	0.047222 	4913 	0.046864
39.69 	0.049024 	4916 	0.048666
39.71 	0.049438 	4895 	0.048481
39.73 	0.047270 	4908 	0.046434
39.75 	0.044846 	4928 	0.044489
39.77 	0.050051 	4935 	0.049457
39.79 	0.051157 	4926 	0.050563
39.81 	0.048305 	4927 	0.047830
39.83 	0.049858 	4934 	0.049502
39.85 	0.046479 	4927 	0.045627
39.87 	0.047716 	4925 	0.047121
39.89 	0.046413 	4934 	0.045819
39.91 	0.049573 	4922 	0.048859
39.93 	0.047397 	4937 	0.046685
39.95 	0.048220 	4915 	0.047862
39.97 	0.048295 	4928 	0.047107
39.99 	0.044809 	4932 	0.043958
40.01 	0.045750 	4918 	0.044678
40.03 	0.054586 	4928 	0.053397
40.05 	0.047387 	4917 	0.046672
40.07 	0.048751 	4923 	0.048632
40.09 	0.047193 	4916 	0.046359
40.11 	0.053906 	4916 	0.052714
40.13 	0.046569 	4896 	0.045851
40.15 	0.046611 	4913 	0.046373
40.17 	0.042005 	4928 	0.041054
40.19 	0.048691 	4929 	0.048078
40.21 	0.048024 	4935 	0.047312
40.23 	0.052109 	4932 	0.051396
40.25 	0.051220 	4920 	0.049910
40.27 	0.047802 	4937 	0.047090
40.29 	0.047696 	4927 	0.047102
40.31 	0.044948 	4939 	0.044118
40.33 	0.043796 	4932 	0.042945
40.35 	0.043098 	4919 	0.042741
40.37 	0.041793 	4929 	0.041437
40.39 	0.042385 	4931 	0.041910
40.41 	0.050355 	4925 	0.049880
40.43 	0.044291 	4922 	0.044053
40.45 	0.046625 	4933 	0.046269
40.47 	0.044327 	4918 	0.043970
40.49 	0.046488 	4926 	0.045041
40.51 	0.046526 	4922 	0.045931
40.53 	0.044345 	4916 	0.043868
40.55 	0.046862 	4908 	0.046743
40.57 	0.045399 	4890 	0.045039
40.59 	0.043144 	4937 	0.042550
40.61 	0.039919 	4935 	0.038969
40.63 	0.049087 	4930 	0.048612
40.65 	0.042941 	4937 	0.042466
40.67 	0.041768 	4932 	0.041412
40.69 	0.045979 	4937 	0.045505
40.71 	0.042376 	4932 	0.042258
40.73 	0.046082 	4926 	0.045844
40.75 	0.043805 	4931 	0.043329
40.77 	0.048390 	4939 	0.047797
40.79 	0.041633 	4924 	0.041276
40.81 	0.044121 	4941 	0.043390
40.83 	0.041193 	4928 	0.041074
40.85 	0.044882 	4924 	0.043693
40.87 	0.048498 	4928 	0.047785
40.89 	0.040154 	4931 	0.039441
40.91 	0.047938 	4923 	0.046848
40.93 	0.050263 	4934 	0.049769
40.95 	0.043151 	4913 	0.042435
40.97 	0.050162 	4924 	0.049687
40.99 	0.048538 	4924 	0.048538
41.01 	0.047435 	4912 	0.046958
41.03 	0.041182 	4905 	0.040824
41.05 	0.047407 	4936 	0.046101
41.07 	0.054970 	4930 	0.053148
41.09 	0.051225 	4939 	0.050988
41.11 	0.041743 	4935 	0.041505
41.13 	0.043355 	4936 	0.042524
41.15 	0.049180 	4941 	0.048113
41.17 	0.047426 	4934 	0.047070
41.19 	0.047870 	4930 	0.047038
41.21 	0.046384 	4937 	0.046028
41.23 	0.049403 	4939 	0.049047
41.25 	0.050476 	4933 	0.049507
41.27 	0.045224 	4931 	0.044274
41.29 	0.042411 	4928 	0.041460
41.31 	0.048449 	4933 	0.047618
41.33 	0.049828 	4937 	0.049116
41.35 	0.044147 	4938 	0.043317
41.37 	0.044273 	4924 	0.043678
41.39 	0.047841 	4933 	0.047129
41.41 	0.041210 	4926 	0.040853
41.43 	0.048083 	4929 	0.047607
41.45 	0.047823 	4914 	0.047584
41.47 	0.042834 	4926 	0.042120
41.49 	0.044154 	4892 	0.043435
41.51 	0.050810 	4940 	0.049861
41.53 	0.046723 	4944 	0.046368
41.55 	0.046201 	4935 	0.045251
41.57 	0.043109 	4941 	0.042753
41.59 	0.042976 	4933 	0.042382
41.61 	0.047648 	4953 	0.047530
41.63 	0.046983 	4938 	0.046389
41.65 	0.042605 	4929 	0.042367
41.67 	0.043927 	4940 	0.043097
41.69 	0.045684 	4947 	0.044974
41.71 	0.042359 	4934 	0.042003
41.73 	0.046191 	4936 	0.046073
41.75 	0.037533 	4929 	0.036939
41.77 	0.042502 	4941 	0.041672
41.79 	0.044903 	4944 	0.044192
41.81 	0.045989 	4936 	0.045277
41.83 	0.045049 	4928 	0.044692
41.85 	0.038267 	4939 	0.037555
41.87 	0.044377 	4935 	0.043783
41.89 	0.042773 	4933 	0.042061
41.91 	0.045178 	4936 	0.044585
41.93 	0.050284 	4932 	0.049552
41.95 	0.042993 	4931 	0.042399
41.97 	0.044567 	4914 	0.044328
41.99 	0.037513 	4905 	0.036916
42.01 	0.046742 	4942 	0.046130
42.03 	0.044341 	4939 	0.043748
42.05 	0.043821 	4952 	0.043348
42.07 	0.047397 	4937 	0.046804
42.09 	0.039410 	4948 	0.039291
42.11 	0.049141 	4945 	0.047956
42.13 	0.042265 	4945 	0.041436
42.15 	0.047388 	4938 	0.046320
42.17 	0.044734 	4918 	0.044019
42.19 	0.044010 	4908 	0.043174
42.21 	0.043052 	4901 	0.042455
42.23 	0.045585 	4892 	0.044866
42.25 	0.043976 	4889 	0.043257
42.27 	0.040419 	4874 	0.039457
42.29 	0.040510 	4863 	0.039647
42.31 	0.041813 	4855 	0.040968
42.33 	0.045097 	4834 	0.044128
42.35 	0.044233 	4838 	0.043628
42.37 	0.040580 	4830 	0.039852
42.39 	0.047044 	4804 	0.046556
42.41 	0.045171 	4804 	0.044439
42.43 	0.045284 	4792 	0.044428
42.45 	0.041457 	4776 	0.040967
42.47 	0.046380 	4765 	0.045642
42.49 	0.045540 	4765 	0.045172
42.51 	0.039005 	4743 	0.038511
42.53 	0.042724 	4728 	0.042229
42.55 	0.045455 	4708 	0.044832
42.57 	0.044397 	4730 	0.044026
42.59 	0.047790 	4729 	0.047666
42.61 	0.043331 	4708 	0.042957
42.63 	0.042260 	4709 	0.042011
42.65 	0.049520 	4685 	0.048645
42.67 	0.043339 	4684 	0.043089
42.69 	0.047711 	4674 	0.047084
42.71 	0.040746 	4663 	0.040495
42.73 	0.042241 	4640 	0.041863
42.75 	0.048733 	4617 	0.048225
42.77 	0.038913 	4600 	0.037640
42.79 	0.042776 	4582 	0.042648
42.81 	0.049759 	4562 	0.049117
42.83 	0.037698 	4536 	0.037161
42.85 	0.043728 	4528 	0.042952
42.87 	0.040231 	4499 	0.039841
42.89 	0.039955 	4480 	0.039563
42.91 	0.042864 	4456 	0.042469
42.93 	0.041610 	4446 	0.041479
42.95 	0.044611 	4416 	0.043240
42.97 	0.042718 	4401 	0.042584
42.99 	0.047206 	4385 	0.046806
43.01 	0.044236 	4363 	0.043430
43.03 	0.043388 	4333 	0.042982
43.05 	0.043006 	4325 	0.042464
43.07 	0.041201 	4296 	0.040928
43.09 	0.039692 	4283 	0.038734
43.11 	0.037133 	4255 	0.036720
43.13 	0.044135 	4237 	0.043582
43.15 	0.039705 	4206 	0.039427
43.17 	0.043551 	4179 	0.042990
43.19 	0.046018 	4194 	0.045320
43.21 	0.047459 	4172 	0.046898
43.23 	0.034906 	4154 	0.034906
43.25 	0.040387 	4135 	0.040104
43.27 	0.038490 	4105 	0.038204
43.29 	0.042195 	4100 	0.041624
43.31 	0.038980 	4079 	0.038693
43.33 	0.045668 	4051 	0.044921
43.35 	0.046131 	4032 	0.045840
43.37 	0.047073 	4015 	0.046490
43.39 	0.044978 	4002 	0.044392
43.41 	0.042044 	3972 	0.041749
43.43 	0.044697 	3960 	0.044253
43.45 	0.041931 	3935 	0.041038
43.47 	0.041316 	3921 	0.040868
43.49 	0.039261 	3897 	0.039111
43.51 	0.037658 	3877 	0.036903
43.53 	0.037277 	3863 	0.037277
43.55 	0.041835 	2964 	0.041638
43.57 	0.047364 	2238 	0.047102
43.59 	0.042383 	1746 	0.042047
43.61 	0.035529 	1351 	0.035096
43.63 	0.033966 	1001 	0.033966
43.65 	0.043668 	687 	0.043668
43.67 	0.039841 	502 	0.038674
43.69 	0.040872 	367 	0.040872
43.71 	0.037657 	239 	0.037657
43.73 	0.033333 	120 	0.033333
43.75 	0.000000 	16 	0.000000