File: Example_Data/25SC_s1_0028.003.dat
#F C:\frames\spec\25SC_s1_0028.003
#C title =s:28 frm:3 25SC_s1
#C wavelength =0.15406

#S 1  fr_average C:\frames\spec\25SC_s1_0028.003 C:\win32app\speccom\mask.axs chi 0 180 0 360 0.02
#C 2 theta =0.000000 to 180 deg
#C   q   =0.000000 to 81.568 nm^-1
#C  chi  =0.000000 to 360 deg
#C collumns:
#C  1 position (2theta or chi in degrees)
#C  2 average intensity (sum of all counts in the region divided with number of pixels)
#C  3 Number of pixels in region)
#C  4 error (sum of sqrt(intensity) for all pixels divided by number)
#N 4
#L TTh  Int  N_pix  Err
32.99 	0.049180 	61 	0.049180
33.01 	0.052692 	873 	0.051350
33.03 	0.066139 	1391 	0.065297
33.05 	0.063176 	1757 	0.062842
33.07 	0.061463 	2050 	0.060035
33.09 	0.063485 	2347 	0.062237
33.11 	0.059325 	2579 	0.058417
33.13 	0.060150 	2793 	0.059311
33.15 	0.052684 	2999 	0.051708
33.17 	0.062168 	3201 	0.061619
33.19 	0.056254 	3342 	0.055202
33.21 	0.059662 	3436 	0.058980
33.23 	0.060744 	3523 	0.059912
33.25 	0.060078 	3612 	0.059267
33.27 	0.063636 	3630 	0.061861
33.29 	0.056469 	3648 	0.055827
33.31 	0.053825 	3660 	0.053505
33.33 	0.056158 	3686 	0.054887
33.35 	0.058202 	3694 	0.057568
33.37 	0.060582 	3714 	0.059951
33.39 	0.063288 	3729 	0.062345
33.41 	0.052406 	3740 	0.052406
33.43 	0.053709 	3761 	0.052930
33.45 	0.053803 	3773 	0.053027
33.47 	0.056082 	3798 	0.054694
33.49 	0.060383 	3809 	0.059307
33.51 	0.055046 	3815 	0.053664
33.53 	0.058058 	3841 	0.057295
33.55 	0.063232 	3843 	0.062012
33.57 	0.052102 	3877 	0.051347
33.59 	0.062113 	3880 	0.060755
33.61 	0.059606 	3909 	0.058257
33.63 	0.053075 	3919 	0.052028
33.65 	0.065378 	3931 	0.064633
33.67 	0.057916 	3954 	0.056435
33.69 	0.059701 	3953 	0.058961
33.71 	0.063899 	3975 	0.062549
33.73 	0.057443 	4004 	0.056418
33.75 	0.062266 	3999 	0.061240
33.77 	0.058385 	4025 	0.057803
33.79 	0.061866 	4041 	0.060416
33.81 	0.055473 	4038 	0.054603
33.83 	0.061481 	4050 	0.059746
33.85 	0.067821 	4099 	0.065940
33.87 	0.057893 	4111 	0.057039
33.89 	0.058724 	4121 	0.057871
33.91 	0.063389 	4149 	0.061977
33.93 	0.063599 	4151 	0.062165
33.95 	0.065535 	4181 	0.064133
33.97 	0.055609 	4190 	0.054490
33.99 	0.062143 	4200 	0.061144
34.01 	0.060052 	4213 	0.058940
34.03 	0.057257 	4244 	0.056291
34.05 	0.053857 	4252 	0.053030
34.07 	0.058341 	4268 	0.057380
34.09 	0.060429 	4286 	0.059883
34.11 	0.063226 	4302 	0.062409
34.13 	0.058032 	4308 	0.057216
34.15 	0.071115 	4331 	0.070168
34.17 	0.055402 	4350 	0.054460
34.19 	0.058689 	4362 	0.057614
34.21 	0.064974 	4371 	0.063634
34.23 	0.056681 	4393 	0.056014
34.25 	0.063806 	4404 	0.063008
34.27 	0.055179 	4422 	0.054384
34.29 	0.058850 	4435 	0.058322
34.31 	0.057201 	4458 	0.056149
34.33 	0.055692 	4471 	0.054775
34.35 	0.051517 	4484 	0.050341
34.37 	0.055667 	4491 	0.054493
34.39 	0.048423 	4502 	0.047361
34.41 	0.062307 	4526 	0.061012
34.43 	0.057502 	4539 	0.056469
34.45 	0.057993 	4535 	0.057735
34.47 	0.062064 	4592 	0.060513
34.49 	0.055688 	4597 	0.054796
34.51 	0.059705 	4606 	0.059196
34.53 	0.052552 	4643 	0.051795
34.55 	0.053198 	4643 	0.052189
34.57 	0.056009 	4660 	0.055003
34.59 	0.050053 	4675 	0.049427
34.61 	0.063445 	4697 	0.062696
34.63 	0.059448 	4710 	0.058453
34.65 	0.052955 	4721 	0.051818
34.67 	0.059270 	4741 	0.058282
34.69 	0.061422 	4754 	0.060806
34.71 	0.064834 	4766 	0.063728
34.73 	0.057865 	4787 	0.057131
34.75 	0.059900 	4808 	0.058925
34.77 	0.056040 	4818 	0.055189
34.79 	0.054934 	4824 	0.054691
34.81 	0.058617 	4845 	0.058013
34.83 	0.060880 	4862 	0.059415
34.85 	0.054631 	4869 	0.053428
34.87 	0.058751 	4868 	0.058149
34.89 	0.056329 	4882 	0.055729
34.91 	0.060426 	4882 	0.059086
34.93 	0.061237 	4899 	0.060041
34.95 	0.052965 	4890 	0.052246
34.97 	0.063647 	4902 	0.062691
34.99 	0.052481 	4897 	0.052242
35.01 	0.050173 	4923 	0.049221
35.03 	0.060085 	4943 	0.059255
35.05 	0.060643 	4947 	0.059577
35.07 	0.058502 	4940 	0.057909
35.09 	0.053503 	4953 	0.052912
35.11 	0.060239 	4947 	0.059646
35.13 	0.058088 	4958 	0.057615
35.15 	0.061373 	4937 	0.060424
35.17 	0.059644 	4946 	0.058559
35.19 	0.063132 	4942 	0.061828
35.21 	0.058645 	4945 	0.057816
35.23 	0.057634 	4945 	0.056785
35.25 	0.060490 	4943 	0.059423
35.27 	0.061035 	4948 	0.059614
35.29 	0.058645 	4945 	0.057816
35.31 	0.051693 	4933 	0.051218
35.33 	0.061906 	4943 	0.060721
35.35 	0.055645 	4942 	0.055171
35.37 	0.055679 	4939 	0.054830
35.39 	0.062285 	4945 	0.061456
35.41 	0.052375 	4926 	0.051781
35.43 	0.056963 	4933 	0.055756
35.45 	0.062184 	4937 	0.061234
35.47 	0.057189 	4931 	0.056833
35.49 	0.060692 	4910 	0.058764
35.51 	0.061104 	4926 	0.060034
35.53 	0.051323 	4949 	0.050377
35.55 	0.060061 	4945 	0.058995
35.57 	0.056558 	4933 	0.055964
35.59 	0.058645 	4945 	0.057816
35.61 	0.058681 	4942 	0.057970
35.63 	0.052195 	4943 	0.051721
35.65 	0.067139 	4945 	0.065954
35.67 	0.060097 	4942 	0.059267
35.69 	0.055196 	4946 	0.053874
35.71 	0.055094 	4937 	0.054145
35.73 	0.056524 	4936 	0.055455
35.75 	0.058609 	4931 	0.057777
35.77 	0.050697 	4951 	0.050224
35.79 	0.048865 	4932 	0.048152
35.81 	0.058382 	4933 	0.057670
35.83 	0.055803 	4946 	0.055210
35.85 	0.054711 	4935 	0.054118
35.87 	0.059923 	4923 	0.058852
35.89 	0.055330 	4934 	0.054855
35.91 	0.051350 	4927 	0.050399
35.93 	0.057439 	4927 	0.056706
35.95 	0.057352 	4917 	0.056280
35.97 	0.052524 	4912 	0.052167
35.99 	0.052035 	4939 	0.051205
36.01 	0.058418 	4930 	0.057824
36.03 	0.059276 	4943 	0.058565
36.05 	0.051769 	4945 	0.050703
36.07 	0.062361 	4939 	0.061175
36.09 	0.066397 	4940 	0.065567
36.11 	0.051532 	4929 	0.050700
36.13 	0.054634 	4942 	0.053310
36.15 	0.058919 	4939 	0.057239
36.17 	0.058680 	4925 	0.056599
36.19 	0.059312 	4940 	0.058719
36.21 	0.063299 	4929 	0.061873
36.23 	0.050861 	4935 	0.050030
36.25 	0.056264 	4941 	0.055078
36.27 	0.051168 	4925 	0.050454
36.29 	0.055161 	4931 	0.054567
36.31 	0.055195 	4928 	0.054482
36.33 	0.058180 	4933 	0.057230
36.35 	0.058835 	4929 	0.057627
36.37 	0.054235 	4923 	0.053640
36.39 	0.051006 	4921 	0.050153
36.41 	0.055147 	4896 	0.054190
36.43 	0.051948 	4928 	0.051473
36.45 	0.053955 	4930 	0.053005
36.47 	0.055713 	4936 	0.054764
36.49 	0.055848 	4942 	0.054781
36.51 	0.060004 	4933 	0.059153
36.53 	0.047137 	4943 	0.046663
36.55 	0.050335 	4927 	0.049364
36.57 	0.052290 	4934 	0.051697
36.59 	0.050820 	4939 	0.050108
36.61 	0.058406 	4931 	0.056723
36.63 	0.055161 	4931 	0.054686
36.65 	0.053122 	4932 	0.052172
36.67 	0.055172 	4930 	0.054816
36.69 	0.057010 	4929 	0.055702
36.71 	0.058118 	4921 	0.056928
36.73 	0.060914 	4925 	0.059605
36.75 	0.057241 	4944 	0.056412
36.77 	0.051433 	4919 	0.050818
36.79 	0.054460 	4921 	0.053508
36.81 	0.052278 	4916 	0.051563
36.83 	0.050458 	4915 	0.050100
36.85 	0.053287 	4898 	0.052091
36.87 	0.060477 	4944 	0.058799
36.89 	0.046583 	4916 	0.046106
36.91 	0.055657 	4941 	0.054945
36.93 	0.049290 	4930 	0.048458
36.95 	0.047841 	4933 	0.047129
36.97 	0.051074 	4934 	0.050718
36.99 	0.055522 	4935 	0.054572
37.01 	0.054936 	4933 	0.054224
37.03 	0.050162 	4924 	0.049806
37.05 	0.057642 	4927 	0.056809
37.07 	0.050861 	4935 	0.050248
37.09 	0.054586 	4928 	0.053992
37.11 	0.049848 	4935 	0.049492
37.13 	0.050366 	4924 	0.049533
37.15 	0.056223 	4909 	0.055349
37.17 	0.050872 	4934 	0.049783
37.19 	0.051777 	4925 	0.051063
37.21 	0.051861 	4917 	0.051265
37.23 	0.054697 	4918 	0.053982
37.25 	0.051110 	4911 	0.050633
37.27 	0.050674 	4894 	0.050196
37.29 	0.056795 	4930 	0.055963
37.31 	0.057143 	4935 	0.056549
37.33 	0.050335 	4927 	0.049503
37.35 	0.052045 	4938 	0.051215
37.37 	0.052162 	4927 	0.051567
37.39 	0.049483 	4931 	0.049008
37.41 	0.051105 	4931 	0.050511
37.43 	0.051298 	4932 	0.050941
37.45 	0.048944 	4924 	0.048706
37.47 	0.053358 	4929 	0.052407
37.49 	0.048751 	4923 	0.047561
37.51 	0.054936 	4933 	0.053986
37.53 	0.053873 	4919 	0.052920
37.55 	0.053144 	4930 	0.052431
37.57 	0.051777 	4925 	0.051301
37.59 	0.051272 	4915 	0.049961
37.61 	0.045916 	4922 	0.045440
37.63 	0.047571 	4919 	0.046737
37.65 	0.054087 	4918 	0.053015
37.67 	0.052814 	4904 	0.051739
37.69 	0.049204 	4898 	0.048127
37.71 	0.060459 	4929 	0.059270
37.73 	0.051126 	4929 	0.049819
37.75 	0.049595 	4940 	0.049002
37.77 	0.056707 	4920 	0.055279
37.79 	0.047667 	4930 	0.046578
37.81 	0.049666 	4933 	0.048834
37.83 	0.047358 	4920 	0.047120
37.85 	0.045713 	4922 	0.045475
37.87 	0.053857 	4939 	0.052790
37.89 	0.042030 	4925 	0.041674
37.91 	0.053955 	4930 	0.052510
37.93 	0.049807 	4919 	0.049331
37.95 	0.048567 	4921 	0.048091
37.97 	0.051126 	4929 	0.050532
37.99 	0.048046 	4912 	0.047330
38.01 	0.059253 	4928 	0.058778
38.03 	0.055205 	4909 	0.054727
38.05 	0.049543 	4925 	0.049067
38.07 	0.052149 	4909 	0.050359
38.09 	0.052891 	4878 	0.052530
38.11 	0.056332 	4935 	0.055145
38.13 	0.053879 	4937 	0.052930
38.15 	0.055714 	4918 	0.054860
38.17 	0.050710 	4930 	0.049878
38.19 	0.055172 	4930 	0.054341
38.21 	0.049360 	4923 	0.048765
38.23 	0.051640 	4938 	0.050573
38.25 	0.054301 	4917 	0.053706
38.27 	0.054158 	4930 	0.053445
38.29 	0.053818 	4924 	0.052747
38.31 	0.061498 	4927 	0.060428
38.33 	0.057880 	4924 	0.056571
38.35 	0.056615 	4928 	0.055545
38.37 	0.056052 	4924 	0.055338
38.39 	0.060705 	4909 	0.059273
38.41 	0.056267 	4923 	0.055553
38.43 	0.056347 	4916 	0.055751
38.45 	0.069134 	4918 	0.068280
38.47 	0.055431 	4907 	0.054954
38.49 	0.059463 	4877 	0.058242
38.51 	0.056569 	4932 	0.056094
38.53 	0.052546 	4929 	0.051358
38.55 	0.054295 	4936 	0.053583
38.57 	0.060329 	4923 	0.059734
38.59 	0.053615 	4924 	0.052901
38.61 	0.056929 	4936 	0.055861
38.63 	0.055849 	4924 	0.054897
38.65 	0.053680 	4918 	0.052489
38.67 	0.051853 	4937 	0.050885
38.69 	0.054653 	4922 	0.053700
38.71 	0.057271 	4924 	0.056319
38.73 	0.049410 	4918 	0.048696
38.75 	0.045667 	4927 	0.044597
38.77 	0.057079 	4923 	0.055889
38.79 	0.055533 	4934 	0.054702
38.81 	0.044992 	4912 	0.044157
38.83 	0.053060 	4919 	0.052583
38.85 	0.050896 	4912 	0.050399
38.87 	0.050092 	4911 	0.049257
38.89 	0.050439 	4897 	0.049961
38.91 	0.050377 	4903 	0.049422
38.93 	0.047793 	4938 	0.047081
38.95 	0.049817 	4918 	0.048745
38.97 	0.054147 	4931 	0.053078
38.99 	0.045574 	4937 	0.044862
39.01 	0.047987 	4918 	0.047511
39.03 	0.046007 	4934 	0.045651
39.05 	0.041218 	4925 	0.040743
39.07 	0.045085 	4924 	0.044728
39.09 	0.050782 	4923 	0.050068
39.11 	0.046846 	4931 	0.046371
39.13 	0.047735 	4923 	0.047497
39.15 	0.047609 	4915 	0.047371
39.17 	0.051043 	4937 	0.050450
39.19 	0.052268 	4917 	0.051553
39.21 	0.046843 	4910 	0.046108
39.23 	0.046904 	4925 	0.046309
39.25 	0.045713 	4922 	0.044979
39.27 	0.048473 	4910 	0.048234
39.29 	0.051010 	4901 	0.049934
39.31 	0.047912 	4884 	0.047312
39.33 	0.046238 	4931 	0.045644
39.35 	0.050861 	4935 	0.050386
39.37 	0.049503 	4929 	0.048552
39.39 	0.048083 	4929 	0.047370
39.41 	0.050294 	4931 	0.049819
39.43 	0.043381 	4933 	0.042531
39.45 	0.046701 	4925 	0.046106
39.47 	0.049563 	4923 	0.048968
39.49 	0.044395 	4933 	0.043920
39.51 	0.047522 	4924 	0.046313
39.53 	0.051188 	4923 	0.049979
39.55 	0.048384 	4919 	0.047550
39.57 	0.042570 	4933 	0.041858
39.59 	0.052524 	4912 	0.051809
39.61 	0.045907 	4923 	0.045431
39.63 	0.052418 	4922 	0.051942
39.65 	0.049533 	4926 	0.049057
39.67 	0.049257 	4913 	0.048780
39.69 	0.045159 	4916 	0.044682
39.71 	0.048212 	4895 	0.047255
39.73 	0.042584 	4908 	0.042225
39.75 	0.049310 	4928 	0.048240
39.77 	0.046201 	4935 	0.045845
39.79 	0.046894 	4926 	0.046537
39.81 	0.048914 	4927 	0.048201
39.83 	0.047629 	4934 	0.046323
39.85 	0.051959 	4927 	0.051007
39.87 	0.046294 	4925 	0.045700
39.89 	0.047426 	4934 	0.046832
39.91 	0.048354 	4922 	0.047402
39.93 	0.046384 	4937 	0.045435
39.95 	0.048423 	4915 	0.047927
39.97 	0.047484 	4928 	0.047246
39.99 	0.041160 	4932 	0.040447
40.01 	0.049614 	4918 	0.049018
40.03 	0.045860 	4928 	0.045266
40.05 	0.050234 	4917 	0.049519
40.07 	0.046110 	4923 	0.045515
40.09 	0.047193 	4916 	0.045882
40.11 	0.048413 	4916 	0.047798
40.13 	0.044322 	4896 	0.043724
40.15 	0.048036 	4913 	0.047201
40.17 	0.046063 	4928 	0.045707
40.19 	0.046460 	4929 	0.045509
40.21 	0.045187 	4935 	0.044357
40.23 	0.047851 	4932 	0.046663
40.25 	0.045732 	4920 	0.045255
40.27 	0.044156 	4937 	0.043682
40.29 	0.045870 	4927 	0.045275
40.31 	0.042519 	4939 	0.041926
40.33 	0.044809 	4932 	0.044334
40.35 	0.043708 	4919 	0.043232
40.37 	0.045242 	4929 	0.044648
40.39 	0.040763 	4931 	0.040030
40.41 	0.045888 	4925 	0.044937
40.43 	0.042259 	4922 	0.041664
40.45 	0.045611 	4933 	0.045136
40.47 	0.043107 	4918 	0.042631
40.49 	0.047097 	4926 	0.046502
40.51 	0.041853 	4922 	0.041377
40.53 	0.045362 	4916 	0.045124
40.55 	0.043806 	4908 	0.043209
40.57 	0.046217 	4890 	0.045738
40.59 	0.045979 	4937 	0.045742
40.61 	0.042756 	4935 	0.042518
40.63 	0.041582 	4930 	0.041107
40.65 	0.043751 	4937 	0.043039
40.67 	0.047851 	4932 	0.047119
40.69 	0.041726 	4937 	0.041132
40.71 	0.044809 	4932 	0.044572
40.73 	0.041007 	4926 	0.040769
40.75 	0.041371 	4931 	0.040896
40.77 	0.046973 	4939 	0.046143
40.79 	0.048538 	4924 	0.047586
40.81 	0.046549 	4941 	0.046431
40.83 	0.047078 	4928 	0.046246
40.85 	0.040820 	4924 	0.040345
40.87 	0.048701 	4928 	0.047869
40.89 	0.042385 	4931 	0.042029
40.91 	0.039001 	4923 	0.038287
40.93 	0.042156 	4934 	0.041919
40.95 	0.043151 	4913 	0.042793
40.97 	0.048132 	4924 	0.047299
40.99 	0.047929 	4924 	0.046977
41.01 	0.044992 	4912 	0.044753
41.03 	0.047706 	4905 	0.046990
41.05 	0.041329 	4936 	0.040736
41.07 	0.046450 	4930 	0.046094
41.09 	0.046771 	4939 	0.045822
41.11 	0.045390 	4935 	0.045034
41.13 	0.045178 	4936 	0.044308
41.15 	0.039668 	4941 	0.039550
41.17 	0.040535 	4934 	0.040535
41.19 	0.039959 	4930 	0.039722
41.21 	0.042536 	4937 	0.041904
41.23 	0.044948 	4939 	0.044593
41.25 	0.044598 	4933 	0.044123
41.27 	0.041168 	4931 	0.040693
41.29 	0.042614 	4928 	0.042000
41.31 	0.043584 	4933 	0.043228
41.33 	0.039700 	4937 	0.039226
41.35 	0.043742 	4938 	0.042912
41.37 	0.043054 	4924 	0.042698
41.39 	0.043989 	4933 	0.043376
41.41 	0.047097 	4926 	0.045888
41.43 	0.046460 	4929 	0.045489
41.45 	0.038258 	4914 	0.038139
41.47 	0.043849 	4926 	0.043492
41.49 	0.049264 	4892 	0.048665
41.51 	0.051417 	4940 	0.051180
41.53 	0.049757 	4944 	0.048928
41.55 	0.041945 	4935 	0.041470
41.57 	0.040275 	4941 	0.039445
41.59 	0.041151 	4933 	0.040914
41.61 	0.039572 	4953 	0.038981
41.63 	0.046578 	4938 	0.045866
41.65 	0.041591 	4929 	0.041115
41.67 	0.047368 	4940 	0.046657
41.69 	0.041641 	4947 	0.041049
41.71 	0.043170 	4934 	0.042319
41.73 	0.042950 	4936 	0.042356
41.75 	0.037127 	4929 	0.036890
41.77 	0.039870 	4941 	0.039515
41.79 	0.040655 	4944 	0.040418
41.81 	0.042747 	4936 	0.042510
41.83 	0.046063 	4928 	0.045469
41.85 	0.043734 	4939 	0.043378
41.87 	0.041337 	4935 	0.041219
41.89 	0.038111 	4933 	0.037873
41.91 	0.045989 	4936 	0.045158
41.93 	0.040146 	4932 	0.039433
41.95 	0.035693 	4931 	0.035217
41.97 	0.041514 	4914 	0.041395
41.99 	0.040367 	4905 	0.039392
42.01 	0.045730 	4942 	0.045138
42.03 	0.035230 	4939 	0.034637
42.05 	0.043821 	4952 	0.043229
42.07 	0.040713 	4937 	0.040476
42.09 	0.039612 	4948 	0.039375
42.11 	0.042265 	4945 	0.041791
42.13 	0.037816 	4945 	0.037204
42.15 	0.038477 	4938 	0.038240
42.17 	0.039040 	4918 	0.038802
42.19 	0.043602 	4908 	0.043364
42.21 	0.041012 	4901 	0.040534
42.23 	0.041701 	4892 	0.041342
42.25 	0.038045 	4889 	0.037206
42.27 	0.040419 	4874 	0.040058
42.29 	0.044417 	4863 	0.043574
42.31 	0.045520 	4855 	0.045158
42.33 	0.037650 	4834 	0.037044
42.35 	0.040306 	4838 	0.039822
42.37 	0.042029 	4830 	0.041423
42.39 	0.034763 	4804 	0.034641
42.41 	0.040175 	4804 	0.039809
42.43 	0.034015 	4792 	0.033893
42.45 	0.045017 	4776 	0.044526
42.47 	0.042812 	4765 	0.041706
42.49 	0.038825 	4765 	0.038456
42.51 	0.042378 	4743 	0.042131
42.53 	0.040821 	4728 	0.040449
42.55 	0.042693 	4708 	0.042071
42.57 	0.038689 	4730 	0.038689
42.59 	0.042715 	4729 	0.041848
42.61 	0.041631 	4708 	0.041258
42.63 	0.039924 	4709 	0.039426
42.65 	0.039061 	4685 	0.038686
42.67 	0.041845 	4684 	0.040969
42.69 	0.037227 	4674 	0.037102
42.71 	0.040532 	4663 	0.040029
42.73 	0.038362 	4640 	0.037983
42.75 	0.039853 	4617 	0.039599
42.77 	0.039783 	4600 	0.039528
42.79 	0.042994 	4582 	0.042355
42.81 	0.043183 	4562 	0.042798
42.83 	0.037919 	4536 	0.037402
42.85 	0.040636 	4528 	0.040507
42.87 	0.049344 	4499 	0.048411
42.89 	0.043304 	4480 	0.042911
42.91 	0.041741 	4456 	0.041479
42.93 	0.040711 	4446 	0.040162
42.95 	0.045969 	4416 	0.045173
42.97 	0.036810 	4401 	0.036144
42.99 	0.036716 	4385 	0.036315
43.01 	0.036672 	4363 	0.036135
43.03 	0.043388 	4333 	0.042442
43.05 	0.036301 	4325 	0.035894
43.07 	0.042365 	4296 	0.041252
43.09 	0.037590 	4283 	0.037317
43.11 	0.042773 	4255 	0.042223
43.13 	0.038235 	4237 	0.037682
43.15 	0.042083 	4206 	0.041665
43.17 	0.040201 	4179 	0.039500
43.19 	0.041726 	4194 	0.041447
43.21 	0.037392 	4172 	0.036971
43.23 	0.040684 	4154 	0.040261
43.25 	0.036518 	4135 	0.036376
43.27 	0.042631 	4105 	0.042488
43.29 	0.039268 	4100 	0.038268
43.31 	0.038000 	4079 	0.037569
43.33 	0.046408 	4051 	0.045372
43.35 	0.036954 	4032 	0.036954
43.37 	0.043337 	4015 	0.042608
43.39 	0.031234 	4002 	0.031234
43.41 	0.039527 	3972 	0.038789
43.43 	0.038636 	3960 	0.038341
43.45 	0.037357 	3935 	0.037208
43.47 	0.040806 	3921 	0.040208
43.49 	0.043110 	3897 	0.041883
43.51 	0.041785 	3877 	0.040878
43.53 	0.039607 	3863 	0.039000
43.55 	0.039474 	2964 	0.039276
43.57 	0.036193 	2238 	0.036193
43.59 	0.042383 	1746 	0.042047
43.61 	0.038490 	1351 	0.038490
43.63 	0.038961 	1001 	0.038961
43.65 	0.032023 	687 	0.032023
43.67 	0.031873 	502 	0.031873
43.69 	0.046322 	367 	0.046322
43.71 	0.062762 	239 	0.062762
43.73 	0.058333 	120 	0.058333
43.75 	0.187500 	16 	0.187500